experiment_id,condition_order_index,condition_id,condition_phase,condition_phase_elapsed_ms,condition_elapsed_ms,is_stimulation_on,t_ms,R_q0,R_q1,R_q2,R_q3,R_heel1,R_mid1,R_fore1,R_heel2,R_fore3,R_mid2,R_fore4,R_fore2,R_cadence,R_speed,R_steps,R_zupt,R_gyroNorm,R_accH,R_gyro_x,R_gyro_y,R_gyro_z,R_acc_x,R_acc_y,R_acc_z,R_nav_ax,R_nav_ay,R_nav_az,R_stepVel,R_stepVelj,R_stepDispRaw,R_stepDispZUPT,R_gaitEvent,R_motorMode,R_motorActive,R_motorAlignment,R_motorRegionMask,R_motorAmplitude,R_motorIntervalMs,R_motorDurationMs,R_motorPhaseMs,R_motorCycleMs,R_roll,R_pitch,R_yaw
EX0521-092111,29,C14,prep,6,6,0,1374529.092,0.686,-0.675,0.197,0.188,0,0,25,0,0,0,0,0,0,0.000,0,0,1.843,0.047,-1.640,0.400,0.740,0.011,0.992,0.019,-0.034,-0.032,-0.024,0.000,0.000,0.000,0.000,0,2,0,1,7,255,1440,250,0,0,-89.311,0.902,-31.577
EX0521-092111,29,C14,prep,6,6,0,1374534.092,0.686,-0.675,0.197,0.188,0,0,29,0,0,0,0,0,0,0.000,0,0,0.510,0.034,-0.220,0.460,0.020,0.013,1.008,0.007,0.012,-0.032,-0.024,0.000,0.000,0.000,0.000,0,2,0,1,7,255,1440,250,0,0,-89.311,0.902,-31.577
EX0521-092111,29,C14,prep,6,6,0,1374539.093,0.686,-0.675,0.197,0.188,0,0,25,0,0,0,0,0,0,0.000,0,0,2.630,0.042,2.400,-0.340,-1.020,0.018,0.984,0.002,0.012,0.040,-0.024,0.000,0.000,0.000,0.000,0,2,0,1,7,255,1440,250,0,0,-89.326,0.896,-31.577
EX0521-092111,29,C14,prep,6,6,0,1374544.092,0.686,-0.675,0.197,0.188,0,0,28,0,0,0,0,0,0,0.000,0,0,2.336,0.042,-2.060,-0.460,1.000,0.013,0.986,0.024,0.012,0.040,-0.082,0.000,0.000,0.000,0.000,0,2,0,1,7,255,1440,250,0,0,-89.312,0.901,-31.577
EX0521-092111,29,C14,prep,6,6,0,1374549.092,0.686,-0.675,0.197,0.188,0,0,27,0,0,0,0,0,0,0.000,0,0,1.065,0.038,0.820,0.160,-0.660,0.012,1.023,0.008,-0.002,0.038,-0.082,0.000,0.000,0.000,0.000,0,2,0,1,7,255,1440,250,0,0,-89.316,0.898,-31.577
EX0521-092111,29,C14,prep,6,6,0,1374554.092,0.686,-0.675,0.197,0.188,0,0,33,0,0,0,0,0,0,0.000,0,0,1.521,0.038,1.420,-0.260,-0.480,0.018,0.972,0.003,-0.002,0.038,-0.082,0.000,0.000,0.000,0.000,0,2,0,1,7,255,1440,250,0,0,-89.325,0.898,-31.577
EX0521-092111,29,C14,prep,66,66,0,1374559.092,0.686,-0.675,0.197,0.188,0,0,28,0,0,0,0,0,0,0.000,0,0,3.232,0.038,-2.920,-0.260,1.360,0.015,0.994,0.022,-0.002,0.038,-0.004,0.000,0.000,0.000,0.000,0,2,0,1,7,255,1440,250,0,0,-89.307,0.905,-31.577
EX0521-092111,29,C14,prep,66,66,0,1374564.093,0.686,-0.675,0.197,0.188,0,0,27,0,0,0,0,0,0,0.000,0,0,2.347,0.052,2.040,0.220,-1.140,0.008,1.017,0.007,-0.030,0.042,-0.004,0.000,0.000,0.000,0.000,0,2,0,1,7,255,1440,250,0,0,-89.318,0.899,-31.577
EX0521-092111,29,C14,prep,66,66,0,1374569.092,0.686,-0.675,0.197,0.188,0,0,22,0,0,0,0,0,0,0.000,0,0,1.190,0.037,-1.080,-0.020,0.500,0.021,0.964,0.009,-0.030,-0.022,-0.004,0.000,0.000,0.000,0.000,0,2,0,1,7,255,1440,250,0,0,-89.312,0.899,-31.577
EX0521-092111,29,C14,prep,66,66,0,1374574.092,0.686,-0.675,0.197,0.188,0,0,25,0,0,0,0,0,0,0.000,0,0,0.937,0.035,-0.780,-0.140,0.500,0.010,1.013,0.017,-0.030,-0.018,0.180,0.000,0.000,0.000,0.000,0,2,0,1,7,255,1440,250,0,0,-89.308,0.898,-31.577
EX0521-092111,29,C14,prep,68,68,0,1374579.092,0.686,-0.675,0.197,0.188,0,0,20,0,0,0,0,0,0,0.000,0,0,2.058,0.048,1.780,0.160,-1.020,0.016,0.987,0.006,0.044,-0.018,-0.074,0.000,0.000,0.000,0.000,0,2,0,1,7,255,1440,250,0,0,-89.319,0.893,-31.577
EX0521-092111,29,C14,prep,68,68,0,1374584.092,0.686,-0.675,0.197,0.188,0,0,21,0,0,0,0,0,0,0.000,0,0,1.137,0.030,-0.900,-0.140,0.680,0.014,0.981,0.017,-0.024,-0.018,-0.074,0.000,0.000,0.000,0.000,0,2,0,1,7,255,1440,250,0,0,-89.313,0.897,-31.577
EX0521-092111,29,C14,prep,69,69,0,1374589.092,0.686,-0.675,0.197,0.188,0,0,5,0,0,0,0,0,0,0.000,0,0,0.245,0.029,-0.100,0.040,-0.220,0.013,1.015,0.008,0.006,0.028,-0.074,0.000,0.000,0.000,0.000,0,2,0,1,7,255,1440,250,0,0,-89.313,0.897,-31.577
EX0521-092111,29,C14,prep,69,69,0,1374594.092,0.686,-0.675,0.197,0.188,0,0,18,0,0,0,0,0,0,0.000,0,0,1.789,0.048,1.660,0.100,-0.660,0.017,0.973,0.018,-0.006,-0.048,-0.128,0.000,0.000,0.000,0.000,0,2,0,1,7,255,1440,250,0,0,-89.320,0.893,-31.577
EX0521-092111,29,C14,prep,71,71,0,1374599.092,0.686,-0.675,0.197,0.188,0,0,11,0,0,0,0,0,0,0.000,0,0,2.783,0.040,-2.540,-0.200,1.120,0.012,1.012,0.003,0.006,0.040,0.164,0.000,0.000,0.000,0.000,0,2,0,1,7,255,1440,250,0,0,-89.309,0.899,-31.577
EX0521-092111,29,C14,prep,71,71,0,1374604.092,0.686,-0.675,0.197,0.188,0,0,10,0,0,0,0,0,0,0.000,0,0,1.729,0.072,1.540,0.100,-0.780,0.017,0.988,0.018,-0.006,-0.072,-0.064,0.000,0.000,0.000,0.000,0,2,0,1,7,255,1440,250,0,0,-89.315,0.895,-31.577
EX0521-092111,29,C14,prep,91,91,0,1374609.092,0.686,-0.675,0.197,0.188,0,0,8,0,0,0,0,0,0,0.000,0,0,1.328,0.049,-1.140,-0.020,0.680,0.014,0.985,0.006,0.022,0.044,-0.064,0.000,0.000,0.000,0.000,0,2,0,1,7,255,1440,250,0,0,-89.311,0.899,-31.577
EX0521-092111,29,C14,prep,91,91,0,1374614.092,0.686,-0.675,0.197,0.188,0,0,6,0,0,0,0,0,0,0.000,0,0,0.235,0.025,-0.100,-0.140,-0.160,0.013,1.011,0.015,-0.012,-0.022,-0.064,0.000,0.000,0.000,0.000,0,2,0,1,7,255,1440,250,0,0,-89.311,0.899,-31.577
EX0521-092111,29,C14,prep,91,91,0,1374619.092,0.686,-0.675,0.197,0.188,0,0,3,0,0,0,0,0,0,0.000,0,0,1.753,0.027,1.660,0.160,-0.540,0.014,0.971,0.015,-0.016,-0.022,-0.098,0.000,0.000,0.000,0.000,0,2,0,1,7,255,1440,250,0,0,-89.320,0.899,-31.577
EX0521-092111,29,C14,prep,91,91,0,1374624.093,0.686,-0.675,0.197,0.188,0,0,0,0,0,0,0,0,0,0.000,0,0,1.740,0.027,-1.620,-0.140,0.620,0.011,1.018,0.004,-0.016,-0.022,0.156,0.000,0.000,0.000,0.000,0,2,0,1,7,255,1440,250,0,0,-89.314,0.901,-31.577
EX0521-092111,29,C14,prep,91,91,0,1374629.092,0.686,-0.675,0.197,0.188,0,0,0,0,0,0,0,0,0,0.000,0,0,0.700,0.037,0.560,-0.020,-0.420,0.016,0.980,0.017,-0.014,-0.034,-0.140,0.000,0.000,0.000,0.000,0,2,0,1,7,255,1440,250,0,0,-89.314,0.901,-31.577
EX0521-092111,29,C14,prep,91,91,0,1374634.092,0.686,-0.675,0.197,0.188,0,0,0,0,0,0,0,0,0,0.000,0,0,0.662,0.017,-0.540,0.040,0.380,0.014,0.996,0.009,0.006,0.016,0.008,0.000,0.000,0.000,0.000,0,2,0,1,7,255,1440,250,0,0,-89.314,0.901,-31.577
EX0521-092111,29,C14,prep,102,102,0,1374639.092,0.686,-0.675,0.197,0.188,0,0,0,0,0,0,0,0,0,0.000,0,0,0.180,0.015,0.020,-0.080,-0.160,0.012,0.999,0.012,-0.014,0.006,0.008,0.000,0.000,0.000,0.000,0,2,0,1,7,255,1440,250,0,0,-89.314,0.901,-31.577
EX0521-092111,29,C14,prep,102,102,0,1374644.092,0.686,-0.675,0.197,0.188,0,0,0,0,0,0,0,0,0,0.000,0,0,0.281,0.007,0.260,0.040,-0.100,0.016,0.982,0.015,-0.004,0.006,0.008,0.000,0.000,0.000,0.000,0,2,0,1,7,255,1440,250,0,0,-89.314,0.901,-31.577
EX0521-092111,29,C14,prep,102,102,0,1374649.092,0.686,-0.675,0.197,0.188,0,0,0,0,0,0,0,0,0,0.000,0,0,0.435,0.007,-0.340,-0.080,0.260,0.013,1.005,0.009,-0.004,0.006,0.040,0.000,0.000,0.000,0.000,0,2,0,1,7,255,1440,250,0,0,-89.314,0.901,-31.577
EX0521-092111,29,C14,prep,102,102,0,1374654.092,0.686,-0.675,0.197,0.188,0,0,0,0,0,0,0,0,0,0.000,0,0,0.584,0.008,0.500,0.040,-0.300,0.015,0.991,0.012,-0.002,-0.008,-0.034,0.000,0.000,0.000,0.000,0,2,0,1,7,255,1440,250,0,0,-89.314,0.901,-31.577
EX0521-092111,29,C14,prep,126,126,0,1374659.092,0.686,-0.675,0.197,0.188,0,0,0,0,0,0,0,0,0,0.000,0,0,0.949,0.009,-0.840,0.040,0.440,0.015,0.992,0.012,0.004,-0.008,-0.030,0.000,0.000,0.000,0.000,0,2,0,1,7,255,1440,250,0,0,-89.310,0.901,-31.577
EX0521-092111,29,C14,prep,126,126,0,1374664.092,0.686,-0.675,0.197,0.188,0,0,0,0,0,0,0,0,0,0.000,0,0,0.441,0.009,0.380,0.040,-0.220,0.014,0.999,0.011,0.004,-0.008,-0.030,0.000,0.000,0.000,0.000,0,2,0,1,7,255,1440,250,0,0,-89.310,0.901,-31.577
EX0521-092111,29,C14,prep,126,126,0,1374669.092,0.686,-0.675,0.197,0.188,0,0,0,0,0,0,0,0,0,0.000,0,0,0.180,0.011,-0.160,-0.020,0.080,0.016,0.989,0.011,0.008,-0.008,-0.030,0.000,0.000,0.000,0.000,0,2,0,1,7,255,1440,250,0,0,-89.310,0.901,-31.577
EX0521-092111,29,C14,prep,126,126,0,1374674.091,0.686,-0.675,0.197,0.188,0,0,0,0,0,0,0,0,0,0.000,0,0,0.092,0.002,-0.040,-0.020,0.080,0.014,0.999,0.012,-0.002,0.000,0.042,0.000,0.000,0.000,0.000,0,2,0,1,7,255,1440,250,0,0,-89.310,0.901,-31.577
EX0521-092111,29,C14,prep,134,134,0,1374679.091,0.686,-0.675,0.197,0.188,0,0,0,0,0,0,0,0,0,0.000,0,0,0.360,0.004,0.320,0.040,-0.160,0.014,0.993,0.011,0.004,0.000,-0.020,0.000,0.000,0.000,0.000,0,2,0,1,7,255,1440,250,0,0,-89.310,0.901,-31.577
EX0521-092111,29,C14,prep,134,134,0,1374684.091,0.686,-0.675,0.197,0.188,0,0,0,0,0,0,0,0,0,0.000,0,0,0.637,0.006,-0.600,-0.080,0.200,0.014,0.993,0.013,-0.006,0.000,-0.016,0.000,0.000,0.000,0.000,0,2,0,1,7,255,1440,250,0,0,-89.307,0.901,-31.577
EX0521-092111,29,C14,prep,150,150,0,1374689.091,0.686,-0.675,0.197,0.188,0,0,0,0,0,0,0,0,0,0.000,0,0,0.360,0.007,0.320,0.040,-0.160,0.012,0.997,0.011,-0.006,0.004,-0.016,0.000,0.000,0.000,0.000,0,2,0,1,7,255,1440,250,0,0,-89.307,0.901,-31.577
EX0521-092111,29,C14,prep,150,150,0,1374694.091,0.686,-0.675,0.197,0.188,0,0,0,0,0,0,0,0,0,0.000,0,0,0.130,0.010,-0.100,-0.020,0.080,0.014,0.991,0.010,-0.006,0.008,-0.016,0.000,0.000,0.000,0.000,0,2,0,1,7,255,1440,250,0,0,-89.307,0.901,-31.577
EX0521-092111,29,C14,prep,182,182,0,1374699.091,0.686,-0.675,0.197,0.188,0,0,0,0,0,0,0,0,0,0.000,0,0,0.235,0.008,-0.220,-0.020,0.080,0.014,0.997,0.011,0.002,0.008,0.018,0.000,0.000,0.000,0.000,0,2,0,1,7,255,1440,250,0,0,-89.307,0.901,-31.577
EX0521-092111,29,C14,prep,182,182,0,1374704.091,0.686,-0.675,0.197,0.188,0,0,0,0,0,0,0,0,0,0.000,0,0,0.281,0.008,0.260,0.040,-0.100,0.015,0.992,0.011,0.008,0.002,-0.024,0.000,0.000,0.000,0.000,0,2,0,1,7,255,1440,250,0,0,-89.307,0.901,-31.577
EX0521-092111,29,C14,prep,182,182,0,1374709.091,0.686,-0.675,0.197,0.188,0,0,0,0,0,0,0,0,0,0.000,0,0,0.262,0.004,-0.220,-0.020,0.140,0.014,0.994,0.012,0.002,-0.004,-0.006,0.000,0.000,0.000,0.000,0,2,0,1,7,255,1440,250,0,0,-89.307,0.901,-31.577
EX0521-092111,29,C14,prep,182,182,0,1374714.092,0.686,-0.675,0.197,0.188,0,0,0,0,0,0,0,0,0,0.000,0,0,0.173,0.006,0.140,-0.020,-0.100,0.014,0.997,0.012,-0.004,-0.004,-0.006,0.000,0.000,0.000,0.000,0,2,0,1,7,255,1440,250,0,0,-89.307,0.901,-31.577
EX0521-092111,29,C14,prep,182,182,0,1374719.091,0.686,-0.675,0.197,0.188,0,0,0,0,0,0,0,0,0,0.000,0,0,0.115,0.009,0.020,-0.080,0.080,0.015,0.991,0.012,-0.004,-0.008,-0.006,0.000,0.000,0.000,0.000,0,2,0,1,7,255,1440,250,0,0,-89.307,0.901,-31.577
EX0521-092111,29,C14,prep,182,182,0,1374724.093,0.686,-0.675,0.197,0.188,0,0,0,0,0,0,0,0,0,0.000,0,0,0.049,0.004,-0.040,-0.020,0.020,0.013,0.996,0.011,-0.004,0.000,0.014,0.000,0.000,0.000,0.000,0,2,0,1,7,255,1440,250,0,0,-89.307,0.901,-31.577
EX0521-092111,29,C14,prep,202,202,0,1374729.091,0.686,-0.675,0.197,0.188,0,0,0,0,0,0,0,0,0,0.000,0,0,0.110,0.012,0.020,0.040,-0.100,0.016,0.993,0.012,0.006,-0.010,-0.014,0.000,0.000,0.000,0.000,0,2,0,1,7,255,1440,250,0,0,-89.307,0.901,-31.577
EX0521-092111,29,C14,prep,202,202,0,1374734.091,0.686,-0.675,0.197,0.188,0,0,0,0,0,0,0,0,0,0.000,0,0,0.180,0.004,-0.160,-0.020,0.080,0.014,0.993,0.012,-0.004,0.000,-0.014,0.000,0.000,0.000,0.000,0,2,0,1,7,255,1440,250,0,0,-89.307,0.901,-31.577
EX0521-092111,29,C14,prep,203,203,0,1374739.091,0.686,-0.675,0.197,0.188,0,0,0,0,0,0,0,0,0,0.000,0,0,0.227,0.002,0.200,0.040,-0.100,0.014,0.996,0.011,-0.002,0.000,-0.014,0.000,0.000,0.000,0.000,0,2,0,1,7,255,1440,250,0,0,-89.307,0.901,-31.577
EX0521-092111,29,C14,prep,203,203,0,1374744.091,0.686,-0.675,0.197,0.188,0,0,0,0,0,0,0,0,0,0.000,0,0,0.092,0.003,-0.040,-0.080,0.020,0.015,0.993,0.011,-0.002,0.002,-0.020,0.000,0.000,0.000,0.000,0,2,0,1,7,255,1440,250,0,0,-89.307,0.901,-31.577
EX0521-092111,29,C14,prep,204,204,0,1374749.091,0.686,-0.675,0.197,0.188,0,0,0,0,0,0,0,0,0,0.000,0,0,0.092,0.003,-0.040,-0.080,0.020,0.013,0.995,0.012,-0.002,0.002,0.000,0.000,0.000,0.000,0.000,0,2,0,1,7,255,1440,250,0,0,-89.307,0.901,-31.577
EX0521-092111,29,C14,prep,204,204,0,1374754.092,0.686,-0.675,0.197,0.188,0,0,0,0,0,0,0,0,0,0.000,0,0,0.177,0.008,0.140,0.040,-0.100,0.015,0.993,0.011,0.008,-0.002,-0.014,0.000,0.000,0.000,0.000,0,2,0,1,7,255,1440,250,0,0,-89.307,0.901,-31.577
EX0521-092111,29,C14,prep,214,214,0,1374759.093,0.686,-0.675,0.197,0.188,0,0,0,0,0,0,0,0,0,0.000,0,0,0.110,0.010,-0.100,0.040,0.020,0.016,0.993,0.011,0.010,-0.002,-0.014,0.000,0.000,0.000,0.000,0,2,0,1,7,255,1440,250,0,0,-89.307,0.901,-31.577
EX0521-092111,29,C14,prep,215,215,0,1374764.093,0.686,-0.675,0.197,0.188,0,0,0,0,0,0,0,0,0,0.000,0,0,0.069,0.010,-0.040,0.040,-0.040,0.012,0.994,0.012,0.010,-0.002,-0.014,0.000,0.000,0.000,0.000,0,2,0,1,7,255,1440,250,0,0,-89.307,0.901,-31.577
EX0521-092111,29,C14,prep,245,245,0,1374769.092,0.686,-0.675,0.197,0.188,0,0,0,0,0,0,0,0,0,0.000,0,0,0.130,0.002,-0.100,-0.020,0.080,0.014,0.993,0.012,0.000,-0.002,-0.014,0.000,0.000,0.000,0.000,0,2,0,1,7,255,1440,250,0,0,-89.307,0.901,-31.577
EX0521-092111,29,C14,prep,245,245,0,1374774.091,0.686,-0.675,0.197,0.188,0,0,0,0,0,0,0,0,0,0.000,0,0,0.092,0.004,0.020,-0.080,-0.040,0.014,0.995,0.011,-0.002,0.004,-0.004,0.000,0.000,0.000,0.000,0,2,0,1,7,255,1440,250,0,0,-89.307,0.901,-31.577
EX0521-092111,29,C14,prep,246,246,0,1374779.091,0.686,-0.675,0.197,0.188,0,0,0,0,0,0,0,0,0,0.000,0,0,0.130,0.004,0.080,-0.020,-0.100,0.015,0.994,0.011,0.000,-0.004,-0.010,0.000,0.000,0.000,0.000,0,2,0,1,7,255,1440,250,0,0,-89.307,0.901,-31.577
EX0521-092111,29,C14,prep,246,246,0,1374784.091,0.686,-0.675,0.197,0.188,0,0,0,0,0,0,0,0,0,0.000,0,0,0.060,0.002,-0.040,-0.020,-0.040,0.014,0.993,0.011,0.002,0.000,-0.010,0.000,0.000,0.000,0.000,0,2,0,1,7,255,1440,250,0,0,-89.307,0.901,-31.577
EX0521-092111,29,C14,prep,247,247,0,1374789.092,0.686,-0.675,0.197,0.188,0,0,0,0,0,0,0,0,0,0.000,0,0,0.104,0.003,0.020,-0.020,-0.100,0.014,0.995,0.012,0.002,-0.002,-0.010,0.000,0.000,0.000,0.000,0,2,0,1,7,255,1440,250,0,0,-89.307,0.901,-31.577
EX0521-092111,29,C14,prep,247,247,0,1374794.091,0.686,-0.675,0.197,0.188,0,0,0,0,0,0,0,0,0,0.000,0,0,0.060,0.002,-0.040,0.040,0.020,0.014,0.991,0.011,0.002,0.000,-0.018,0.000,0.000,0.000,0.000,0,2,0,1,7,255,1440,250,0,0,-89.307,0.901,-31.577
EX0521-092111,29,C14,prep,278,278,0,1374799.092,0.686,-0.675,0.197,0.188,0,0,0,0,0,0,0,0,0,0.000,0,0,0.049,0.002,-0.040,-0.020,0.020,0.015,0.995,0.012,0.000,-0.002,0.000,0.000,0.000,0.000,0.000,0,2,0,1,7,255,1440,250,0,0,-89.307,0.901,-31.577
EX0521-092111,29,C14,prep,278,278,0,1374804.092,0.686,-0.675,0.197,0.188,0,0,0,0,0,0,0,0,0,0.000,0,0,0.092,0.010,0.080,-0.020,-0.040,0.015,0.994,0.012,0.000,-0.010,-0.008,0.000,0.000,0.000,0.000,0,2,0,1,7,255,1440,250,0,0,-89.307,0.901,-31.577
EX0521-092111,29,C14,prep,278,278,0,1374809.092,0.686,-0.675,0.197,0.188,0,0,0,0,0,0,0,0,0,0.000,0,0,0.098,0.010,-0.040,-0.080,-0.040,0.014,0.994,0.011,0.000,-0.010,-0.004,0.000,0.000,0.000,0.000,0,2,0,1,7,255,1440,250,0,0,-89.307,0.901,-31.577
EX0521-092111,29,C14,prep,278,278,0,1374814.092,0.686,-0.675,0.197,0.188,0,0,0,0,0,0,0,0,0,0.000,0,0,0.060,0.002,0.020,0.040,-0.040,0.014,0.994,0.012,0.000,-0.002,-0.004,0.000,0.000,0.000,0.000,0,2,0,1,7,255,1440,250,0,0,-89.307,0.901,-31.577
EX0521-092111,29,C14,prep,278,278,0,1374819.092,0.686,-0.675,0.197,0.188,0,0,0,0,0,0,0,0,0,0.000,0,0,0.035,0.002,0.020,-0.020,0.020,0.015,0.993,0.011,0.000,-0.002,-0.004,0.000,0.000,0.000,0.000,0,2,0,1,7,255,1440,250,0,0,-89.307,0.901,-31.577
EX0521-092111,29,C14,prep,278,278,0,1374824.093,0.686,-0.675,0.197,0.188,0,0,0,0,0,0,0,0,0,0.000,0,0,0.060,0.006,-0.040,-0.020,-0.040,0.015,0.994,0.011,0.006,-0.002,-0.008,0.000,0.000,0.000,0.000,0,2,0,1,7,255,1440,250,0,0,-89.307,0.901,-31.577
EX0521-092111,29,C14,prep,311,311,0,1374829.092,0.686,-0.675,0.197,0.188,0,0,0,0,0,0,0,0,0,0.000,0,0,0.060,0.006,-0.040,-0.020,-0.040,0.014,0.995,0.012,0.006,-0.002,-0.008,0.000,0.000,0.000,0.000,0,2,0,1,7,255,1440,250,0,0,-89.307,0.901,-31.577
EX0521-092111,29,C14,prep,311,311,0,1374834.092,0.686,-0.675,0.197,0.188,0,0,0,0,0,0,0,0,0,0.000,0,0,0.092,0.006,-0.040,-0.080,0.020,0.015,0.994,0.011,0.006,-0.002,-0.004,0.000,0.000,0.000,0.000,0,2,0,1,7,255,1440,250,0,0,-89.307,0.901,-31.577
EX0521-092111,29,C14,prep,311,311,0,1374839.092,0.686,-0.675,0.197,0.188,0,0,0,0,0,0,0,0,0,0.000,0,0,0.085,0.004,0.080,-0.020,0.020,0.013,0.995,0.012,-0.004,0.002,0.006,0.000,0.000,0.000,0.000,0,2,0,1,7,255,1440,250,0,0,-89.307,0.901,-31.577
EX0521-092111,29,C14,prep,311,311,0,1374844.092,0.686,-0.675,0.197,0.188,0,0,0,0,0,0,0,0,0,0.000,0,0,0.049,0.003,-0.040,-0.020,0.020,0.015,0.994,0.013,-0.002,0.002,-0.004,0.000,0.000,0.000,0.000,0,2,0,1,7,255,1440,250,0,0,-89.307,0.901,-31.577
EX0521-092111,29,C14,prep,311,311,0,1374849.092,0.686,-0.675,0.197,0.188,0,0,0,0,0,0,0,0,0,0.000,0,0,0.049,0.003,0.020,-0.020,-0.040,0.014,0.993,0.012,-0.002,-0.002,-0.008,0.000,0.000,0.000,0.000,0,2,0,1,7,255,1440,250,0,0,-89.307,0.901,-31.577
EX0521-092111,29,C14,prep,311,311,0,1374854.092,0.686,-0.675,0.197,0.188,0,0,0,0,0,0,0,0,0,0.000,0,0,0.049,0.002,-0.040,-0.020,0.020,0.015,0.994,0.011,0.000,-0.002,-0.008,0.000,0.000,0.000,0.000,0,2,0,1,7,255,1440,250,0,0,-89.307,0.901,-31.577
EX0521-092111,29,C14,prep,330,330,0,1374859.092,0.686,-0.675,0.197,0.188,0,0,0,0,0,0,0,0,0,0.000,0,0,0.049,0.002,-0.040,-0.020,0.020,0.014,0.993,0.012,0.000,-0.002,-0.012,0.000,0.000,0.000,0.000,0,2,0,1,7,255,1440,250,0,0,-89.307,0.901,-31.577
EX0521-092111,29,C14,prep,330,330,0,1374864.092,0.686,-0.675,0.197,0.188,0,0,0,0,0,0,0,0,0,0.000,0,0,0.060,0.004,-0.040,-0.020,-0.040,0.015,0.992,0.012,0.000,-0.004,-0.012,0.000,0.000,0.000,0.000,0,2,0,1,7,255,1440,250,0,0,-89.307,0.901,-31.577
EX0521-092111,29,C14,prep,330,330,0,1374869.092,0.686,-0.675,0.197,0.188,0,0,0,0,0,0,0,0,0,0.000,0,0,0.049,0.009,0.020,0.040,0.020,0.013,0.994,0.012,-0.008,-0.004,-0.012,0.000,0.000,0.000,0.000,0,2,0,1,7,255,1440,250,0,0,-89.307,0.901,-31.577
EX0521-092111,29,C14,prep,330,330,0,1374874.092,0.686,-0.675,0.197,0.188,0,0,0,0,0,0,0,0,0,0.000,0,0,0.092,0.002,-0.040,-0.080,0.020,0.015,0.993,0.011,0.000,0.002,-0.012,0.000,0.000,0.000,0.000,0,2,0,1,7,255,1440,250,0,0,-89.307,0.901,-31.577
EX0521-092111,29,C14,prep,342,342,0,1374879.092,0.686,-0.675,0.197,0.188,0,0,0,0,0,0,0,0,0,0.000,0,0,0.035,0.003,0.020,-0.020,0.020,0.015,0.995,0.013,-0.002,0.002,-0.004,0.000,0.000,0.000,0.000,0,2,0,1,7,255,1440,250,0,0,-89.307,0.901,-31.577
EX0521-092111,29,C14,prep,342,342,0,1374884.092,0.686,-0.675,0.197,0.188,0,0,0,0,0,0,0,0,0,0.000,0,0,0.085,0.006,0.080,-0.020,0.020,0.014,0.993,0.012,-0.002,-0.006,-0.012,0.000,0.000,0.000,0.000,0,2,0,1,7,255,1440,250,0,0,-89.307,0.901,-31.577
EX0521-092111,29,C14,prep,343,343,0,1374889.092,0.686,-0.675,0.197,0.188,0,0,0,0,0,0,0,0,0,0.000,0,0,0.049,0.006,-0.040,-0.020,0.020,0.014,0.996,0.012,-0.002,-0.006,0.006,0.000,0.000,0.000,0.000,0,2,0,1,7,255,1440,250,0,0,-89.307,0.901,-31.577
EX0521-092111,29,C14,prep,343,343,0,1374894.092,0.686,-0.675,0.197,0.188,0,0,0,0,0,0,0,0,0,0.000,0,0,0.092,0.004,-0.040,-0.080,0.020,0.013,0.993,0.012,-0.004,-0.002,-0.012,0.000,0.000,0.000,0.000,0,2,0,1,7,255,1440,250,0,0,-89.307,0.901,-31.577
EX0521-092111,29,C14,prep,365,365,0,1374899.092,0.686,-0.675,0.197,0.188,0,0,0,0,0,0,0,0,0,0.000,0,0,0.060,0.004,-0.040,-0.020,-0.040,0.014,0.995,0.012,-0.004,-0.002,0.006,0.000,0.000,0.000,0.000,0,2,0,1,7,255,1440,250,0,0,-89.307,0.901,-31.577
EX0521-092111,29,C14,prep,365,365,0,1374904.092,0.686,-0.675,0.197,0.188,0,0,0,0,0,0,0,0,0,0.000,0,0,0.035,0.007,0.020,-0.020,0.020,0.014,0.995,0.012,-0.004,-0.006,0.006,0.000,0.000,0.000,0.000,0,2,0,1,7,255,1440,250,0,0,-89.307,0.901,-31.577
EX0521-092111,29,C14,prep,400,400,0,1374909.092,0.686,-0.675,0.197,0.188,0,0,0,0,0,0,0,0,0,0.000,0,0,0.060,0.007,-0.040,-0.020,-0.040,0.015,0.994,0.012,-0.004,-0.006,0.006,0.000,0.000,0.000,0.000,0,2,0,1,7,255,1440,250,0,0,-89.307,0.901,-31.577
EX0521-092111,29,C14,prep,400,400,0,1374914.092,0.686,-0.675,0.197,0.188,0,0,0,0,0,0,0,0,0,0.000,0,0,0.049,0.006,0.020,-0.020,-0.040,0.015,0.995,0.011,0.004,-0.004,0.006,0.000,0.000,0.000,0.000,0,2,0,1,7,255,1440,250,0,0,-89.307,0.901,-31.577
EX0521-092111,29,C14,prep,400,400,0,1374919.092,0.686,-0.675,0.197,0.188,0,0,0,0,0,0,0,0,0,0.000,0,0,0.060,0.004,-0.040,-0.020,-0.040,0.014,0.994,0.012,0.004,-0.002,-0.002,0.000,0.000,0.000,0.000,0,2,0,1,7,255,1440,250,0,0,-89.307,0.901,-31.577
EX0521-092111,29,C14,prep,400,400,0,1374924.093,0.686,-0.675,0.197,0.188,0,0,0,0,0,0,0,0,0,0.000,0,0,0.069,0.002,-0.040,0.040,-0.040,0.015,0.993,0.012,0.000,-0.002,-0.008,0.000,0.000,0.000,0.000,0,2,0,1,7,255,1440,250,0,0,-89.307,0.901,-31.577
EX0521-092111,29,C14,prep,400,400,0,1374929.092,0.686,-0.675,0.197,0.188,0,0,0,0,0,0,0,0,0,0.000,0,0,0.092,0.002,0.020,-0.080,-0.040,0.015,0.994,0.011,0.000,-0.002,-0.008,0.000,0.000,0.000,0.000,0,2,0,1,7,255,1440,250,0,0,-89.307,0.901,-31.577
EX0521-092111,29,C14,prep,400,400,0,1374934.092,0.686,-0.675,0.197,0.188,0,0,0,0,0,0,0,0,0,0.000,0,0,0.049,0.006,0.020,-0.020,-0.040,0.015,0.994,0.012,0.004,-0.004,-0.008,0.000,0.000,0.000,0.000,0,2,0,1,7,255,1440,250,0,0,-89.307,0.901,-31.577
EX0521-092111,29,C14,prep,400,400,0,1374939.092,0.686,-0.675,0.197,0.188,0,0,0,0,0,0,0,0,0,0.000,0,0,0.049,0.006,-0.040,-0.020,0.020,0.014,0.994,0.013,0.004,-0.004,-0.002,0.000,0.000,0.000,0.000,0,2,0,1,7,255,1440,250,0,0,-89.307,0.901,-31.577
EX0521-092111,29,C14,prep,400,400,0,1374944.092,0.686,-0.675,0.197,0.188,0,0,0,0,0,0,0,0,0,0.000,0,0,0.092,0.007,-0.040,-0.080,0.020,0.014,0.993,0.012,-0.004,-0.006,-0.008,0.000,0.000,0.000,0.000,0,2,0,1,7,255,1440,250,0,0,-89.307,0.901,-31.577
EX0521-092111,29,C14,prep,432,432,0,1374949.092,0.686,-0.675,0.197,0.188,0,0,0,0,0,0,0,0,0,0.000,0,0,0.049,0.007,0.020,-0.020,-0.040,0.014,0.993,0.011,-0.004,-0.006,-0.016,0.000,0.000,0.000,0.000,0,2,0,1,7,255,1440,250,0,0,-89.307,0.901,-31.577
EX0521-092111,29,C14,prep,432,432,0,1374954.092,0.686,-0.675,0.197,0.188,0,0,0,0,0,0,0,0,0,0.000,0,0,0.092,0.004,-0.040,-0.080,0.020,0.014,0.995,0.011,-0.002,0.004,-0.016,0.000,0.000,0.000,0.000,0,2,0,1,7,255,1440,250,0,0,-89.307,0.901,-31.577
EX0521-092111,29,C14,prep,432,432,0,1374959.093,0.686,-0.675,0.197,0.188,0,0,0,0,0,0,0,0,0,0.000,0,0,0.060,0.006,-0.040,-0.020,-0.040,0.013,0.994,0.012,-0.002,0.006,-0.008,0.000,0.000,0.000,0.000,0,2,0,1,7,255,1440,250,0,0,-89.307,0.901,-31.577
EX0521-092111,29,C14,prep,432,432,0,1374964.093,0.686,-0.675,0.197,0.188,0,0,0,0,0,0,0,0,0,0.000,0,0,0.069,0.007,-0.040,0.040,-0.040,0.014,0.994,0.012,-0.004,0.006,-0.006,0.000,0.000,0.000,0.000,0,2,0,1,7,255,1440,250,0,0,-89.307,0.901,-31.577
EX0521-092111,29,C14,prep,434,434,0,1374969.091,0.686,-0.675,0.197,0.188,0,0,0,0,0,0,0,0,0,0.000,0,0,0.035,0.004,0.020,-0.020,0.020,0.015,0.994,0.011,-0.004,0.000,-0.006,0.000,0.000,0.000,0.000,0,2,0,1,7,255,1440,250,0,0,-89.307,0.901,-31.577
EX0521-092111,29,C14,prep,434,434,0,1374974.091,0.686,-0.675,0.197,0.188,0,0,0,0,0,0,0,0,0,0.000,0,0,0.049,0.006,0.020,-0.020,-0.040,0.015,0.995,0.011,0.006,0.000,-0.006,0.000,0.000,0.000,0.000,0,2,0,1,7,255,1440,250,0,0,-89.307,0.901,-31.577
EX0521-092111,29,C14,prep,434,434,0,1374979.091,0.686,-0.675,0.197,0.188,0,0,0,0,0,0,0,0,0,0.000,0,0,0.049,0.006,0.020,-0.020,-0.040,0.014,0.994,0.011,0.006,0.000,-0.002,0.000,0.000,0.000,0.000,0,2,0,1,7,255,1440,250,0,0,-89.307,0.901,-31.577
EX0521-092111,29,C14,prep,434,434,0,1374984.091,0.686,-0.675,0.197,0.188,0,0,0,0,0,0,0,0,0,0.000,0,0,0.035,0.007,0.020,-0.020,0.020,0.014,0.994,0.011,0.004,0.006,-0.002,0.000,0.000,0.000,0.000,0,2,0,1,7,255,1440,250,0,0,-89.307,0.901,-31.577
EX0521-092111,29,C14,prep,465,465,0,1374989.091,0.686,-0.675,0.197,0.188,0,0,0,0,0,0,0,0,0,0.000,0,0,0.049,0.007,0.020,0.040,0.020,0.014,0.994,0.012,0.004,0.006,-0.002,0.000,0.000,0.000,0.000,0,2,0,1,7,255,1440,250,0,0,-89.307,0.901,-31.577
EX0521-092111,29,C14,prep,465,465,0,1374994.091,0.686,-0.675,0.197,0.188,0,0,0,0,0,0,0,0,0,0.000,0,0,0.060,0.004,-0.040,0.040,0.020,0.015,0.994,0.012,0.004,-0.002,-0.006,0.000,0.000,0.000,0.000,0,2,0,1,7,255,1440,250,0,0,-89.307,0.901,-31.577
EX0521-092111,29,C14,prep,500,500,0,1374999.091,0.686,-0.675,0.197,0.188,0,0,0,0,0,0,0,0,0,0.000,0,0,0.060,0.004,-0.040,-0.020,-0.040,0.014,0.993,0.012,0.000,-0.004,-0.006,0.000,0.000,0.000,0.000,0,2,0,1,7,255,1440,250,0,0,-89.307,0.901,-31.577
EX0521-092111,29,C14,prep,500,500,0,1375004.091,0.686,-0.675,0.197,0.188,0,0,0,0,0,0,0,0,0,0.000,0,0,0.035,0.006,0.020,-0.020,0.020,0.015,0.994,0.012,0.004,-0.004,-0.006,0.000,0.000,0.000,0.000,0,2,0,1,7,255,1440,250,0,0,-89.307,0.901,-31.577
EX0521-092111,29,C14,prep,500,500,0,1375009.091,0.686,-0.675,0.197,0.188,0,0,0,0,0,0,0,0,0,0.000,0,0,0.049,0.006,0.020,-0.020,-0.040,0.015,0.993,0.011,0.004,-0.004,-0.012,0.000,0.000,0.000,0.000,0,2,0,1,7,255,1440,250,0,0,-89.307,0.901,-31.577
EX0521-092111,29,C14,prep,500,500,0,1375014.092,0.686,-0.675,0.197,0.188,0,0,0,0,0,0,0,0,0,0.000,0,0,0.049,0.004,0.020,0.040,0.020,0.014,0.993,0.012,0.004,0.000,-0.012,0.000,0.000,0.000,0.000,0,2,0,1,7,255,1440,250,0,0,-89.307,0.901,-31.577
EX0521-092111,29,C14,prep,500,500,0,1375019.091,0.686,-0.675,0.197,0.188,0,0,0,0,0,0,0,0,0,0.000,0,0,0.049,0.003,0.020,0.040,0.020,0.014,0.995,0.011,0.002,0.002,-0.012,0.000,0.000,0.000,0.000,0,2,0,1,7,255,1440,250,0,0,-89.307,0.901,-31.577
EX0521-092111,29,C14,prep,500,500,0,1375024.093,0.686,-0.675,0.197,0.188,0,0,0,0,0,0,0,0,0,0.000,0,0,0.069,0.002,-0.040,0.040,-0.040,0.015,0.993,0.012,0.002,0.000,-0.010,0.000,0.000,0.000,0.000,0,2,0,1,7,255,1440,250,0,0,-89.307,0.901,-31.577
EX0521-092111,29,C14,prep,500,500,0,1375029.091,0.686,-0.675,0.197,0.188,0,0,0,0,0,0,0,0,0,0.000,0,0,0.049,0.003,0.020,0.040,0.020,0.014,0.993,0.012,0.002,-0.002,-0.010,0.000,0.000,0.000,0.000,0,2,0,1,7,255,1440,250,0,0,-89.307,0.901,-31.577
EX0521-092111,29,C14,prep,500,500,0,1375034.091,0.686,-0.675,0.197,0.188,0,0,0,0,0,0,0,0,0,0.000,0,0,0.060,0.006,-0.040,-0.020,-0.040,0.014,0.994,0.012,0.000,-0.006,-0.010,0.000,0.000,0.000,0.000,0,2,0,1,7,255,1440,250,0,0,-89.307,0.901,-31.577
EX0521-092111,29,C14,prep,502,502,0,1375039.091,0.686,-0.675,0.197,0.188,0,0,0,0,0,0,0,0,0,0.000,0,0,0.049,0.002,0.020,-0.020,-0.040,0.015,0.995,0.010,0.000,-0.002,-0.006,0.000,0.000,0.000,0.000,0,2,0,1,7,255,1440,250,0,0,-89.307,0.901,-31.577
EX0521-092111,29,C14,prep,502,502,0,1375044.091,0.686,-0.675,0.197,0.188,0,0,0,0,0,0,0,0,0,0.000,0,0,0.085,0.008,0.020,-0.080,0.020,0.015,0.994,0.012,0.006,-0.006,-0.002,0.000,0.000,0.000,0.000,0,2,0,1,7,255,1440,250,0,0,-89.307,0.901,-31.577
EX0521-092111,29,C14,prep,525,525,0,1375049.091,0.686,-0.675,0.197,0.188,0,0,0,0,0,0,0,0,0,0.000,0,0,0.110,0.006,-0.100,-0.020,-0.040,0.014,0.994,0.012,0.006,0.000,-0.002,0.000,0.000,0.000,0.000,0,2,0,1,7,255,1440,250,0,0,-89.307,0.901,-31.577
EX0521-092111,29,C14,prep,525,525,0,1375054.092,0.686,-0.675,0.197,0.188,0,0,0,0,0,0,0,0,0,0.000,0,0,0.035,0.006,0.020,-0.020,0.020,0.015,0.994,0.013,-0.002,-0.006,-0.006,0.000,0.000,0.000,0.000,0,2,0,1,7,255,1440,250,0,0,-89.307,0.901,-31.577
EX0521-092111,29,C14,prep,525,525,0,1375059.091,0.686,-0.675,0.197,0.188,0,0,0,0,0,0,0,0,0,0.000,0,0,0.049,0.006,0.020,-0.020,-0.040,0.015,0.993,0.012,-0.002,-0.006,-0.006,0.000,0.000,0.000,0.000,0,2,0,1,7,255,1440,250,0,0,-89.307,0.901,-31.577
EX0521-092111,29,C14,prep,525,525,0,1375064.092,0.686,-0.675,0.197,0.188,0,0,0,0,0,0,0,0,0,0.000,0,0,0.049,0.010,-0.040,-0.020,0.020,0.015,0.995,0.011,0.008,-0.006,-0.006,0.000,0.000,0.000,0.000,0,2,0,1,7,255,1440,250,0,0,-89.307,0.901,-31.577
EX0521-092111,29,C14,prep,526,526,0,1375069.091,0.686,-0.675,0.197,0.188,0,0,0,0,0,0,0,0,0,0.000,0,0,0.092,0.008,0.020,-0.080,-0.040,0.014,0.995,0.012,0.008,-0.002,0.004,0.000,0.000,0.000,0.000,0,2,0,1,7,255,1440,250,0,0,-89.307,0.901,-31.577
EX0521-092111,29,C14,prep,526,526,0,1375074.093,0.686,-0.675,0.197,0.188,0,0,0,0,0,0,0,0,0,0.000,0,0,0.049,0.003,0.020,-0.020,-0.040,0.014,0.993,0.012,-0.002,-0.002,0.004,0.000,0.000,0.000,0.000,0,2,0,1,7,255,1440,250,0,0,-89.307,0.901,-31.577
EX0521-092111,29,C14,prep,534,534,0,1375079.091,0.686,-0.675,0.197,0.188,0,0,0,0,0,0,0,0,0,0.000,0,0,0.035,0.003,0.020,-0.020,0.020,0.014,0.993,0.011,-0.002,-0.002,-0.010,0.000,0.000,0.000,0.000,0,2,0,1,7,255,1440,250,0,0,-89.307,0.901,-31.577
EX0521-092111,29,C14,prep,534,534,0,1375084.091,0.686,-0.675,0.197,0.188,0,0,0,0,0,0,0,0,0,0.000,0,0,0.049,0.002,-0.040,-0.020,0.020,0.014,0.994,0.011,0.000,0.002,-0.010,0.000,0.000,0.000,0.000,0,2,0,1,7,255,1440,250,0,0,-89.307,0.901,-31.577
EX0521-092111,29,C14,prep,564,564,0,1375089.091,0.686,-0.675,0.197,0.188,0,0,0,0,0,0,0,0,0,0.000,0,0,0.060,0.002,-0.040,-0.020,-0.040,0.014,0.994,0.012,0.000,0.002,-0.002,0.000,0.000,0.000,0.000,0,2,0,1,7,255,1440,250,0,0,-89.307,0.901,-31.577
EX0521-092111,29,C14,prep,564,564,0,1375094.092,0.686,-0.675,0.197,0.188,0,0,0,0,0,0,0,0,0,0.000,0,0,0.049,0.000,0.020,-0.020,-0.040,0.015,0.993,0.012,0.000,0.000,-0.002,0.000,0.000,0.000,0.000,0,2,0,1,7,255,1440,250,0,0,-89.307,0.901,-31.577
EX0521-092111,29,C14,prep,582,582,0,1375099.092,0.686,-0.675,0.197,0.188,0,0,0,0,0,0,0,0,0,0.000,0,0,0.049,0.002,0.020,-0.020,-0.040,0.014,0.994,0.011,-0.002,0.000,-0.006,0.000,0.000,0.000,0.000,0,2,0,1,7,255,1440,250,0,0,-89.307,0.901,-31.577
EX0521-092111,29,C14,prep,582,582,0,1375104.092,0.686,-0.675,0.197,0.188,0,0,0,0,0,0,0,0,0,0.000,0,0,0.092,0.002,0.080,-0.020,-0.040,0.013,0.993,0.012,-0.002,0.000,-0.010,0.000,0.000,0.000,0.000,0,2,0,1,7,255,1440,250,0,0,-89.307,0.901,-31.577
EX0521-092111,29,C14,prep,582,582,0,1375109.093,0.686,-0.675,0.197,0.188,0,0,0,0,0,0,0,0,0,0.000,0,0,0.049,0.002,0.020,-0.020,-0.040,0.014,0.995,0.012,-0.002,0.000,-0.006,0.000,0.000,0.000,0.000,0,2,0,1,7,255,1440,250,0,0,-89.307,0.901,-31.577
EX0521-092111,29,C14,prep,582,582,0,1375114.092,0.686,-0.675,0.197,0.188,0,0,0,0,0,0,0,0,0,0.000,0,0,0.049,0.002,0.020,-0.020,-0.040,0.014,0.995,0.011,-0.002,0.000,0.004,0.000,0.000,0.000,0.000,0,2,0,1,7,255,1440,250,0,0,-89.307,0.901,-31.577
EX0521-092111,29,C14,prep,582,582,0,1375119.092,0.686,-0.675,0.197,0.188,0,0,0,0,0,0,0,0,0,0.000,0,0,0.035,0.003,0.020,-0.020,0.020,0.014,0.994,0.012,-0.002,-0.002,0.004,0.000,0.000,0.000,0.000,0,2,0,1,7,255,1440,250,0,0,-89.307,0.901,-31.577
EX0521-092111,29,C14,prep,582,582,0,1375124.093,0.686,-0.675,0.197,0.188,0,0,0,0,0,0,0,0,0,0.000,0,0,0.098,0.007,-0.040,-0.080,-0.040,0.016,0.994,0.012,0.004,-0.006,0.000,0.000,0.000,0.000,0.000,0,2,0,1,7,255,1440,250,0,0,-89.307,0.901,-31.577
EX0521-092111,29,C14,prep,600,600,0,1375129.092,0.686,-0.675,0.197,0.188,0,0,0,0,0,0,0,0,0,0.000,0,0,0.049,0.006,-0.040,-0.020,0.020,0.014,0.995,0.012,-0.002,-0.006,0.000,0.000,0.000,0.000,0.000,0,2,0,1,7,255,1440,250,0,0,-89.307,0.901,-31.577
EX0521-092111,29,C14,prep,600,600,0,1375134.092,0.686,-0.675,0.197,0.188,0,0,0,0,0,0,0,0,0,0.000,0,0,0.069,0.004,-0.040,0.040,-0.040,0.015,0.994,0.012,0.002,-0.004,-0.006,0.000,0.000,0.000,0.000,0,2,0,1,7,255,1440,250,0,0,-89.307,0.901,-31.577
EX0521-092111,29,C14,prep,602,602,0,1375139.092,0.686,-0.675,0.197,0.188,0,0,0,0,0,0,0,0,0,0.000,0,0,0.060,0.003,-0.040,-0.020,-0.040,0.013,0.994,0.011,-0.002,-0.002,-0.006,0.000,0.000,0.000,0.000,0,2,0,1,7,255,1440,250,0,0,-89.307,0.901,-31.577
EX0521-092111,29,C14,prep,602,602,0,1375144.092,0.686,-0.675,0.197,0.188,0,0,0,0,0,0,0,0,0,0.000,0,0,0.060,0.006,-0.040,-0.020,-0.040,0.014,0.994,0.012,-0.004,-0.004,-0.006,0.000,0.000,0.000,0.000,0,2,0,1,7,255,1440,250,0,0,-89.307,0.901,-31.577
EX0521-092111,29,C14,prep,603,603,0,1375149.092,0.686,-0.675,0.197,0.188,0,0,0,0,0,0,0,0,0,0.000,0,0,0.035,0.006,0.020,-0.020,0.020,0.014,0.994,0.012,-0.006,-0.002,0.000,0.000,0.000,0.000,0.000,0,2,0,1,7,255,1440,250,0,0,-89.307,0.901,-31.577
EX0521-092111,29,C14,prep,603,603,0,1375154.092,0.686,-0.675,0.197,0.188,0,0,0,0,0,0,0,0,0,0.000,0,0,0.049,0.004,-0.040,-0.020,0.020,0.014,0.994,0.012,-0.004,-0.002,0.000,0.000,0.000,0.000,0.000,0,2,0,1,7,255,1440,250,0,0,-89.307,0.901,-31.577
EX0521-092111,29,C14,prep,614,614,0,1375159.092,0.686,-0.675,0.197,0.188,0,0,0,0,0,0,0,0,0,0.000,0,0,0.049,0.002,0.020,-0.020,-0.040,0.014,0.993,0.012,0.000,-0.002,0.000,0.000,0.000,0.000,0.000,0,2,0,1,7,255,1440,250,0,0,-89.307,0.901,-31.577
EX0521-092111,29,C14,prep,614,614,0,1375164.093,0.686,-0.675,0.197,0.188,0,0,0,0,0,0,0,0,0,0.000,0,0,0.035,0.002,0.020,-0.020,0.020,0.015,0.993,0.012,0.000,-0.002,-0.010,0.000,0.000,0.000,0.000,0,2,0,1,7,255,1440,250,0,0,-89.307,0.901,-31.577
EX0521-092111,29,C14,prep,634,634,0,1375169.092,0.686,-0.675,0.197,0.188,0,0,0,0,0,0,0,0,0,0.000,0,0,0.049,0.006,0.020,-0.020,-0.040,0.015,0.993,0.012,0.004,-0.004,-0.014,0.000,0.000,0.000,0.000,0,2,0,1,7,255,1440,250,0,0,-89.307,0.901,-31.577
EX0521-092111,29,C14,prep,634,634,0,1375174.092,0.686,-0.675,0.197,0.188,0,0,0,0,0,0,0,0,0,0.000,0,0,0.049,0.006,-0.040,-0.020,0.020,0.015,0.995,0.012,0.004,-0.004,-0.010,0.000,0.000,0.000,0.000,0,2,0,1,7,255,1440,250,0,0,-89.307,0.901,-31.577
EX0521-092111,29,C14,prep,646,646,0,1375179.092,0.686,-0.675,0.197,0.188,0,0,0,0,0,0,0,0,0,0.000,0,0,0.060,0.004,-0.040,-0.020,-0.040,0.014,0.994,0.012,0.002,-0.004,0.000,0.000,0.000,0.000,0.000,0,2,0,1,7,255,1440,250,0,0,-89.307,0.901,-31.577
EX0521-092111,29,C14,prep,646,646,0,1375184.092,0.686,-0.675,0.197,0.188,0,0,0,0,0,0,0,0,0,0.000,0,0,0.049,0.006,0.020,-0.020,-0.040,0.013,0.994,0.011,-0.006,0.002,0.000,0.000,0.000,0.000,0.000,0,2,0,1,7,255,1440,250,0,0,-89.307,0.901,-31.577
EX0521-092111,29,C14,prep,646,646,0,1375189.092,0.686,-0.675,0.197,0.188,0,0,0,0,0,0,0,0,0,0.000,0,0,0.060,0.006,-0.040,-0.020,-0.040,0.014,0.994,0.012,-0.006,0.002,0.000,0.000,0.000,0.000,0.000,0,2,0,1,7,255,1440,250,0,0,-89.307,0.901,-31.577
EX0521-092111,29,C14,prep,646,646,0,1375194.092,0.686,-0.675,0.197,0.188,0,0,0,0,0,0,0,0,0,0.000,0,0,0.060,0.010,-0.040,-0.020,-0.040,0.014,0.994,0.011,0.000,0.010,0.000,0.000,0.000,0.000,0.000,0,2,0,1,7,255,1440,250,0,0,-89.307,0.901,-31.577
EX0521-092111,29,C14,prep,662,662,0,1375199.092,0.686,-0.675,0.197,0.188,0,0,0,0,0,0,0,0,0,0.000,0,0,0.060,0.004,-0.040,0.040,0.020,0.014,0.993,0.011,0.000,0.004,0.000,0.000,0.000,0.000,0.000,0,2,0,1,7,255,1440,250,0,0,-89.307,0.901,-31.577
EX0521-092111,29,C14,prep,662,662,0,1375204.092,0.686,-0.675,0.197,0.188,0,0,0,0,0,0,0,0,0,0.000,0,0,0.092,0.004,0.020,-0.080,-0.040,0.015,0.994,0.012,0.000,0.004,0.000,0.000,0.000,0.000,0.000,0,2,0,1,7,255,1440,250,0,0,-89.307,0.901,-31.577
EX0521-092111,29,C14,prep,700,700,0,1375209.092,0.686,-0.675,0.197,0.188,0,0,0,0,0,0,0,0,0,0.000,0,0,0.035,0.006,0.020,-0.020,0.020,0.014,0.994,0.012,-0.002,-0.006,0.000,0.000,0.000,0.000,0.000,0,2,0,1,7,255,1440,250,0,0,-89.307,0.901,-31.577
EX0521-092111,29,C14,prep,700,700,0,1375214.092,0.686,-0.675,0.197,0.188,0,0,0,0,0,0,0,0,0,0.000,0,0,0.085,0.006,0.020,-0.020,0.080,0.014,0.994,0.011,0.000,-0.006,0.000,0.000,0.000,0.000,0.000,0,2,0,1,7,255,1440,250,0,0,-89.307,0.901,-31.577
EX0521-092111,29,C14,prep,700,700,0,1375219.092,0.686,-0.675,0.197,0.188,0,0,0,0,0,0,0,0,0,0.000,0,0,0.060,0.002,0.020,0.040,-0.040,0.014,0.995,0.011,0.000,0.002,0.000,0.000,0.000,0.000,0.000,0,2,0,1,7,255,1440,250,0,0,-89.307,0.901,-31.577
EX0521-092111,29,C14,prep,700,700,0,1375224.093,0.686,-0.675,0.197,0.188,0,0,0,0,0,0,0,0,0,0.000,0,0,0.060,0.003,-0.040,-0.020,-0.040,0.015,0.994,0.012,0.002,0.002,0.000,0.000,0.000,0.000,0.000,0,2,0,1,7,255,1440,250,0,0,-89.307,0.901,-31.577
EX0521-092111,29,C14,prep,700,700,0,1375229.092,0.686,-0.675,0.197,0.188,0,0,0,0,0,0,0,0,0,0.000,0,0,0.060,0.002,0.020,0.040,-0.040,0.013,0.994,0.012,0.002,0.000,0.000,0.000,0.000,0.000,0.000,0,2,0,1,7,255,1440,250,0,0,-89.307,0.901,-31.577
EX0521-092111,29,C14,prep,700,700,0,1375234.092,0.686,-0.675,0.197,0.188,0,0,0,0,0,0,0,0,0,0.000,0,0,0.049,0.006,0.020,-0.020,-0.040,0.015,0.995,0.012,0.004,-0.004,0.000,0.000,0.000,0.000,0.000,0,2,0,1,7,255,1440,250,0,0,-89.307,0.901,-31.577
EX0521-092111,29,C14,prep,700,700,0,1375239.092,0.686,-0.675,0.197,0.188,0,0,0,0,0,0,0,0,0,0.000,0,0,0.049,0.004,-0.040,-0.020,0.020,0.015,0.994,0.011,0.004,0.000,0.000,0.000,0.000,0.000,0.000,0,2,0,1,7,255,1440,250,0,0,-89.307,0.901,-31.577
EX0521-092111,29,C14,prep,700,700,0,1375244.092,0.686,-0.675,0.197,0.188,0,0,0,0,0,0,0,0,0,0.000,0,0,0.060,0.006,0.020,0.040,-0.040,0.015,0.993,0.012,0.004,-0.004,0.000,0.000,0.000,0.000,0.000,0,2,0,1,7,255,1440,250,0,0,-89.307,0.901,-31.577
EX0521-092111,29,C14,prep,710,710,0,1375249.092,0.686,-0.675,0.197,0.188,0,0,0,0,0,0,0,0,0,0.000,0,0,0.049,0.006,0.020,-0.020,-0.040,0.015,0.994,0.012,0.004,-0.004,0.000,0.000,0.000,0.000,0.000,0,2,0,1,7,255,1440,250,0,0,-89.307,0.901,-31.577
EX0521-092111,29,C14,prep,710,710,0,1375254.092,0.686,-0.675,0.197,0.188,0,0,0,0,0,0,0,0,0,0.000,0,0,0.060,0.006,-0.040,-0.020,-0.040,0.015,0.994,0.012,0.004,-0.004,-0.004,0.000,0.000,0.000,0.000,0,2,0,1,7,255,1440,250,0,0,-89.307,0.901,-31.577
EX0521-092111,29,C14,prep,710,710,0,1375259.092,0.686,-0.675,0.197,0.188,0,0,0,0,0,0,0,0,0,0.000,0,0,0.049,0.006,-0.040,-0.020,0.020,0.015,0.995,0.011,0.004,-0.004,0.000,0.000,0.000,0.000,0.000,0,2,0,1,7,255,1440,250,0,0,-89.307,0.901,-31.577
EX0521-092111,29,C14,prep,710,710,0,1375264.092,0.686,-0.675,0.197,0.188,0,0,0,0,0,0,0,0,0,0.000,0,0,0.085,0.006,0.020,-0.080,0.020,0.015,0.994,0.012,0.004,-0.004,0.000,0.000,0.000,0.000,0.000,0,2,0,1,7,255,1440,250,0,0,-89.307,0.901,-31.577
EX0521-092111,29,C14,prep,742,742,0,1375269.092,0.686,-0.675,0.197,0.188,0,0,0,0,0,0,0,0,0,0.000,0,0,0.049,0.009,0.020,-0.020,-0.040,0.016,0.994,0.011,0.008,-0.004,0.000,0.000,0.000,0.000,0.000,0,2,0,1,7,255,1440,250,0,0,-89.307,0.901,-31.577
EX0521-092111,29,C14,prep,742,742,0,1375274.091,0.686,-0.675,0.197,0.188,0,0,0,0,0,0,0,0,0,0.000,0,0,0.060,0.004,-0.040,-0.020,-0.040,0.014,0.994,0.011,0.002,-0.004,0.000,0.000,0.000,0.000,0.000,0,2,0,1,7,255,1440,250,0,0,-89.307,0.901,-31.577
EX0521-092111,29,C14,prep,742,742,0,1375279.091,0.686,-0.675,0.197,0.188,0,0,0,0,0,0,0,0,0,0.000,0,0,0.049,0.002,-0.040,-0.020,0.020,0.014,0.994,0.012,0.000,-0.002,0.000,0.000,0.000,0.000,0.000,0,2,0,1,7,255,1440,250,0,0,-89.307,0.901,-31.577
EX0521-092111,29,C14,prep,742,742,0,1375284.091,0.686,-0.675,0.197,0.188,0,0,0,0,0,0,0,0,0,0.000,0,0,0.085,0.006,0.080,-0.020,0.020,0.014,0.993,0.011,-0.002,0.006,0.000,0.000,0.000,0.000,0.000,0,2,0,1,7,255,1440,250,0,0,-89.307,0.901,-31.577
EX0521-092111,29,C14,prep,742,742,0,1375289.091,0.686,-0.675,0.197,0.188,0,0,0,0,0,0,0,0,0,0.000,0,0,0.060,0.006,-0.040,-0.020,-0.040,0.014,0.993,0.011,-0.002,0.006,-0.014,0.000,0.000,0.000,0.000,0,2,0,1,7,255,1440,250,0,0,-89.307,0.901,-31.577
EX0521-092111,29,C14,prep,742,742,0,1375294.091,0.686,-0.675,0.197,0.188,0,0,0,0,0,0,0,0,0,0.000,0,0,0.130,0.006,-0.100,-0.080,0.020,0.013,0.993,0.012,-0.002,0.006,-0.014,0.000,0.000,0.000,0.000,0,2,0,1,7,255,1440,250,0,0,-89.307,0.901,-31.577
EX0521-092111,29,C14,prep,795,795,0,1375299.091,0.686,-0.675,0.197,0.188,0,0,0,0,0,0,0,0,0,0.000,0,0,0.049,0.009,-0.040,-0.020,0.020,0.014,0.993,0.012,-0.008,0.004,-0.010,0.000,0.000,0.000,0.000,0,2,0,1,7,255,1440,250,0,0,-89.307,0.901,-31.577
EX0521-092111,29,C14,prep,795,795,0,1375304.091,0.686,-0.675,0.197,0.188,0,0,0,0,0,0,0,0,0,0.000,0,0,0.049,0.009,-0.040,-0.020,0.020,0.014,0.993,0.011,-0.008,0.004,-0.010,0.000,0.000,0.000,0.000,0,2,0,1,7,255,1440,250,0,0,-89.307,0.901,-31.577
EX0521-092111,29,C14,prep,795,795,0,1375309.091,0.686,-0.675,0.197,0.188,0,0,0,0,0,0,0,0,0,0.000,0,0,0.060,0.003,0.020,0.040,-0.040,0.014,0.994,0.011,0.002,0.002,-0.010,0.000,0.000,0.000,0.000,0,2,0,1,7,255,1440,250,0,0,-89.307,0.901,-31.577
EX0521-092111,29,C14,prep,795,795,0,1375314.092,0.686,-0.675,0.197,0.188,0,0,0,0,0,0,0,0,0,0.000,0,0,0.049,0.004,0.020,-0.020,-0.040,0.016,0.994,0.011,0.004,0.002,-0.004,0.000,0.000,0.000,0.000,0,2,0,1,7,255,1440,250,0,0,-89.307,0.901,-31.577
EX0521-092111,29,C14,prep,795,795,0,1375319.091,0.686,-0.675,0.197,0.188,0,0,0,0,0,0,0,0,0,0.000,0,0,0.049,0.003,-0.040,-0.020,0.020,0.014,0.994,0.011,0.002,0.002,-0.004,0.000,0.000,0.000,0.000,0,2,0,1,7,255,1440,250,0,0,-89.307,0.901,-31.577
EX0521-092111,29,C14,prep,795,795,0,1375324.093,0.686,-0.675,0.197,0.188,0,0,0,0,0,0,0,0,0,0.000,0,0,0.060,0.003,-0.040,-0.020,-0.040,0.014,0.995,0.012,-0.002,0.002,0.000,0.000,0.000,0.000,0.000,0,2,0,1,7,255,1440,250,0,0,-89.307,0.901,-31.577
EX0521-092111,29,C14,prep,795,795,0,1375329.091,0.686,-0.675,0.197,0.188,0,0,0,0,0,0,0,0,0,0.000,0,0,0.049,0.006,-0.040,-0.020,0.020,0.014,0.994,0.012,-0.006,0.002,0.000,0.000,0.000,0.000,0.000,0,2,0,1,7,255,1440,250,0,0,-89.307,0.901,-31.577
EX0521-092111,29,C14,prep,795,795,0,1375334.091,0.686,-0.675,0.197,0.188,0,0,0,0,0,0,0,0,0,0.000,0,0,0.035,0.006,0.020,-0.020,0.020,0.014,0.995,0.011,-0.006,0.002,0.010,0.000,0.000,0.000,0.000,0,2,0,1,7,255,1440,250,0,0,-89.307,0.901,-31.577
EX0521-092111,29,C14,prep,797,797,0,1375339.091,0.686,-0.675,0.197,0.188,0,0,0,0,0,0,0,0,0,0.000,0,0,0.035,0.002,0.020,-0.020,0.020,0.015,0.994,0.012,0.002,0.000,-0.004,0.000,0.000,0.000,0.000,0,2,0,1,7,255,1440,250,0,0,-89.307,0.901,-31.577
EX0521-092111,29,C14,prep,797,797,0,1375344.091,0.686,-0.675,0.197,0.188,0,0,0,0,0,0,0,0,0,0.000,0,0,0.049,0.003,-0.040,-0.020,0.020,0.014,0.994,0.012,0.002,-0.002,0.000,0.000,0.000,0.000,0.000,0,2,0,1,7,255,1440,250,0,0,-89.307,0.901,-31.577
EX0521-092111,29,C14,prep,806,806,0,1375349.091,0.686,-0.675,0.197,0.188,0,0,0,0,0,0,0,0,0,0.000,0,0,0.035,0.002,0.020,-0.020,0.020,0.014,0.994,0.011,0.000,-0.002,0.000,0.000,0.000,0.000,0.000,0,2,0,1,7,255,1440,250,0,0,-89.307,0.901,-31.577
EX0521-092111,29,C14,prep,806,806,0,1375354.092,0.686,-0.675,0.197,0.188,0,0,0,0,0,0,0,0,0,0.000,0,0,0.060,0.002,-0.040,-0.020,-0.040,0.014,0.993,0.012,-0.002,0.000,0.000,0.000,0.000,0.000,0.000,0,2,0,1,7,255,1440,250,0,0,-89.307,0.901,-31.577
EX0521-092111,29,C14,prep,829,829,0,1375359.092,0.686,-0.675,0.197,0.188,0,0,0,0,0,0,0,0,0,0.000,0,0,0.049,0.006,-0.040,-0.020,0.020,0.014,0.994,0.012,-0.006,0.000,0.000,0.000,0.000,0.000,0.000,0,2,0,1,7,255,1440,250,0,0,-89.307,0.901,-31.577
EX0521-092111,29,C14,prep,829,829,0,1375364.093,0.686,-0.675,0.197,0.188,0,0,0,0,0,0,0,0,0,0.000,0,0,0.098,0.006,-0.040,-0.080,-0.040,0.014,0.994,0.011,-0.006,0.000,-0.004,0.000,0.000,0.000,0.000,0,2,0,1,7,255,1440,250,0,0,-89.307,0.901,-31.577
EX0521-092111,29,C14,prep,829,829,0,1375369.091,0.686,-0.675,0.197,0.188,0,0,0,0,0,0,0,0,0,0.000,0,0,0.098,0.003,-0.040,-0.080,-0.040,0.014,0.994,0.011,0.002,0.002,-0.004,0.000,0.000,0.000,0.000,0,2,0,1,7,255,1440,250,0,0,-89.307,0.901,-31.577
EX0521-092111,29,C14,prep,829,829,0,1375374.091,0.686,-0.675,0.197,0.188,0,0,0,0,0,0,0,0,0,0.000,0,0,0.049,0.006,0.020,-0.020,-0.040,0.015,0.993,0.011,0.004,0.004,-0.004,0.000,0.000,0.000,0.000,0,2,0,1,7,255,1440,250,0,0,-89.307,0.901,-31.577
EX0521-092111,29,C14,prep,830,830,0,1375379.091,0.686,-0.675,0.197,0.188,0,0,0,0,0,0,0,0,0,0.000,0,0,0.049,0.007,-0.040,-0.020,0.020,0.015,0.993,0.011,0.006,0.004,-0.008,0.000,0.000,0.000,0.000,0,2,0,1,7,255,1440,250,0,0,-89.307,0.901,-31.577
EX0521-092111,29,C14,prep,830,830,0,1375384.091,0.686,-0.675,0.197,0.188,0,0,0,0,0,0,0,0,0,0.000,0,0,0.049,0.007,0.020,0.040,0.020,0.014,0.992,0.011,0.006,0.004,-0.014,0.000,0.000,0.000,0.000,0,2,0,1,7,255,1440,250,0,0,-89.307,0.901,-31.577
EX0521-092111,29,C14,prep,865,865,0,1375389.091,0.686,-0.675,0.197,0.188,0,0,0,0,0,0,0,0,0,0.000,0,0,0.049,0.004,-0.040,-0.020,0.020,0.013,0.994,0.012,0.004,0.000,-0.014,0.000,0.000,0.000,0.000,0,2,0,1,7,255,1440,250,0,0,-89.307,0.901,-31.577
EX0521-092111,29,C14,prep,865,865,0,1375394.091,0.686,-0.675,0.197,0.188,0,0,0,0,0,0,0,0,0,0.000,0,0,0.060,0.004,0.020,0.040,-0.040,0.015,0.994,0.011,0.004,0.000,-0.004,0.000,0.000,0.000,0.000,0,2,0,1,7,255,1440,250,0,0,-89.307,0.901,-31.577
EX0521-092111,29,C14,prep,898,898,0,1375399.091,0.686,-0.675,0.197,0.188,0,0,0,0,0,0,0,0,0,0.000,0,0,0.049,0.008,0.020,-0.020,-0.040,0.014,0.993,0.012,-0.008,0.000,-0.004,0.000,0.000,0.000,0.000,0,2,0,1,7,255,1440,250,0,0,-89.307,0.901,-31.577
EX0521-092111,29,C14,prep,898,898,0,1375404.091,0.686,-0.675,0.197,0.188,0,0,0,0,0,0,0,0,0,0.000,0,0,0.049,0.006,0.020,-0.020,-0.040,0.014,0.994,0.012,-0.004,-0.004,-0.004,0.000,0.000,0.000,0.000,0,2,0,1,7,255,1440,250,0,0,-89.307,0.901,-31.577
EX0521-092111,29,C14,prep,898,898,0,1375409.092,0.686,-0.675,0.197,0.188,0,0,0,0,0,0,0,0,0,0.000,0,0,0.060,0.007,-0.040,-0.020,-0.040,0.015,0.995,0.012,-0.004,-0.006,-0.004,0.000,0.000,0.000,0.000,0,2,0,1,7,255,1440,250,0,0,-89.307,0.901,-31.577
EX0521-092111,29,C14,prep,898,898,0,1375414.092,0.686,-0.675,0.197,0.188,0,0,0,0,0,0,0,0,0,0.000,0,0,0.049,0.006,0.020,-0.020,-0.040,0.014,0.994,0.011,0.002,-0.006,0.002,0.000,0.000,0.000,0.000,0,2,0,1,7,255,1440,250,0,0,-89.307,0.901,-31.577
EX0521-092111,29,C14,prep,898,898,0,1375419.091,0.686,-0.675,0.197,0.188,0,0,0,0,0,0,0,0,0,0.000,0,0,0.049,0.007,-0.040,-0.020,0.020,0.015,0.995,0.012,0.004,-0.006,0.006,0.000,0.000,0.000,0.000,0,2,0,1,7,255,1440,250,0,0,-89.307,0.901,-31.577
EX0521-092111,29,C14,prep,898,898,0,1375424.093,0.686,-0.675,0.197,0.188,0,0,0,0,0,0,0,0,0,0.000,0,0,0.035,0.003,0.020,-0.020,0.020,0.014,0.994,0.011,0.002,0.002,0.002,0.000,0.000,0.000,0.000,0,2,0,1,7,255,1440,250,0,0,-89.307,0.901,-31.577
EX0521-092111,29,C14,prep,898,898,0,1375429.092,0.686,-0.675,0.197,0.188,0,0,0,0,0,0,0,0,0,0.000,0,0,0.035,0.002,0.020,-0.020,0.020,0.014,0.992,0.012,-0.002,0.000,-0.004,0.000,0.000,0.000,0.000,0,2,0,1,7,255,1440,250,0,0,-89.307,0.901,-31.577
EX0521-092111,29,C14,prep,898,898,0,1375434.092,0.686,-0.675,0.197,0.188,0,0,0,0,0,0,0,0,0,0.000,0,0,0.049,0.002,0.020,-0.020,-0.040,0.014,0.993,0.012,-0.002,0.000,-0.008,0.000,0.000,0.000,0.000,0,2,0,1,7,255,1440,250,0,0,-89.307,0.901,-31.577
EX0521-092111,29,C14,prep,899,899,0,1375439.092,0.686,-0.675,0.197,0.188,0,0,0,0,0,0,0,0,0,0.000,0,0,0.049,0.002,0.020,-0.020,-0.040,0.014,0.993,0.011,-0.002,0.000,-0.008,0.000,0.000,0.000,0.000,0,2,0,1,7,255,1440,250,0,0,-89.307,0.901,-31.577
EX0521-092111,29,C14,prep,899,899,0,1375444.092,0.686,-0.675,0.197,0.188,0,0,0,0,0,0,0,0,0,0.000,0,0,0.069,0.002,-0.040,0.040,-0.040,0.016,0.993,0.011,0.000,-0.002,-0.008,0.000,0.000,0.000,0.000,0,2,0,1,7,255,1440,250,0,0,-89.307,0.901,-31.577
EX0521-092111,29,C14,prep,900,900,0,1375449.092,0.686,-0.675,0.197,0.188,0,0,0,0,0,0,0,0,0,0.000,0,0,0.069,0.008,-0.040,0.040,-0.040,0.014,0.993,0.011,0.000,0.008,-0.008,0.000,0.000,0.000,0.000,0,2,0,1,7,255,1440,250,0,0,-89.307,0.901,-31.577
EX0521-092111,29,C14,prep,900,900,0,1375454.092,0.686,-0.675,0.197,0.188,0,0,0,0,0,0,0,0,0,0.000,0,0,0.060,0.004,-0.040,-0.020,-0.040,0.014,0.994,0.011,0.000,0.004,-0.008,0.000,0.000,0.000,0.000,0,2,0,1,7,255,1440,250,0,0,-89.307,0.901,-31.577
EX0521-092111,29,C14,prep,932,932,0,1375459.092,0.686,-0.675,0.197,0.188,0,0,0,0,0,0,0,0,0,0.000,0,0,0.085,0.004,0.020,-0.080,0.020,0.015,0.993,0.012,0.000,0.004,-0.008,0.000,0.000,0.000,0.000,0,2,0,1,7,255,1440,250,0,0,-89.307,0.901,-31.577
EX0521-092111,29,C14,prep,932,932,0,1375464.092,0.686,-0.675,0.197,0.188,0,0,0,0,0,0,0,0,0,0.000,0,0,0.049,0.004,0.020,-0.020,-0.040,0.015,0.994,0.011,0.004,-0.002,0.002,0.000,0.000,0.000,0.000,0,2,0,1,7,255,1440,250,0,0,-89.307,0.901,-31.577
EX0521-092111,29,C14,prep,934,934,0,1375469.092,0.686,-0.675,0.197,0.188,0,0,0,0,0,0,0,0,0,0.000,0,0,0.049,0.006,-0.040,-0.020,0.020,0.015,0.994,0.011,0.006,-0.002,0.002,0.000,0.000,0.000,0.000,0,2,0,1,7,255,1440,250,0,0,-89.307,0.901,-31.577
EX0521-092111,29,C14,prep,934,934,0,1375474.092,0.686,-0.675,0.197,0.188,0,0,0,0,0,0,0,0,0,0.000,0,0,0.035,0.006,0.020,-0.020,0.020,0.013,0.994,0.012,0.006,0.000,0.002,0.000,0.000,0.000,0.000,0,2,0,1,7,255,1440,250,0,0,-89.307,0.901,-31.577
EX0521-092111,29,C14,prep,964,964,0,1375479.092,0.686,-0.675,0.197,0.188,0,0,0,1,0,0,0,0,0,0.000,0,0,0.060,0.003,-0.040,-0.020,-0.040,0.014,0.994,0.011,0.002,0.002,-0.004,0.000,0.000,0.000,0.000,0,2,0,1,7,255,1440,250,0,0,-89.307,0.901,-31.577
EX0521-092111,29,C14,prep,964,964,0,1375484.092,0.686,-0.675,0.197,0.188,0,0,0,0,0,0,0,0,0,0.000,0,0,0.060,0.003,-0.040,-0.020,-0.040,0.015,0.994,0.012,0.002,0.002,-0.004,0.000,0.000,0.000,0.000,0,2,0,1,7,255,1440,250,0,0,-89.307,0.901,-31.577
EX0521-092111,29,C14,prep,964,964,0,1375489.092,0.686,-0.675,0.197,0.188,0,0,0,0,0,0,0,0,0,0.000,0,0,0.035,0.003,0.020,-0.020,0.020,0.013,0.993,0.011,0.002,0.002,-0.004,0.000,0.000,0.000,0.000,0,2,0,1,7,255,1440,250,0,0,-89.307,0.901,-31.577
EX0521-092111,29,C14,prep,964,964,0,1375494.092,0.686,-0.675,0.197,0.188,0,0,0,0,0,0,0,0,0,0.000,0,0,0.035,0.004,0.020,-0.020,0.020,0.015,0.994,0.012,0.002,-0.004,-0.002,0.000,0.000,0.000,0.000,0,2,0,1,7,255,1440,250,0,0,-89.307,0.901,-31.577
EX0521-092111,29,C14,prep,965,965,0,1375499.092,0.686,-0.675,0.197,0.188,0,0,0,0,0,0,0,0,0,0.000,0,0,0.060,0.004,-0.040,-0.020,-0.040,0.014,0.993,0.011,-0.002,0.004,-0.008,0.000,0.000,0.000,0.000,0,2,0,1,7,255,1440,250,0,0,-89.307,0.901,-31.577
EX0521-092111,29,C14,prep,965,965,0,1375504.092,0.686,-0.675,0.197,0.188,0,0,0,0,0,0,0,0,0,0.000,0,0,0.049,0.004,0.020,-0.020,-0.040,0.015,0.994,0.012,0.000,-0.004,-0.002,0.000,0.000,0.000,0.000,0,2,0,1,7,255,1440,250,0,0,-89.307,0.901,-31.577
EX0521-092111,29,C14,prep,983,983,0,1375509.092,0.686,-0.675,0.197,0.188,0,0,0,0,0,0,0,0,0,0.000,0,0,0.049,0.004,0.020,-0.020,-0.040,0.014,0.994,0.011,0.000,0.004,-0.002,0.000,0.000,0.000,0.000,0,2,0,1,7,255,1440,250,0,0,-89.307,0.901,-31.577
EX0521-092111,29,C14,prep,983,983,0,1375514.092,0.686,-0.675,0.197,0.188,0,0,0,0,0,0,0,0,0,0.000,0,0,0.035,0.008,0.020,-0.020,0.020,0.016,0.994,0.012,0.000,-0.008,-0.002,0.000,0.000,0.000,0.000,0,2,0,1,7,255,1440,250,0,0,-89.307,0.901,-31.577
EX0521-092111,29,C14,prep,983,983,0,1375519.092,0.686,-0.675,0.197,0.188,0,0,0,0,0,0,0,0,0,0.000,0,0,0.049,0.004,0.020,-0.020,-0.040,0.015,0.995,0.012,0.002,-0.004,0.002,0.000,0.000,0.000,0.000,0,2,0,1,7,255,1440,250,0,0,-89.307,0.901,-31.577
EX0521-092111,29,C14,prep,983,983,0,1375524.093,0.686,-0.675,0.197,0.188,0,0,0,0,0,0,0,0,0,0.000,0,0,0.049,0.009,0.020,-0.020,-0.040,0.015,0.993,0.011,0.008,-0.004,-0.002,0.000,0.000,0.000,0.000,0,2,0,1,7,255,1440,250,0,0,-89.307,0.901,-31.577
EX0521-092111,29,C14,prep,983,983,0,1375529.092,0.686,-0.675,0.197,0.188,0,0,0,0,0,0,0,0,0,0.000,0,0,0.035,0.004,0.020,-0.020,0.020,0.015,0.994,0.012,0.002,-0.004,0.002,0.000,0.000,0.000,0.000,0,2,0,1,7,255,1440,250,0,0,-89.307,0.901,-31.577
EX0521-092111,29,C14,prep,983,983,0,1375534.092,0.686,-0.675,0.197,0.188,0,0,0,0,0,0,0,0,0,0.000,0,0,0.049,0.008,0.020,-0.020,-0.040,0.015,0.993,0.011,0.008,0.002,-0.008,0.000,0.000,0.000,0.000,0,2,0,1,7,255,1440,250,0,0,-89.307,0.901,-31.577
EX0521-092111,29,C14,prep,999,999,0,1375539.092,0.686,-0.675,0.197,0.188,0,0,0,0,0,0,0,0,0,0.000,0,0,0.060,0.004,-0.040,-0.020,-0.040,0.014,0.994,0.013,0.002,-0.004,-0.002,0.000,0.000,0.000,0.000,0,2,0,1,7,255,1440,250,0,0,-89.307,0.901,-31.577
EX0521-092111,29,C14,prep,999,999,0,1375544.092,0.686,-0.675,0.197,0.188,0,0,0,0,0,0,0,0,0,0.000,0,0,0.035,0.006,0.020,-0.020,0.020,0.014,0.993,0.010,0.006,0.002,-0.008,0.000,0.000,0.000,0.000,0,2,0,1,7,255,1440,250,0,0,-89.307,0.901,-31.577
EX0521-092111,29,C14,prep,1014,1014,0,1375549.092,0.686,-0.675,0.197,0.188,0,0,0,0,0,0,0,0,0,0.000,0,0,0.060,0.009,-0.040,-0.020,-0.040,0.015,0.995,0.013,-0.004,-0.008,-0.002,0.000,0.000,0.000,0.000,0,2,0,1,7,255,1440,250,0,0,-89.307,0.901,-31.577
EX0521-092111,29,C14,prep,1014,1014,0,1375554.092,0.686,-0.675,0.197,0.188,0,0,0,0,0,0,0,0,0,0.000,0,0,0.049,0.004,0.020,-0.020,-0.040,0.014,0.994,0.012,-0.004,0.002,0.002,0.000,0.000,0.000,0.000,0,2,0,1,7,255,1440,250,0,0,-89.307,0.901,-31.577
EX0521-092111,29,C14,prep,1014,1014,0,1375559.093,0.686,-0.675,0.197,0.188,0,0,0,0,0,0,0,0,0,0.000,0,0,0.035,0.007,0.020,-0.020,0.020,0.015,0.992,0.012,-0.004,-0.006,0.002,0.000,0.000,0.000,0.000,0,2,0,1,7,255,1440,250,0,0,-89.307,0.901,-31.577
EX0521-092111,29,C14,prep,1014,1014,0,1375564.093,0.686,-0.675,0.197,0.188,0,0,0,0,0,0,0,0,0,0.000,0,0,0.049,0.008,-0.040,-0.020,0.020,0.016,0.992,0.011,0.006,-0.006,-0.016,0.000,0.000,0.000,0.000,0,2,0,1,7,255,1440,250,0,0,-89.307,0.901,-31.577
EX0521-092111,29,C14,prep,1033,1033,0,1375569.092,0.686,-0.675,0.197,0.188,0,0,0,0,0,0,0,0,0,0.000,0,0,0.049,0.008,0.020,-0.020,-0.040,0.015,0.994,0.012,0.006,-0.006,-0.016,0.000,0.000,0.000,0.000,0,2,0,1,7,255,1440,250,0,0,-89.307,0.901,-31.577
EX0521-092111,29,C14,prep,1033,1033,0,1375574.092,0.686,-0.675,0.197,0.188,0,0,0,0,0,0,0,0,0,0.000,0,0,0.035,0.004,0.020,-0.020,0.020,0.014,0.993,0.012,0.002,-0.004,-0.012,0.000,0.000,0.000,0.000,0,2,0,1,7,255,1440,250,0,0,-89.307,0.901,-31.577
EX0521-092111,29,C14,prep,1034,1034,0,1375579.092,0.686,-0.675,0.197,0.188,0,0,0,0,0,0,0,0,0,0.000,0,0,0.049,0.003,-0.040,-0.020,0.020,0.015,0.993,0.011,0.002,-0.002,-0.006,0.000,0.000,0.000,0.000,0,2,0,1,7,255,1440,250,0,0,-89.307,0.901,-31.577
EX0521-092111,29,C14,prep,1034,1034,0,1375584.092,0.686,-0.675,0.197,0.188,0,0,0,0,0,0,0,0,0,0.000,0,0,0.060,0.003,0.020,0.040,-0.040,0.014,0.993,0.012,-0.002,-0.002,-0.006,0.000,0.000,0.000,0.000,0,2,0,1,7,255,1440,250,0,0,-89.307,0.901,-31.577
EX0521-092111,29,C14,prep,1046,1046,0,1375589.092,0.686,-0.675,0.197,0.188,0,0,0,0,0,0,0,0,0,0.000,0,0,0.035,0.003,0.020,-0.020,0.020,0.014,0.992,0.012,-0.002,-0.002,-0.006,0.000,0.000,0.000,0.000,0,2,0,1,7,255,1440,250,0,0,-89.307,0.901,-31.577
EX0521-092111,29,C14,prep,1046,1046,0,1375594.092,0.686,-0.675,0.197,0.188,0,0,0,0,0,0,0,0,0,0.000,0,0,0.049,0.004,0.020,-0.020,-0.040,0.015,0.993,0.012,-0.002,-0.004,-0.012,0.000,0.000,0.000,0.000,0,2,0,1,7,255,1440,250,0,0,-89.307,0.901,-31.577
EX0521-092111,29,C14,prep,1078,1078,0,1375599.091,0.686,-0.675,0.197,0.188,0,0,0,0,0,0,0,0,0,0.000,0,0,0.060,0.004,-0.040,-0.020,-0.040,0.014,0.994,0.011,0.004,-0.002,-0.012,0.000,0.000,0.000,0.000,0,2,0,1,7,255,1440,250,0,0,-89.307,0.901,-31.577
EX0521-092111,29,C14,prep,1078,1078,0,1375604.092,0.686,-0.675,0.197,0.188,0,0,0,0,0,0,0,0,0,0.000,0,0,0.049,0.007,-0.040,-0.020,0.020,0.014,0.995,0.011,0.004,0.006,-0.002,0.000,0.000,0.000,0.000,0,2,0,1,7,255,1440,250,0,0,-89.307,0.901,-31.577
EX0521-092111,29,C14,prep,1099,1099,0,1375609.091,0.686,-0.675,0.197,0.188,0,0,0,0,0,0,0,0,0,0.000,0,0,0.060,0.007,-0.040,-0.020,-0.040,0.013,0.994,0.011,-0.004,0.006,-0.002,0.000,0.000,0.000,0.000,0,2,0,1,7,255,1440,250,0,0,-89.307,0.901,-31.577
EX0521-092111,29,C14,prep,1099,1099,0,1375614.092,0.686,-0.675,0.197,0.188,0,0,0,0,0,0,0,0,0,0.000,0,0,0.049,0.007,0.020,-0.020,-0.040,0.015,0.993,0.012,-0.004,0.006,-0.002,0.000,0.000,0.000,0.000,0,2,0,1,7,255,1440,250,0,0,-89.307,0.901,-31.577
EX0521-092111,29,C14,prep,1099,1099,0,1375619.091,0.686,-0.675,0.197,0.188,0,0,0,0,0,0,0,0,0,0.000,0,0,0.049,0.006,-0.040,-0.020,0.020,0.014,0.994,0.012,-0.006,0.002,-0.002,0.000,0.000,0.000,0.000,0,2,0,1,7,255,1440,250,0,0,-89.307,0.901,-31.577
EX0521-092111,29,C14,prep,1099,1099,0,1375624.093,0.686,-0.675,0.197,0.188,0,0,0,0,0,0,0,0,0,0.000,0,0,0.049,0.004,0.020,-0.020,-0.040,0.016,0.994,0.011,0.002,-0.004,-0.002,0.000,0.000,0.000,0.000,0,2,0,1,7,255,1440,250,0,0,-89.307,0.901,-31.577
EX0521-092111,29,C14,prep,1099,1099,0,1375629.091,0.686,-0.675,0.197,0.188,0,0,0,0,0,0,0,0,0,0.000,0,0,0.069,0.007,-0.040,0.040,-0.040,0.015,0.993,0.012,0.006,-0.004,-0.002,0.000,0.000,0.000,0.000,0,2,0,1,7,255,1440,250,0,0,-89.307,0.901,-31.577
EX0521-092111,29,C14,prep,1099,1099,0,1375634.091,0.686,-0.675,0.197,0.188,0,0,0,0,0,0,0,0,0,0.000,0,0,0.049,0.011,-0.040,-0.020,0.020,0.015,0.993,0.010,0.010,-0.004,-0.006,0.000,0.000,0.000,0.000,0,2,0,1,7,255,1440,250,0,0,-89.307,0.901,-31.577
EX0521-092111,29,C14,prep,1100,1100,0,1375639.091,0.686,-0.675,0.197,0.188,0,0,0,0,0,0,0,0,0,0.000,0,0,0.035,0.009,0.020,-0.020,0.020,0.015,0.993,0.011,0.008,0.004,-0.006,0.000,0.000,0.000,0.000,0,2,0,1,7,255,1440,250,0,0,-89.307,0.901,-31.577
EX0521-092111,29,C14,prep,1100,1100,0,1375644.091,0.686,-0.675,0.197,0.188,0,0,0,0,0,0,0,0,0,0.000,0,0,0.085,0.009,0.020,-0.080,0.020,0.014,0.993,0.012,0.008,0.004,-0.006,0.000,0.000,0.000,0.000,0,2,0,1,7,255,1440,250,0,0,-89.307,0.901,-31.577
EX0521-092111,29,C14,prep,1101,1101,0,1375649.091,0.686,-0.675,0.197,0.188,0,0,0,0,0,0,0,0,0,0.000,0,0,0.049,0.006,-0.040,-0.020,0.020,0.014,0.993,0.011,0.004,0.004,-0.010,0.000,0.000,0.000,0.000,0,2,0,1,7,255,1440,250,0,0,-89.307,0.901,-31.577
EX0521-092111,29,C14,prep,1101,1101,0,1375654.092,0.686,-0.675,0.197,0.188,0,0,0,0,0,0,0,0,0,0.000,0,0,0.049,0.006,-0.040,-0.020,0.020,0.014,0.994,0.011,-0.002,0.006,-0.010,0.000,0.000,0.000,0.000,0,2,0,1,7,255,1440,250,0,0,-89.307,0.901,-31.577
EX0521-092111,29,C14,prep,1133,1133,0,1375659.091,0.686,-0.675,0.197,0.188,0,0,0,0,0,0,0,0,0,0.000,0,0,0.035,0.007,0.020,-0.020,0.020,0.013,0.994,0.012,-0.004,0.006,-0.002,0.000,0.000,0.000,0.000,0,2,0,1,7,255,1440,250,0,0,-89.307,0.901,-31.577
EX0521-092111,29,C14,prep,1133,1133,0,1375664.091,0.686,-0.675,0.197,0.188,0,0,0,0,0,0,0,0,0,0.000,0,0,0.060,0.007,-0.040,-0.020,-0.040,0.015,0.993,0.012,-0.004,0.006,-0.002,0.000,0.000,0.000,0.000,0,2,0,1,7,255,1440,250,0,0,-89.307,0.901,-31.577
EX0521-092111,29,C14,prep,1142,1142,0,1375669.091,0.686,-0.675,0.197,0.188,0,0,0,0,0,0,0,0,0,0.000,0,0,0.049,0.003,-0.040,-0.020,0.020,0.014,0.992,0.012,-0.002,-0.002,-0.006,0.000,0.000,0.000,0.000,0,2,0,1,7,255,1440,250,0,0,-89.307,0.901,-31.577
EX0521-092111,29,C14,prep,1142,1142,0,1375674.091,0.686,-0.675,0.197,0.188,0,0,0,0,0,0,0,0,0,0.000,0,0,0.049,0.003,0.020,-0.020,-0.040,0.014,0.993,0.012,-0.002,-0.002,-0.010,0.000,0.000,0.000,0.000,0,2,0,1,7,255,1440,250,0,0,-89.307,0.901,-31.577
EX0521-092111,29,C14,prep,1142,1142,0,1375679.091,0.686,-0.675,0.197,0.188,0,0,0,0,0,0,0,0,0,0.000,0,0,0.060,0.006,-0.040,-0.020,-0.040,0.014,0.993,0.012,-0.006,0.000,-0.010,0.000,0.000,0.000,0.000,0,2,0,1,7,255,1440,250,0,0,-89.307,0.901,-31.577
EX0521-092111,29,C14,prep,1142,1142,0,1375684.091,0.686,-0.675,0.197,0.188,0,0,0,0,0,0,0,0,0,0.000,0,0,0.049,0.006,-0.040,-0.020,0.020,0.014,0.994,0.012,-0.006,0.000,-0.010,0.000,0.000,0.000,0.000,0,2,0,1,7,255,1440,250,0,0,-89.307,0.901,-31.577
EX0521-092111,29,C14,prep,1163,1163,0,1375689.091,0.686,-0.675,0.197,0.188,0,0,0,0,0,0,0,0,0,0.000,0,0,0.060,0.002,-0.040,-0.020,-0.040,0.014,0.994,0.011,-0.002,0.000,0.000,0.000,0.000,0.000,0.000,0,2,0,1,7,255,1440,250,0,0,-89.307,0.901,-31.577
EX0521-092111,29,C14,prep,1163,1163,0,1375694.091,0.686,-0.675,0.197,0.188,0,0,0,0,0,0,0,0,0,0.000,0,0,0.049,0.003,0.020,-0.020,-0.040,0.014,0.993,0.012,-0.002,-0.002,0.000,0.000,0.000,0.000,0.000,0,2,0,1,7,255,1440,250,0,0,-89.307,0.901,-31.577
EX0521-092111,29,C14,prep,1194,1194,0,1375699.091,0.686,-0.675,0.197,0.188,0,0,0,0,0,0,0,0,0,0.000,0,0,0.092,0.002,0.020,-0.080,-0.040,0.015,0.993,0.011,0.000,-0.002,-0.006,0.000,0.000,0.000,0.000,0,2,0,1,7,255,1440,250,0,0,-89.307,0.901,-31.577
EX0521-092111,29,C14,prep,1194,1194,0,1375704.091,0.686,-0.675,0.197,0.188,0,0,0,0,0,0,0,0,0,0.000,0,0,0.098,0.008,-0.040,-0.080,-0.040,0.015,0.995,0.011,0.008,-0.002,-0.006,0.000,0.000,0.000,0.000,0,2,0,1,7,255,1440,250,0,0,-89.307,0.901,-31.577
EX0521-092111,29,C14,prep,1194,1194,0,1375709.091,0.686,-0.675,0.197,0.188,0,0,0,0,0,0,0,0,0,0.000,0,0,0.060,0.008,-0.040,-0.020,-0.040,0.014,0.994,0.012,0.008,-0.002,0.000,0.000,0.000,0.000,0.000,0,2,0,1,7,255,1440,250,0,0,-89.307,0.901,-31.577
EX0521-092111,29,C14,prep,1194,1194,0,1375714.092,0.686,-0.675,0.197,0.188,0,0,0,0,0,0,0,0,0,0.000,0,0,0.060,0.002,-0.040,-0.020,-0.040,0.014,0.994,0.012,-0.002,0.000,0.000,0.000,0.000,0.000,0.000,0,2,0,1,7,255,1440,250,0,0,-89.307,0.901,-31.577
EX0521-092111,29,C14,prep,1194,1194,0,1375719.092,0.686,-0.675,0.197,0.188,0,0,0,0,0,0,0,0,0,0.000,0,0,0.049,0.002,-0.040,-0.020,0.020,0.014,0.993,0.011,-0.002,0.000,0.000,0.000,0.000,0.000,0.000,0,2,0,1,7,255,1440,250,0,0,-89.307,0.901,-31.577
EX0521-092111,29,C14,prep,1194,1194,0,1375724.093,0.686,-0.675,0.197,0.188,0,0,0,0,0,0,0,0,0,0.000,0,0,0.049,0.000,-0.040,-0.020,0.020,0.015,0.993,0.012,0.000,0.000,-0.006,0.000,0.000,0.000,0.000,0,2,0,1,7,255,1440,250,0,0,-89.307,0.901,-31.577
EX0521-092111,29,C14,prep,1206,1206,0,1375729.091,0.686,-0.675,0.197,0.188,0,0,0,0,0,0,0,0,0,0.000,0,0,0.060,0.002,-0.040,0.040,0.020,0.013,0.994,0.012,0.000,0.002,-0.006,0.000,0.000,0.000,0.000,0,2,0,1,7,255,1440,250,0,0,-89.307,0.901,-31.577
EX0521-092111,29,C14,prep,1206,1206,0,1375734.091,0.686,-0.675,0.197,0.188,0,0,0,0,0,0,0,0,0,0.000,0,0,0.060,0.004,-0.040,-0.020,-0.040,0.015,0.993,0.012,0.002,-0.004,-0.006,0.000,0.000,0.000,0.000,0,2,0,1,7,255,1440,250,0,0,-89.307,0.901,-31.577
EX0521-092111,29,C14,prep,1206,1206,0,1375739.092,0.686,-0.675,0.197,0.188,0,0,0,0,0,0,0,0,0,0.000,0,0,0.060,0.004,-0.040,-0.020,-0.040,0.015,0.993,0.012,0.002,-0.004,-0.006,0.000,0.000,0.000,0.000,0,2,0,1,7,255,1440,250,0,0,-89.307,0.901,-31.577
EX0521-092111,29,C14,prep,1206,1206,0,1375744.091,0.686,-0.675,0.197,0.188,0,0,0,0,0,0,0,0,0,0.000,0,0,0.049,0.004,0.020,0.040,0.020,0.014,0.992,0.012,0.002,-0.004,-0.010,0.000,0.000,0.000,0.000,0,2,0,1,7,255,1440,250,0,0,-89.307,0.901,-31.577
EX0521-092111,29,C14,prep,1206,1206,0,1375749.091,0.686,-0.675,0.197,0.188,0,0,0,0,0,0,0,0,0,0.000,0,0,0.035,0.004,0.020,-0.020,0.020,0.015,0.993,0.013,-0.002,-0.004,-0.006,0.000,0.000,0.000,0.000,0,2,0,1,7,255,1440,250,0,0,-89.307,0.901,-31.577
EX0521-092111,29,C14,prep,1206,1206,0,1375754.092,0.686,-0.675,0.197,0.188,0,0,0,0,0,0,0,0,0,0.000,0,0,0.049,0.003,0.020,0.040,0.020,0.014,0.993,0.011,-0.002,-0.002,-0.006,0.000,0.000,0.000,0.000,0,2,0,1,7,255,1440,250,0,0,-89.307,0.901,-31.577
EX0521-092111,29,C14,prep,1231,1231,0,1375759.092,0.686,-0.675,0.197,0.188,0,0,0,0,0,0,0,0,0,0.000,0,0,0.060,0.006,-0.040,-0.020,-0.040,0.014,0.994,0.011,-0.002,0.006,-0.004,0.000,0.000,0.000,0.000,0,2,0,1,7,255,1440,250,0,0,-89.307,0.901,-31.577
EX0521-092111,29,C14,prep,1231,1231,0,1375764.093,0.686,-0.675,0.197,0.188,0,0,0,0,0,0,0,0,0,0.000,0,0,0.035,0.007,0.020,-0.020,0.020,0.014,0.994,0.012,-0.004,0.006,0.000,0.000,0.000,0.000,0.000,0,2,0,1,7,255,1440,250,0,0,-89.307,0.901,-31.577
EX0521-092111,29,C14,prep,1231,1231,0,1375769.092,0.686,-0.675,0.197,0.188,0,0,0,0,0,0,0,0,0,0.000,0,0,0.049,0.004,0.020,-0.020,-0.040,0.015,0.994,0.011,-0.004,0.002,0.000,0.000,0.000,0.000,0.000,0,2,0,1,7,255,1440,250,0,0,-89.307,0.901,-31.577
EX0521-092111,29,C14,prep,1231,1231,0,1375774.092,0.686,-0.675,0.197,0.188,0,0,0,0,0,0,0,0,0,0.000,0,0,0.049,0.000,-0.040,-0.020,0.020,0.015,0.992,0.012,0.000,0.000,0.000,0.000,0.000,0.000,0.000,0,2,0,1,7,255,1440,250,0,0,-89.307,0.901,-31.577
EX0521-092111,29,C14,prep,1238,1238,0,1375779.092,0.686,-0.675,0.197,0.188,0,0,0,0,0,0,0,0,0,0.000,0,0,0.049,0.004,0.020,-0.020,-0.040,0.015,0.992,0.012,0.002,-0.004,-0.014,0.000,0.000,0.000,0.000,0,2,0,1,7,255,1440,250,0,0,-89.307,0.901,-31.577
EX0521-092111,29,C14,prep,1238,1238,0,1375784.092,0.686,-0.675,0.197,0.188,0,0,0,0,0,0,0,0,0,0.000,0,0,0.060,0.004,-0.040,-0.020,-0.040,0.014,0.993,0.011,0.000,-0.004,-0.014,0.000,0.000,0.000,0.000,0,2,0,1,7,255,1440,250,0,0,-89.307,0.901,-31.577
EX0521-092111,29,C14,prep,1275,1275,0,1375789.092,0.686,-0.675,0.197,0.188,0,0,0,0,0,0,0,0,0,0.000,0,0,0.069,0.002,-0.040,0.040,-0.040,0.015,0.994,0.011,0.002,0.000,-0.010,0.000,0.000,0.000,0.000,0,2,0,1,7,255,1440,250,0,0,-89.307,0.901,-31.577
EX0521-092111,29,C14,prep,1275,1275,0,1375794.092,0.686,-0.675,0.197,0.188,0,0,0,0,0,0,0,0,0,0.000,0,0,0.060,0.004,-0.040,-0.020,-0.040,0.016,0.994,0.012,0.004,0.000,0.000,0.000,0.000,0.000,0.000,0,2,0,1,7,255,1440,250,0,0,-89.307,0.901,-31.577
EX0521-092111,29,C14,prep,1275,1275,0,1375799.092,0.686,-0.675,0.197,0.188,0,0,0,0,0,0,0,0,0,0.000,0,0,0.049,0.006,-0.040,-0.020,0.020,0.015,0.993,0.012,0.004,-0.004,0.000,0.000,0.000,0.000,0.000,0,2,0,1,7,255,1440,250,0,0,-89.307,0.901,-31.577
EX0521-092111,29,C14,prep,1275,1275,0,1375804.092,0.686,-0.675,0.197,0.188,0,0,0,0,0,0,0,0,0,0.000,0,0,0.060,0.004,-0.040,-0.020,-0.040,0.014,0.993,0.011,0.002,-0.004,-0.004,0.000,0.000,0.000,0.000,0,2,0,1,7,255,1440,250,0,0,-89.307,0.901,-31.577
EX0521-092111,29,C14,prep,1291,1291,0,1375809.092,0.686,-0.675,0.197,0.188,0,0,0,0,0,0,0,0,0,0.000,0,0,0.049,0.002,-0.040,-0.020,0.020,0.015,0.993,0.011,0.002,0.000,-0.004,0.000,0.000,0.000,0.000,0,2,0,1,7,255,1440,250,0,0,-89.307,0.901,-31.577
EX0521-092111,29,C14,prep,1291,1291,0,1375814.092,0.686,-0.675,0.197,0.188,0,0,0,0,0,0,0,0,0,0.000,0,0,0.092,0.004,-0.040,-0.080,0.020,0.015,0.993,0.011,0.004,0.000,-0.004,0.000,0.000,0.000,0.000,0,2,0,1,7,255,1440,250,0,0,-89.307,0.901,-31.577
EX0521-092111,29,C14,prep,1291,1291,0,1375819.092,0.686,-0.675,0.197,0.188,0,0,0,0,0,0,0,0,0,0.000,0,0,0.060,0.004,0.020,0.040,-0.040,0.013,0.992,0.012,0.004,0.000,-0.004,0.000,0.000,0.000,0.000,0,2,0,1,7,255,1440,250,0,0,-89.307,0.901,-31.577
EX0521-092111,29,C14,prep,1291,1291,0,1375824.093,0.686,-0.675,0.197,0.188,0,0,0,0,0,0,0,0,0,0.000,0,0,0.049,0.000,0.020,-0.020,-0.040,0.015,0.993,0.012,0.000,0.000,-0.008,0.000,0.000,0.000,0.000,0,2,0,1,7,255,1440,250,0,0,-89.307,0.901,-31.577
EX0521-092111,29,C14,prep,1291,1291,0,1375829.092,0.686,-0.675,0.197,0.188,0,0,0,0,0,0,0,0,0,0.000,0,0,0.049,0.006,0.020,0.040,0.020,0.015,0.993,0.012,0.000,-0.006,-0.008,0.000,0.000,0.000,0.000,0,2,0,1,7,255,1440,250,0,0,-89.307,0.901,-31.577
EX0521-092111,29,C14,prep,1291,1291,0,1375834.092,0.686,-0.675,0.197,0.188,0,0,0,0,0,0,0,0,0,0.000,0,0,0.060,0.006,0.020,0.040,-0.040,0.013,0.992,0.011,0.000,-0.006,-0.008,0.000,0.000,0.000,0.000,0,2,0,1,7,255,1440,250,0,0,-89.307,0.901,-31.577
EX0521-092111,29,C14,prep,1302,1302,0,1375839.092,0.686,-0.675,0.197,0.188,0,0,0,0,0,0,0,0,0,0.000,0,0,0.035,0.004,0.020,-0.020,0.020,0.015,0.993,0.012,0.002,-0.004,-0.008,0.000,0.000,0.000,0.000,0,2,0,1,7,255,1440,250,0,0,-89.307,0.901,-31.577
EX0521-092111,29,C14,prep,1302,1302,0,1375844.092,0.686,-0.675,0.197,0.188,0,0,0,0,0,0,0,0,0,0.000,0,0,0.049,0.003,0.020,-0.020,-0.040,0.014,0.993,0.012,-0.002,-0.002,-0.008,0.000,0.000,0.000,0.000,0,2,0,1,7,255,1440,250,0,0,-89.307,0.901,-31.577
EX0521-092111,29,C14,prep,1302,1302,0,1375849.092,0.686,-0.675,0.197,0.188,0,0,0,0,0,0,0,0,0,0.000,0,0,0.098,0.004,-0.040,-0.080,-0.040,0.015,0.994,0.012,0.000,-0.004,-0.008,0.000,0.000,0.000,0.000,0,2,0,1,7,255,1440,250,0,0,-89.307,0.901,-31.577
EX0521-092111,29,C14,prep,1302,1302,0,1375854.092,0.686,-0.675,0.197,0.188,0,0,0,0,0,0,0,0,0,0.000,0,0,0.049,0.006,-0.040,-0.020,0.020,0.015,0.994,0.012,0.000,-0.006,0.002,0.000,0.000,0.000,0.000,0,2,0,1,7,255,1440,250,0,0,-89.307,0.901,-31.577
EX0521-092111,29,C14,prep,1327,1327,0,1375859.092,0.686,-0.675,0.197,0.188,0,0,0,0,0,0,0,0,0,0.000,0,0,0.060,0.007,-0.040,-0.020,-0.040,0.015,0.993,0.011,0.004,-0.006,0.002,0.000,0.000,0.000,0.000,0,2,0,1,7,255,1440,250,0,0,-89.307,0.901,-31.577
EX0521-092111,29,C14,prep,1327,1327,0,1375864.092,0.686,-0.675,0.197,0.188,0,0,0,0,0,0,0,0,0,0.000,0,0,0.069,0.007,-0.040,0.040,-0.040,0.014,0.993,0.012,0.004,-0.006,-0.004,0.000,0.000,0.000,0.000,0,2,0,1,7,255,1440,250,0,0,-89.307,0.901,-31.577
EX0521-092111,29,C14,prep,1327,1327,0,1375869.092,0.686,-0.675,0.197,0.188,0,0,0,0,0,0,0,0,0,0.000,0,0,0.060,0.007,-0.040,-0.020,-0.040,0.014,0.994,0.013,-0.004,-0.006,-0.004,0.000,0.000,0.000,0.000,0,2,0,1,7,255,1440,250,0,0,-89.307,0.901,-31.577
EX0521-092111,29,C14,prep,1327,1327,0,1375874.092,0.686,-0.675,0.197,0.188,0,0,0,0,0,0,0,0,0,0.000,0,0,0.060,0.007,-0.040,0.040,0.020,0.015,0.993,0.011,-0.004,-0.006,-0.004,0.000,0.000,0.000,0.000,0,2,0,1,7,255,1440,250,0,0,-89.307,0.901,-31.577
EX0521-092111,29,C14,prep,1334,1334,0,1375879.092,0.686,-0.675,0.197,0.188,0,0,0,0,0,0,0,0,0,0.000,0,0,0.060,0.008,-0.040,-0.020,-0.040,0.015,0.993,0.012,0.000,-0.008,-0.004,0.000,0.000,0.000,0.000,0,2,0,1,7,255,1440,250,0,0,-89.307,0.901,-31.577
EX0521-092111,29,C14,prep,1334,1334,0,1375884.092,0.686,-0.675,0.197,0.188,0,0,0,0,0,0,0,0,0,0.000,0,0,0.035,0.000,0.020,-0.020,0.020,0.014,0.993,0.012,0.000,0.000,-0.004,0.000,0.000,0.000,0.000,0,2,0,1,7,255,1440,250,0,0,-89.307,0.901,-31.577
EX0521-092111,29,C14,prep,1363,1363,0,1375889.092,0.686,-0.675,0.197,0.188,0,0,0,0,0,0,0,0,0,0.000,0,0,0.049,0.002,0.020,-0.020,-0.040,0.014,0.994,0.012,-0.002,0.000,-0.004,0.000,0.000,0.000,0.000,0,2,0,1,7,255,1440,250,0,0,-89.307,0.901,-31.577
EX0521-092111,29,C14,prep,1363,1363,0,1375894.092,0.686,-0.675,0.197,0.188,0,0,0,0,0,0,0,0,0,0.000,0,0,0.049,0.004,0.020,-0.020,-0.040,0.014,0.993,0.012,-0.004,0.000,-0.004,0.000,0.000,0.000,0.000,0,2,0,1,7,255,1440,250,0,0,-89.307,0.901,-31.577
EX0521-092111,29,C14,prep,1363,1363,0,1375899.092,0.686,-0.675,0.197,0.188,0,0,0,0,0,0,0,0,0,0.000,0,0,0.085,0.006,0.020,-0.080,0.020,0.013,0.993,0.012,-0.006,0.000,-0.004,0.000,0.000,0.000,0.000,0,2,0,1,7,255,1440,250,0,0,-89.307,0.901,-31.577
EX0521-092111,29,C14,prep,1363,1363,0,1375904.092,0.686,-0.675,0.197,0.188,0,0,0,0,0,0,0,0,0,0.000,0,0,0.049,0.004,0.020,-0.020,-0.040,0.015,0.993,0.011,-0.004,0.000,-0.004,0.000,0.000,0.000,0.000,0,2,0,1,7,255,1440,250,0,0,-89.307,0.901,-31.577
EX0521-092111,29,C14,prep,1399,1399,0,1375909.092,0.686,-0.675,0.197,0.188,0,0,0,0,0,0,0,0,0,0.000,0,0,0.049,0.002,-0.040,-0.020,0.020,0.014,0.992,0.012,-0.002,0.000,-0.004,0.000,0.000,0.000,0.000,0,2,0,1,7,255,1440,250,0,0,-89.307,0.901,-31.577
EX0521-092111,29,C14,prep,1399,1399,0,1375914.092,0.686,-0.675,0.197,0.188,0,0,0,0,0,0,0,0,0,0.000,0,0,0.060,0.003,-0.040,-0.020,-0.040,0.014,0.992,0.012,-0.002,-0.002,-0.012,0.000,0.000,0.000,0.000,0,2,0,1,7,255,1440,250,0,0,-89.307,0.901,-31.577
EX0521-092111,29,C14,prep,1399,1399,0,1375919.092,0.686,-0.675,0.197,0.188,0,0,0,0,0,0,0,0,0,0.000,0,0,0.035,0.003,0.020,-0.020,0.020,0.013,0.993,0.013,-0.002,-0.002,-0.012,0.000,0.000,0.000,0.000,0,2,0,1,7,255,1440,250,0,0,-89.307,0.901,-31.577
EX0521-092111,29,C14,prep,1399,1399,0,1375924.093,0.686,-0.675,0.197,0.188,0,0,0,0,0,0,0,0,0,0.000,0,0,0.049,0.003,-0.040,-0.020,0.020,0.014,0.993,0.012,-0.002,-0.002,-0.008,0.000,0.000,0.000,0.000,0,2,0,1,7,255,1440,250,0,0,-89.307,0.901,-31.577
EX0521-092111,29,C14,prep,1399,1399,0,1375929.092,0.686,-0.675,0.197,0.188,0,0,0,0,0,0,0,0,0,0.000,0,0,0.049,0.004,-0.040,-0.020,0.020,0.015,0.993,0.012,-0.002,-0.004,-0.008,0.000,0.000,0.000,0.000,0,2,0,1,7,255,1440,250,0,0,-89.307,0.901,-31.577
EX0521-092111,29,C14,prep,1399,1399,0,1375934.092,0.686,-0.675,0.197,0.188,0,0,0,0,0,0,0,0,0,0.000,0,0,0.060,0.002,-0.040,-0.020,-0.040,0.014,0.994,0.011,-0.002,0.000,-0.004,0.000,0.000,0.000,0.000,0,2,0,1,7,255,1440,250,0,0,-89.307,0.901,-31.577
EX0521-092111,29,C14,prep,1400,1400,0,1375939.092,0.686,-0.675,0.197,0.188,0,0,0,0,0,0,0,0,0,0.000,0,0,0.085,0.002,0.080,-0.020,0.020,0.014,0.993,0.012,-0.002,0.000,-0.008,0.000,0.000,0.000,0.000,0,2,0,1,7,255,1440,250,0,0,-89.307,0.901,-31.577
EX0521-092111,29,C14,prep,1400,1400,0,1375944.092,0.686,-0.675,0.197,0.188,0,0,0,0,0,0,0,0,0,0.000,0,0,0.049,0.004,0.020,0.040,0.020,0.014,0.994,0.011,-0.002,0.004,0.002,0.000,0.000,0.000,0.000,0,2,0,1,7,255,1440,250,0,0,-89.307,0.901,-31.577
EX0521-092111,29,C14,prep,1401,1401,0,1375949.092,0.686,-0.675,0.197,0.188,0,0,0,0,0,0,0,0,0,0.000,0,0,0.049,0.002,-0.040,-0.020,0.020,0.013,0.993,0.013,-0.002,0.000,-0.008,0.000,0.000,0.000,0.000,0,2,0,1,7,255,1440,250,0,0,-89.307,0.901,-31.577
EX0521-092111,29,C14,prep,1401,1401,0,1375954.092,0.686,-0.675,0.197,0.188,0,0,0,0,0,0,0,0,0,0.000,0,0,0.060,0.004,-0.040,-0.020,-0.040,0.014,0.992,0.011,0.000,0.004,-0.008,0.000,0.000,0.000,0.000,0,2,0,1,7,255,1440,250,0,0,-89.307,0.901,-31.577
EX0521-092111,29,C14,prep,1415,1415,0,1375959.093,0.686,-0.675,0.197,0.188,0,0,0,0,0,0,0,0,0,0.000,0,0,0.035,0.003,0.020,-0.020,0.020,0.014,0.991,0.012,-0.002,-0.002,-0.012,0.000,0.000,0.000,0.000,0,2,0,1,7,255,1440,250,0,0,-89.307,0.901,-31.577
EX0521-092111,29,C14,prep,1415,1415,0,1375964.093,0.686,-0.675,0.197,0.188,0,0,0,0,0,0,0,0,0,0.000,0,0,0.092,0.004,0.020,-0.080,-0.040,0.014,0.992,0.011,-0.002,0.004,-0.012,0.000,0.000,0.000,0.000,0,2,0,1,7,255,1440,250,0,0,-89.307,0.901,-31.577
EX0521-092111,29,C14,prep,1431,1431,0,1375969.092,0.686,-0.675,0.197,0.188,0,0,0,0,0,0,0,0,0,0.000,0,0,0.035,0.002,0.020,-0.020,0.020,0.015,0.994,0.011,-0.002,0.000,-0.012,0.000,0.000,0.000,0.000,0,2,0,1,7,255,1440,250,0,0,-89.307,0.901,-31.577
EX0521-092111,29,C14,prep,1431,1431,0,1375974.092,0.686,-0.675,0.197,0.188,0,0,0,0,0,0,0,0,0,0.000,0,0,0.035,0.002,0.020,-0.020,0.020,0.014,0.993,0.012,-0.002,0.000,-0.008,0.000,0.000,0.000,0.000,0,2,0,1,7,255,1440,250,0,0,-89.307,0.901,-31.577
EX0521-092111,29,C14,prep,1432,1432,0,1375979.092,0.686,-0.675,0.197,0.188,0,0,0,0,0,0,0,0,0,0.000,0,0,0.069,0.006,-0.040,0.040,-0.040,0.014,0.993,0.012,-0.004,-0.004,-0.002,0.000,0.000,0.000,0.000,0,2,0,1,7,255,1440,250,0,0,-89.307,0.901,-31.577
EX0521-092111,29,C14,prep,1432,1432,0,1375984.092,0.686,-0.675,0.197,0.188,0,0,0,0,0,0,0,0,0,0.000,0,0,0.104,0.006,-0.100,-0.020,0.020,0.014,0.993,0.011,-0.004,-0.004,-0.008,0.000,0.000,0.000,0.000,0,2,0,1,7,255,1440,250,0,0,-89.307,0.901,-31.577
EX0521-092111,29,C14,prep,1446,1446,0,1375989.092,0.686,-0.675,0.197,0.188,0,0,0,0,0,0,0,0,0,0.000,0,0,0.060,0.006,-0.040,-0.020,-0.040,0.014,0.993,0.011,-0.002,0.006,-0.002,0.000,0.000,0.000,0.000,0,2,0,1,7,255,1440,250,0,0,-89.307,0.901,-31.577
EX0521-092111,29,C14,prep,1446,1446,0,1375994.092,0.686,-0.675,0.197,0.188,0,0,0,0,0,0,0,0,0,0.000,0,0,0.049,0.006,0.020,-0.020,-0.040,0.014,0.993,0.013,-0.002,0.006,-0.002,0.000,0.000,0.000,0.000,0,2,0,1,7,255,1440,250,0,0,-89.307,0.901,-31.577
EX0521-092111,29,C14,prep,1478,1478,0,1375999.092,0.686,-0.675,0.197,0.188,0,0,0,0,0,0,0,0,0,0.000,0,0,0.035,0.006,0.020,-0.020,0.020,0.014,0.993,0.012,-0.004,-0.004,-0.002,0.000,0.000,0.000,0.000,0,2,0,1,7,255,1440,250,0,0,-89.307,0.901,-31.577
EX0521-092111,29,C14,prep,1478,1478,0,1376004.092,0.686,-0.675,0.197,0.188,0,0,0,0,0,0,0,0,0,0.000,0,0,0.035,0.006,0.020,-0.020,0.020,0.014,0.993,0.011,-0.004,-0.004,-0.002,0.000,0.000,0.000,0.000,0,2,0,1,7,255,1440,250,0,0,-89.307,0.901,-31.577
EX0521-092111,29,C14,prep,1478,1478,0,1376009.092,0.686,-0.675,0.197,0.188,0,0,0,0,0,0,0,0,0,0.000,0,0,0.060,0.002,-0.040,-0.020,-0.040,0.016,0.994,0.011,0.002,0.000,-0.002,0.000,0.000,0.000,0.000,0,2,0,1,7,255,1440,250,0,0,-89.307,0.901,-31.577
EX0521-092111,29,C14,prep,1478,1478,0,1376014.092,0.686,-0.675,0.197,0.188,0,0,0,0,0,0,0,0,0,0.000,0,0,0.049,0.004,0.020,-0.020,-0.040,0.013,0.993,0.011,0.002,0.004,-0.008,0.000,0.000,0.000,0.000,0,2,0,1,7,255,1440,250,0,0,-89.307,0.901,-31.577
EX0521-092111,29,C14,prep,1478,1478,0,1376019.092,0.686,-0.675,0.197,0.188,0,0,0,0,0,0,0,0,0,0.000,0,0,0.049,0.006,0.020,-0.020,-0.040,0.013,0.993,0.012,-0.006,0.000,-0.006,0.000,0.000,0.000,0.000,0,2,0,1,7,255,1440,250,0,0,-89.307,0.901,-31.577
EX0521-092111,29,C14,prep,1478,1478,0,1376024.093,0.686,-0.675,0.197,0.188,0,0,0,0,0,0,0,0,0,0.000,0,0,0.060,0.006,-0.040,-0.020,-0.040,0.015,0.993,0.013,-0.006,0.000,-0.006,0.000,0.000,0.000,0.000,0,2,0,1,7,255,1440,250,0,0,-89.307,0.901,-31.577
EX0521-092111,29,C14,prep,1499,1499,0,1376029.092,0.686,-0.675,0.197,0.188,0,0,0,0,0,0,0,0,0,0.000,0,0,0.085,0.010,0.020,-0.080,0.020,0.013,0.993,0.012,-0.010,0.000,-0.006,0.000,0.000,0.000,0.000,0,2,0,1,7,255,1440,250,0,0,-89.307,0.901,-31.577
EX0521-092111,29,C14,prep,1499,1499,0,1376034.092,0.686,-0.675,0.197,0.188,0,0,0,0,0,0,0,0,0,0.000,0,0,0.049,0.004,-0.040,-0.020,0.020,0.014,0.993,0.011,-0.002,0.004,-0.006,0.000,0.000,0.000,0.000,0,2,0,1,7,255,1440,250,0,0,-89.307,0.901,-31.577
EX0521-092111,29,C14,prep,1500,1500,0,1376039.092,0.686,-0.675,0.197,0.188,0,0,0,0,0,0,0,0,0,0.000,0,0,0.049,0.004,0.020,-0.020,-0.040,0.014,0.993,0.012,0.000,0.004,-0.002,0.000,0.000,0.000,0.000,0,2,0,1,7,255,1440,250,0,0,-89.307,0.901,-31.577
EX0521-092111,29,C14,prep,1500,1500,0,1376044.091,0.686,-0.675,0.197,0.188,0,0,0,0,0,0,0,0,0,0.000,0,0,0.049,0.002,0.020,0.040,0.020,0.015,0.994,0.012,0.002,0.000,-0.002,0.000,0.000,0.000,0.000,0,2,0,1,7,255,1440,250,0,0,-89.307,0.901,-31.577
EX0521-092111,29,C14,prep,1501,1501,0,1376049.092,0.686,-0.675,0.197,0.188,0,0,0,0,0,0,0,0,0,0.000,0,0,0.049,0.004,0.020,-0.020,-0.040,0.015,0.994,0.012,0.000,-0.004,0.002,0.000,0.000,0.000,0.000,0,2,0,1,7,255,1440,250,0,0,-89.307,0.901,-31.577
EX0521-092111,29,C14,prep,1501,1501,0,1376054.092,0.686,-0.675,0.197,0.188,0,0,0,0,0,0,0,0,0,0.000,0,0,0.049,0.004,0.020,-0.020,-0.040,0.014,0.993,0.011,0.000,-0.004,0.002,0.000,0.000,0.000,0.000,0,2,0,1,7,255,1440,250,0,0,-89.307,0.901,-31.577
EX0521-092111,29,C14,prep,1530,1530,0,1376059.091,0.686,-0.675,0.197,0.188,0,0,0,0,0,0,0,0,0,0.000,0,0,0.060,0.004,-0.040,-0.020,-0.040,0.015,0.993,0.011,0.000,0.004,-0.002,0.000,0.000,0.000,0.000,0,2,0,1,7,255,1440,250,0,0,-89.307,0.901,-31.577
EX0521-092111,29,C14,prep,1530,1530,0,1376064.092,0.686,-0.675,0.197,0.188,0,0,0,0,0,0,0,0,0,0.000,0,0,0.035,0.007,0.020,-0.020,0.020,0.015,0.994,0.011,0.006,0.004,-0.002,0.000,0.000,0.000,0.000,0,2,0,1,7,255,1440,250,0,0,-89.307,0.901,-31.577
EX0521-092111,29,C14,prep,1532,1532,0,1376069.091,0.686,-0.675,0.197,0.188,0,0,0,0,0,0,0,0,0,0.000,0,0,0.035,0.007,0.020,-0.020,0.020,0.014,0.994,0.011,0.006,0.004,0.002,0.000,0.000,0.000,0.000,0,2,0,1,7,255,1440,250,0,0,-89.307,0.901,-31.577
EX0521-092111,29,C14,prep,1532,1532,0,1376074.093,0.686,-0.675,0.197,0.188,0,0,0,0,0,0,0,0,0,0.000,0,0,0.035,0.000,0.020,-0.020,0.020,0.015,0.993,0.012,0.000,0.000,0.002,0.000,0.000,0.000,0.000,0,2,0,1,7,255,1440,250,0,0,-89.307,0.901,-31.577
EX0521-092111,29,C14,prep,1542,1542,0,1376079.091,0.686,-0.675,0.197,0.188,0,0,0,0,0,0,0,0,0,0.000,0,0,0.060,0.003,-0.040,-0.020,-0.040,0.014,0.993,0.012,-0.002,0.002,-0.002,0.000,0.000,0.000,0.000,0,2,0,1,7,255,1440,250,0,0,-89.307,0.901,-31.577
EX0521-092111,29,C14,prep,1542,1542,0,1376084.091,0.686,-0.675,0.197,0.188,0,0,0,0,0,0,0,0,0,0.000,0,0,0.098,0.003,-0.040,-0.080,-0.040,0.014,0.992,0.011,-0.002,0.002,-0.006,0.000,0.000,0.000,0.000,0,2,0,1,7,255,1440,250,0,0,-89.307,0.901,-31.577
EX0521-092111,29,C14,prep,1542,1542,0,1376089.091,0.686,-0.675,0.197,0.188,0,0,0,0,0,0,0,0,0,0.000,0,0,0.049,0.006,-0.040,-0.020,0.020,0.014,0.993,0.011,-0.002,0.006,-0.006,0.000,0.000,0.000,0.000,0,2,0,1,7,255,1440,250,0,0,-89.307,0.901,-31.577
EX0521-092111,29,C14,prep,1543,1543,0,1376094.091,0.686,-0.675,0.197,0.188,0,0,0,0,0,0,0,0,0,0.000,0,0,0.085,0.006,0.080,-0.020,0.020,0.015,0.993,0.011,0.000,0.006,-0.006,0.000,0.000,0.000,0.000,0,2,0,1,7,255,1440,250,0,0,-89.307,0.901,-31.577
EX0521-092111,29,C14,prep,1558,1558,0,1376099.091,0.686,-0.675,0.197,0.188,0,0,0,0,0,0,0,0,0,0.000,0,0,0.035,0.009,0.020,-0.020,0.020,0.015,0.994,0.011,0.008,0.004,-0.006,0.000,0.000,0.000,0.000,0,2,0,1,7,255,1440,250,0,0,-89.307,0.901,-31.577
EX0521-092111,29,C14,prep,1558,1558,0,1376104.091,0.686,-0.675,0.197,0.188,0,0,0,0,0,0,0,0,0,0.000,0,0,0.049,0.008,0.020,-0.020,-0.040,0.014,0.994,0.012,0.008,0.002,0.004,0.000,0.000,0.000,0.000,0,2,0,1,7,255,1440,250,0,0,-89.307,0.901,-31.577
EX0521-092111,29,C14,prep,1594,1594,0,1376109.091,0.686,-0.675,0.197,0.188,0,0,0,0,0,0,0,0,0,0.000,0,0,0.049,0.004,0.020,-0.020,-0.040,0.014,0.993,0.012,-0.004,0.002,0.004,0.000,0.000,0.000,0.000,0,2,0,1,7,255,1440,250,0,0,-89.307,0.901,-31.577
EX0521-092111,29,C14,prep,1594,1594,0,1376114.092,0.686,-0.675,0.197,0.188,0,0,0,0,0,0,0,0,0,0.000,0,0,0.060,0.004,-0.040,-0.020,-0.040,0.015,0.994,0.011,-0.004,0.000,0.004,0.000,0.000,0.000,0.000,0,2,0,1,7,255,1440,250,0,0,-89.307,0.901,-31.577
EX0521-092111,29,C14,prep,1594,1594,0,1376119.091,0.686,-0.675,0.197,0.188,0,0,0,0,0,0,0,0,0,0.000,0,0,0.060,0.006,-0.040,0.040,0.020,0.014,0.993,0.010,0.006,0.002,-0.006,0.000,0.000,0.000,0.000,0,2,0,1,7,255,1440,250,0,0,-89.307,0.901,-31.577
EX0521-092111,29,C14,prep,1594,1594,0,1376124.093,0.686,-0.675,0.197,0.188,0,0,0,0,0,0,0,0,0,0.000,0,0,0.049,0.012,-0.040,-0.020,0.020,0.014,0.993,0.011,0.006,0.010,-0.006,0.000,0.000,0.000,0.000,0,2,0,1,7,255,1440,250,0,0,-89.307,0.901,-31.577
EX0521-092111,29,C14,prep,1594,1594,0,1376129.091,0.686,-0.675,0.197,0.188,0,0,0,0,0,0,0,0,0,0.000,0,0,0.060,0.010,-0.040,-0.020,-0.040,0.014,0.993,0.011,0.000,0.010,-0.006,0.000,0.000,0.000,0.000,0,2,0,1,7,255,1440,250,0,0,-89.307,0.901,-31.577
EX0521-092111,29,C14,prep,1594,1594,0,1376134.091,0.686,-0.675,0.197,0.188,0,0,0,0,0,0,0,0,0,0.000,0,0,0.035,0.010,0.020,-0.020,0.020,0.013,0.992,0.012,0.000,0.010,-0.006,0.000,0.000,0.000,0.000,0,2,0,1,7,255,1440,250,0,0,-89.307,0.901,-31.577
EX0521-092111,29,C14,prep,1606,1606,0,1376139.091,0.686,-0.675,0.197,0.188,0,0,0,0,0,0,0,0,0,0.000,0,0,0.085,0.004,0.020,-0.080,0.020,0.014,0.993,0.012,-0.002,0.004,-0.006,0.000,0.000,0.000,0.000,0,2,0,1,7,255,1440,250,0,0,-89.307,0.901,-31.577
EX0521-092111,29,C14,prep,1606,1606,0,1376144.091,0.686,-0.675,0.197,0.188,0,0,0,0,0,0,0,0,0,0.000,0,0,0.060,0.003,-0.040,-0.020,-0.040,0.015,0.993,0.012,-0.002,-0.002,-0.006,0.000,0.000,0.000,0.000,0,2,0,1,7,255,1440,250,0,0,-89.307,0.901,-31.577
EX0521-092111,29,C14,prep,1606,1606,0,1376149.091,0.686,-0.675,0.197,0.188,0,0,0,0,0,0,0,0,0,0.000,0,0,0.085,0.003,0.020,-0.080,0.020,0.014,0.994,0.012,-0.002,-0.002,-0.006,0.000,0.000,0.000,0.000,0,2,0,1,7,255,1440,250,0,0,-89.307,0.901,-31.577
EX0521-092111,29,C14,prep,1606,1606,0,1376154.092,0.686,-0.675,0.197,0.188,0,0,0,0,0,0,0,0,0,0.000,0,0,0.049,0.006,-0.040,-0.020,0.020,0.015,0.992,0.011,0.006,-0.002,-0.006,0.000,0.000,0.000,0.000,0,2,0,1,7,255,1440,250,0,0,-89.307,0.901,-31.577
EX0521-092111,29,C14,prep,1627,1627,0,1376159.093,0.686,-0.675,0.197,0.188,0,0,0,0,0,0,0,0,0,0.000,0,0,0.049,0.006,0.020,-0.020,-0.040,0.015,0.992,0.011,0.006,0.000,-0.010,0.000,0.000,0.000,0.000,0,2,0,1,7,255,1440,250,0,0,-89.307,0.901,-31.577
EX0521-092111,29,C14,prep,1627,1627,0,1376164.093,0.686,-0.675,0.197,0.188,0,0,0,0,0,0,0,0,0,0.000,0,0,0.049,0.006,-0.040,-0.020,0.020,0.014,0.992,0.013,0.006,0.000,-0.010,0.000,0.000,0.000,0.000,0,2,0,1,7,255,1440,250,0,0,-89.307,0.901,-31.577
EX0521-092111,29,C14,prep,1627,1627,0,1376169.091,0.686,-0.675,0.197,0.188,0,0,0,0,0,0,0,0,0,0.000,0,0,0.049,0.006,-0.040,-0.020,0.020,0.014,0.993,0.010,0.006,0.000,-0.010,0.000,0.000,0.000,0.000,0,2,0,1,7,255,1440,250,0,0,-89.307,0.901,-31.577
EX0521-092111,29,C14,prep,1627,1627,0,1376174.091,0.686,-0.675,0.197,0.188,0,0,0,0,0,0,0,0,0,0.000,0,0,0.035,0.006,0.020,-0.020,0.020,0.014,0.993,0.012,-0.006,0.002,-0.006,0.000,0.000,0.000,0.000,0,2,0,1,7,255,1440,250,0,0,-89.307,0.901,-31.577
EX0521-092111,29,C14,prep,1638,1638,0,1376179.091,0.686,-0.675,0.197,0.188,0,0,0,0,0,0,0,0,0,0.000,0,0,0.049,0.003,-0.040,-0.020,0.020,0.014,0.993,0.012,-0.002,0.002,-0.006,0.000,0.000,0.000,0.000,0,2,0,1,7,255,1440,250,0,0,-89.307,0.901,-31.577
EX0521-092111,29,C14,prep,1638,1638,0,1376184.091,0.686,-0.675,0.197,0.188,0,0,0,0,0,0,0,0,0,0.000,0,0,0.049,0.003,0.020,-0.020,-0.040,0.015,0.995,0.012,-0.002,-0.002,0.000,0.000,0.000,0.000,0.000,0,2,0,1,7,255,1440,250,0,0,-89.307,0.901,-31.577
EX0521-092111,29,C14,prep,1659,1659,0,1376189.091,0.686,-0.675,0.197,0.188,0,0,0,0,0,0,0,0,0,0.000,0,0,0.049,0.002,-0.040,-0.020,0.020,0.014,0.993,0.011,0.000,-0.002,0.000,0.000,0.000,0.000,0.000,0,2,0,1,7,255,1440,250,0,0,-89.307,0.901,-31.577
EX0521-092111,29,C14,prep,1659,1659,0,1376194.091,0.686,-0.675,0.197,0.188,0,0,0,0,0,0,0,0,0,0.000,0,0,0.035,0.002,0.020,-0.020,0.020,0.014,0.994,0.011,0.000,0.002,0.008,0.000,0.000,0.000,0.000,0,2,0,1,7,255,1440,250,0,0,-89.307,0.901,-31.577
EX0521-092111,29,C14,prep,1659,1659,0,1376199.091,0.686,-0.675,0.197,0.188,0,0,0,0,0,0,0,0,0,0.000,0,0,0.049,0.003,-0.040,-0.020,0.020,0.015,0.993,0.012,0.002,0.002,-0.002,0.000,0.000,0.000,0.000,0,2,0,1,7,255,1440,250,0,0,-89.307,0.901,-31.577
EX0521-092111,29,C14,prep,1659,1659,0,1376204.091,0.686,-0.675,0.197,0.188,0,0,0,0,0,0,0,0,0,0.000,0,0,0.035,0.003,0.020,-0.020,0.020,0.014,0.993,0.011,0.002,0.002,-0.002,0.000,0.000,0.000,0.000,0,2,0,1,7,255,1440,250,0,0,-89.307,0.901,-31.577
EX0521-092111,29,C14,prep,1699,1699,0,1376209.091,0.686,-0.675,0.197,0.188,0,0,0,0,0,0,0,0,0,0.000,0,0,0.049,0.003,0.020,-0.020,-0.040,0.014,0.992,0.012,0.002,-0.002,-0.006,0.000,0.000,0.000,0.000,0,2,0,1,7,255,1440,250,0,0,-89.307,0.901,-31.577
EX0521-092111,29,C14,prep,1699,1699,0,1376214.092,0.686,-0.675,0.197,0.188,0,0,0,0,0,0,0,0,0,0.000,0,0,0.049,0.003,0.020,-0.020,-0.040,0.014,0.993,0.012,-0.002,0.002,-0.006,0.000,0.000,0.000,0.000,0,2,0,1,7,255,1440,250,0,0,-89.307,0.901,-31.577
EX0521-092111,29,C14,prep,1699,1699,0,1376219.091,0.686,-0.675,0.197,0.188,0,0,0,0,0,0,0,0,0,0.000,0,0,0.060,0.003,-0.040,-0.020,-0.040,0.015,0.993,0.012,-0.002,-0.002,-0.006,0.000,0.000,0.000,0.000,0,2,0,1,7,255,1440,250,0,0,-89.307,0.901,-31.577
EX0521-092111,29,C14,prep,1699,1699,0,1376224.093,0.686,-0.675,0.197,0.188,0,0,0,0,0,0,0,0,0,0.000,0,0,0.035,0.003,0.020,-0.020,0.020,0.014,0.993,0.011,-0.002,0.002,0.000,0.000,0.000,0.000,0.000,0,2,0,1,7,255,1440,250,0,0,-89.307,0.901,-31.577
EX0521-092111,29,C14,prep,1699,1699,0,1376229.091,0.686,-0.675,0.197,0.188,0,0,0,0,0,0,0,0,0,0.000,0,0,0.049,0.006,0.020,-0.020,-0.040,0.016,0.994,0.011,0.004,-0.004,0.000,0.000,0.000,0.000,0.000,0,2,0,1,7,255,1440,250,0,0,-89.307,0.901,-31.577
EX0521-092111,29,C14,prep,1699,1699,0,1376234.091,0.686,-0.675,0.197,0.188,0,0,0,0,0,0,0,0,0,0.000,0,0,0.049,0.006,0.020,-0.020,-0.040,0.015,0.993,0.011,0.006,0.000,0.000,0.000,0.000,0.000,0.000,0,2,0,1,7,255,1440,250,0,0,-89.307,0.901,-31.577
EX0521-092111,29,C14,prep,1699,1699,0,1376239.091,0.686,-0.675,0.197,0.188,0,0,0,0,0,0,0,0,0,0.000,0,0,0.049,0.012,0.020,-0.020,-0.040,0.015,0.993,0.011,0.012,0.000,0.000,0.000,0.000,0.000,0.000,0,2,0,1,7,255,1440,250,0,0,-89.307,0.901,-31.577
EX0521-092111,29,C14,prep,1699,1699,0,1376244.091,0.686,-0.675,0.197,0.188,0,0,0,0,0,0,0,0,0,0.000,0,0,0.049,0.006,0.020,-0.020,-0.040,0.013,0.993,0.011,0.006,0.002,-0.006,0.000,0.000,0.000,0.000,0,2,0,1,7,255,1440,250,0,0,-89.307,0.901,-31.577
EX0521-092111,29,C14,prep,1702,1702,0,1376249.091,0.686,-0.675,0.197,0.188,0,0,0,0,0,0,0,0,0,0.000,0,0,0.060,0.002,-0.040,-0.020,-0.040,0.015,0.994,0.012,0.000,0.002,-0.006,0.000,0.000,0.000,0.000,0,2,0,1,7,255,1440,250,0,0,-89.307,0.901,-31.577
EX0521-092111,29,C14,prep,1702,1702,0,1376254.092,0.686,-0.675,0.197,0.188,0,0,0,0,0,0,0,0,0,0.000,0,0,0.049,0.006,-0.040,-0.020,0.020,0.014,0.994,0.012,-0.006,0.002,0.004,0.000,0.000,0.000,0.000,0,2,0,1,7,255,1440,250,0,0,-89.307,0.901,-31.577
EX0521-092111,29,C14,prep,1731,1731,0,1376259.091,0.686,-0.675,0.197,0.188,0,0,0,0,0,0,0,0,0,0.000,0,0,0.049,0.008,-0.040,-0.020,0.020,0.015,0.993,0.012,0.000,-0.008,0.004,0.000,0.000,0.000,0.000,0,2,0,1,7,255,1440,250,0,0,-89.307,0.901,-31.577
EX0521-092111,29,C14,prep,1731,1731,0,1376264.091,0.686,-0.675,0.197,0.188,0,0,0,0,0,0,0,0,0,0.000,0,0,0.035,0.002,0.020,-0.020,0.020,0.014,0.993,0.011,0.000,0.002,0.000,0.000,0.000,0.000,0.000,0,2,0,1,7,255,1440,250,0,0,-89.307,0.901,-31.577
EX0521-092111,29,C14,prep,1732,1732,0,1376269.091,0.686,-0.675,0.197,0.188,0,0,0,0,0,0,0,0,0,0.000,0,0,0.060,0.003,-0.040,-0.020,-0.040,0.014,0.994,0.011,0.002,0.002,0.000,0.000,0.000,0.000,0.000,0,2,0,1,7,255,1440,250,0,0,-89.307,0.901,-31.577
EX0521-092111,29,C14,prep,1732,1732,0,1376274.091,0.686,-0.675,0.197,0.188,0,0,0,0,0,0,0,0,0,0.000,0,0,0.060,0.006,-0.040,-0.020,-0.040,0.014,0.995,0.011,0.002,0.006,0.004,0.000,0.000,0.000,0.000,0,2,0,1,7,255,1440,250,0,0,-89.307,0.901,-31.577
EX0521-092111,29,C14,prep,1733,1733,0,1376279.091,0.686,-0.675,0.197,0.188,0,0,0,0,0,0,0,0,0,0.000,0,0,0.049,0.003,-0.040,-0.020,0.020,0.015,0.993,0.012,0.002,0.002,0.004,0.000,0.000,0.000,0.000,0,2,0,1,7,255,1440,250,0,0,-89.307,0.901,-31.577
EX0521-092111,29,C14,prep,1733,1733,0,1376284.091,0.686,-0.675,0.197,0.188,0,0,0,0,0,0,0,0,0,0.000,0,0,0.035,0.004,0.020,-0.020,0.020,0.014,0.991,0.011,-0.002,0.004,-0.006,0.000,0.000,0.000,0.000,0,2,0,1,7,255,1440,250,0,0,-89.307,0.901,-31.577
EX0521-092111,29,C14,prep,1765,1765,0,1376289.091,0.686,-0.675,0.197,0.188,0,0,0,0,0,0,0,0,0,0.000,0,0,0.060,0.004,0.020,0.040,-0.040,0.014,0.994,0.011,0.000,0.004,-0.006,0.000,0.000,0.000,0.000,0,2,0,1,7,255,1440,250,0,0,-89.307,0.901,-31.577
EX0521-092111,29,C14,prep,1765,1765,0,1376294.091,0.686,-0.675,0.197,0.188,0,0,0,0,0,0,0,0,0,0.000,0,0,0.060,0.004,-0.040,-0.020,-0.040,0.015,0.992,0.012,0.000,0.004,-0.010,0.000,0.000,0.000,0.000,0,2,0,1,7,255,1440,250,0,0,-89.307,0.901,-31.577
EX0521-092111,29,C14,prep,1788,1788,0,1376299.091,0.686,-0.675,0.197,0.188,0,0,0,0,0,0,0,0,0,0.000,0,0,0.060,0.002,-0.040,-0.020,-0.040,0.014,0.995,0.012,0.000,-0.002,0.004,0.000,0.000,0.000,0.000,0,2,0,1,7,255,1440,250,0,0,-89.307,0.901,-31.577
EX0521-092111,29,C14,prep,1788,1788,0,1376304.091,0.686,-0.675,0.197,0.188,0,0,0,0,0,0,0,0,0,0.000,0,0,0.035,0.002,0.020,-0.020,0.020,0.014,0.994,0.011,0.000,-0.002,0.004,0.000,0.000,0.000,0.000,0,2,0,1,7,255,1440,250,0,0,-89.307,0.901,-31.577
EX0521-092111,29,C14,prep,1798,1798,0,1376309.092,0.686,-0.675,0.197,0.188,0,0,0,0,0,0,0,0,0,0.000,0,0,0.035,0.002,0.020,-0.020,0.020,0.015,0.992,0.012,0.000,-0.002,0.004,0.000,0.000,0.000,0.000,0,2,0,1,7,255,1440,250,0,0,-89.307,0.901,-31.577
EX0521-092111,29,C14,prep,1798,1798,0,1376314.092,0.686,-0.675,0.197,0.188,0,0,0,0,0,0,0,0,0,0.000,0,0,0.060,0.006,-0.040,-0.020,-0.040,0.014,0.994,0.011,0.000,0.006,0.004,0.000,0.000,0.000,0.000,0,2,0,1,7,255,1440,250,0,0,-89.307,0.901,-31.577
EX0521-092111,29,C14,prep,1798,1798,0,1376319.092,0.686,-0.675,0.197,0.188,0,0,0,0,0,0,0,0,0,0.000,0,0,0.049,0.004,0.020,-0.020,-0.040,0.015,0.994,0.011,0.004,0.000,0.004,0.000,0.000,0.000,0.000,0,2,0,1,7,255,1440,250,0,0,-89.307,0.901,-31.577
EX0521-092111,29,C14,prep,1798,1798,0,1376324.093,0.686,-0.675,0.197,0.188,0,0,0,0,0,0,0,0,0,0.000,0,0,0.049,0.004,0.020,-0.020,-0.040,0.014,0.994,0.012,0.004,0.002,0.004,0.000,0.000,0.000,0.000,0,2,0,1,7,255,1440,250,0,0,-89.307,0.901,-31.577
EX0521-092111,29,C14,prep,1798,1798,0,1376329.091,0.686,-0.675,0.197,0.188,0,0,0,0,0,0,0,0,0,0.000,0,0,0.060,0.006,-0.040,-0.020,-0.040,0.015,0.992,0.011,0.006,0.002,0.004,0.000,0.000,0.000,0.000,0,2,0,1,7,255,1440,250,0,0,-89.307,0.901,-31.577
EX0521-092111,29,C14,prep,1798,1798,0,1376334.091,0.686,-0.675,0.197,0.188,0,0,0,0,0,0,0,0,0,0.000,0,0,0.060,0.006,-0.040,-0.020,-0.040,0.014,0.994,0.013,-0.006,0.002,0.008,0.000,0.000,0.000,0.000,0,2,0,1,7,255,1440,250,0,0,-89.307,0.901,-31.577
EX0521-092111,29,C14,prep,1814,1814,0,1376339.092,0.686,-0.675,0.197,0.188,0,0,0,0,0,0,0,0,0,0.000,0,0,0.049,0.006,-0.040,-0.020,0.020,0.015,0.993,0.011,0.006,0.000,0.000,0.000,0.000,0.000,0.000,0,2,0,1,7,255,1440,250,0,0,-89.307,0.901,-31.577
EX0521-092111,29,C14,prep,1814,1814,0,1376344.091,0.686,-0.675,0.197,0.188,0,0,0,0,0,0,0,0,0,0.000,0,0,0.035,0.008,0.020,-0.020,0.020,0.014,0.994,0.012,-0.008,-0.002,0.004,0.000,0.000,0.000,0.000,0,2,0,1,7,255,1440,250,0,0,-89.307,0.901,-31.577
EX0521-092111,29,C14,prep,1814,1814,0,1376349.092,0.686,-0.675,0.197,0.188,0,0,0,0,0,0,0,0,0,0.000,0,0,0.049,0.003,-0.040,-0.020,0.020,0.015,0.994,0.013,-0.002,-0.002,0.004,0.000,0.000,0.000,0.000,0,2,0,1,7,255,1440,250,0,0,-89.307,0.901,-31.577
EX0521-092111,29,C14,prep,1814,1814,0,1376354.092,0.686,-0.675,0.197,0.188,0,0,0,0,0,0,0,0,0,0.000,0,0,0.092,0.013,0.020,-0.080,-0.040,0.015,0.993,0.013,-0.004,-0.012,0.004,0.000,0.000,0.000,0.000,0,2,0,1,7,255,1440,250,0,0,-89.307,0.901,-31.577
EX0521-092111,29,C14,prep,1814,1814,0,1376359.092,0.686,-0.675,0.197,0.188,0,0,0,0,0,0,0,0,0,0.000,0,0,0.060,0.012,-0.040,-0.020,-0.040,0.014,0.993,0.011,-0.002,-0.012,0.000,0.000,0.000,0.000,0.000,0,2,0,1,7,255,1440,250,0,0,-89.307,0.901,-31.577
EX0521-092111,29,C14,prep,1814,1814,0,1376364.093,0.686,-0.675,0.197,0.188,0,0,0,0,0,0,0,0,0,0.000,0,0,0.060,0.003,-0.040,-0.020,-0.040,0.014,0.994,0.011,-0.002,0.002,0.000,0.000,0.000,0.000,0.000,0,2,0,1,7,255,1440,250,0,0,-89.307,0.901,-31.577
EX0521-092111,29,C14,prep,1830,1830,0,1376369.092,0.686,-0.675,0.197,0.188,0,0,0,0,0,0,0,0,0,0.000,0,0,0.110,0.003,-0.040,-0.020,-0.100,0.014,0.993,0.011,0.002,0.002,0.000,0.000,0.000,0.000,0.000,0,2,0,1,7,255,1440,250,0,0,-89.307,0.901,-31.577
EX0521-092111,29,C14,prep,1830,1830,0,1376374.092,0.686,-0.675,0.197,0.188,0,0,0,0,0,0,0,0,0,0.000,0,0,0.035,0.006,0.020,-0.020,0.020,0.014,0.993,0.010,0.002,0.006,0.000,0.000,0.000,0.000,0.000,0,2,0,1,7,255,1440,250,0,0,-89.307,0.901,-31.577
EX0521-092111,29,C14,prep,1846,1846,0,1376379.092,0.686,-0.675,0.197,0.188,0,0,0,0,0,0,0,0,0,0.000,0,0,0.085,0.003,0.080,-0.020,0.020,0.014,0.993,0.012,0.002,0.002,-0.002,0.000,0.000,0.000,0.000,0,2,0,1,7,255,1440,250,0,0,-89.307,0.901,-31.577
EX0521-092111,29,C14,prep,1846,1846,0,1376384.092,0.686,-0.675,0.197,0.188,0,0,0,0,0,0,0,0,0,0.000,0,0,0.035,0.004,0.020,-0.020,0.020,0.015,0.994,0.012,0.000,-0.004,-0.002,0.000,0.000,0.000,0.000,0,2,0,1,7,255,1440,250,0,0,-89.307,0.901,-31.577
EX0521-092111,29,C14,prep,1846,1846,0,1376389.092,0.686,-0.675,0.197,0.188,0,0,0,0,0,0,0,0,0,0.000,0,0,0.060,0.004,-0.040,0.040,0.020,0.014,0.993,0.011,0.000,-0.004,0.000,0.000,0.000,0.000,0.000,0,2,0,1,7,255,1440,250,0,0,-89.307,0.901,-31.577
EX0521-092111,29,C14,prep,1846,1846,0,1376394.092,0.686,-0.675,0.197,0.188,0,0,0,0,0,0,0,0,0,0.000,0,0,0.060,0.003,-0.040,-0.020,-0.040,0.014,0.993,0.011,0.002,0.002,0.000,0.000,0.000,0.000,0.000,0,2,0,1,7,255,1440,250,0,0,-89.307,0.901,-31.577
EX0521-092111,29,C14,prep,1862,1862,0,1376399.092,0.686,-0.675,0.197,0.188,0,0,0,0,0,0,0,0,0,0.000,0,0,0.060,0.003,-0.040,-0.020,-0.040,0.014,0.993,0.012,0.002,0.002,0.000,0.000,0.000,0.000,0.000,0,2,0,1,7,255,1440,250,0,0,-89.307,0.901,-31.577
EX0521-092111,29,C14,prep,1862,1862,0,1376404.092,0.686,-0.675,0.197,0.188,0,0,0,0,0,0,0,0,0,0.000,0,0,0.060,0.003,-0.040,-0.020,-0.040,0.014,0.993,0.011,0.002,0.002,0.000,0.000,0.000,0.000,0.000,0,2,0,1,7,255,1440,250,0,0,-89.307,0.901,-31.577
EX0521-092111,29,C14,prep,1897,1897,0,1376409.092,0.686,-0.675,0.197,0.188,0,0,0,0,0,0,0,0,0,0.000,0,0,0.049,0.003,0.020,-0.020,-0.040,0.015,0.993,0.010,0.002,0.002,-0.006,0.000,0.000,0.000,0.000,0,2,0,1,7,255,1440,250,0,0,-89.307,0.901,-31.577
EX0521-092111,29,C14,prep,1897,1897,0,1376414.092,0.686,-0.675,0.197,0.188,0,0,0,0,0,0,0,0,0,0.000,0,0,0.035,0.006,0.020,-0.020,0.020,0.015,0.993,0.012,0.006,0.002,-0.006,0.000,0.000,0.000,0.000,0,2,0,1,7,255,1440,250,0,0,-89.307,0.901,-31.577
EX0521-092111,29,C14,prep,1897,1897,0,1376419.092,0.686,-0.675,0.197,0.188,0,0,0,0,0,0,0,0,0,0.000,0,0,0.060,0.015,-0.040,-0.020,-0.040,0.016,0.993,0.011,0.014,-0.004,-0.006,0.000,0.000,0.000,0.000,0,2,0,1,7,255,1440,250,0,0,-89.307,0.901,-31.577
EX0521-092111,29,C14,prep,1897,1897,0,1376424.093,0.686,-0.675,0.197,0.188,0,0,0,0,0,0,0,0,0,0.000,0,0,0.060,0.007,0.020,0.040,-0.040,0.015,0.994,0.012,0.006,-0.004,0.000,0.000,0.000,0.000,0.000,0,2,0,1,7,255,1440,250,0,0,-89.307,0.901,-31.577
EX0521-092111,29,C14,prep,1897,1897,0,1376429.092,0.686,-0.675,0.197,0.188,0,0,0,0,0,0,0,0,0,0.000,0,0,0.060,0.004,-0.040,-0.020,-0.040,0.014,0.994,0.012,0.002,-0.004,0.004,0.000,0.000,0.000,0.000,0,2,0,1,7,255,1440,250,0,0,-89.307,0.901,-31.577
EX0521-092111,29,C14,prep,1897,1897,0,1376434.092,0.686,-0.675,0.197,0.188,0,0,0,0,0,0,0,0,0,0.000,0,0,0.049,0.003,0.020,-0.020,-0.040,0.015,0.993,0.011,0.002,-0.002,0.004,0.000,0.000,0.000,0.000,0,2,0,1,7,255,1440,250,0,0,-89.307,0.901,-31.577
EX0521-092111,29,C14,prep,1898,1898,0,1376439.092,0.686,-0.675,0.197,0.188,0,0,0,0,0,0,0,0,0,0.000,0,0,0.049,0.000,0.020,-0.020,-0.040,0.014,0.994,0.011,0.000,0.000,0.004,0.000,0.000,0.000,0.000,0,2,0,1,7,255,1440,250,0,0,-89.307,0.901,-31.577
EX0521-092111,29,C14,prep,1898,1898,0,1376444.092,0.686,-0.675,0.197,0.188,0,0,0,0,0,0,0,0,0,0.000,0,0,0.049,0.004,0.020,-0.020,-0.040,0.015,0.994,0.011,0.004,0.002,0.004,0.000,0.000,0.000,0.000,0,2,0,1,7,255,1440,250,0,0,-89.307,0.901,-31.577
EX0521-092111,29,C14,prep,1910,1910,0,1376449.092,0.686,-0.675,0.197,0.188,0,0,0,0,0,0,0,0,0,0.000,0,0,0.035,0.002,0.020,-0.020,0.020,0.014,0.992,0.011,0.000,0.002,0.004,0.000,0.000,0.000,0.000,0,2,0,1,7,255,1440,250,0,0,-89.307,0.901,-31.577
EX0521-092111,29,C14,prep,1910,1910,0,1376454.092,0.686,-0.675,0.197,0.188,0,0,0,0,0,0,0,0,0,0.000,0,0,0.060,0.002,-0.040,-0.020,-0.040,0.014,0.992,0.012,0.000,0.002,-0.010,0.000,0.000,0.000,0.000,0,2,0,1,7,255,1440,250,0,0,-89.307,0.901,-31.577
EX0521-092111,29,C14,prep,1910,1910,0,1376459.092,0.686,-0.675,0.197,0.188,0,0,0,0,0,0,0,0,0,0.000,0,0,0.060,0.002,-0.040,-0.020,-0.040,0.014,0.992,0.011,0.000,0.002,-0.010,0.000,0.000,0.000,0.000,0,2,0,1,7,255,1440,250,0,0,-89.307,0.901,-31.577
EX0521-092111,29,C14,prep,1910,1910,0,1376464.092,0.686,-0.675,0.197,0.188,0,0,0,0,0,0,0,0,0,0.000,0,0,0.060,0.003,-0.040,-0.020,-0.040,0.014,0.993,0.011,-0.002,0.002,-0.010,0.000,0.000,0.000,0.000,0,2,0,1,7,255,1440,250,0,0,-89.307,0.901,-31.577
EX0521-092111,29,C14,prep,1932,1932,0,1376469.092,0.686,-0.675,0.197,0.188,0,0,0,0,0,0,0,0,0,0.000,0,0,0.049,0.002,-0.040,-0.020,0.020,0.014,0.992,0.011,0.000,0.002,-0.010,0.000,0.000,0.000,0.000,0,2,0,1,7,255,1440,250,0,0,-89.307,0.901,-31.577
EX0521-092111,29,C14,prep,1932,1932,0,1376474.092,0.686,-0.675,0.197,0.188,0,0,0,0,0,0,0,0,0,0.000,0,0,0.104,0.002,-0.100,-0.020,0.020,0.015,0.993,0.012,0.000,0.002,0.000,0.000,0.000,0.000,0.000,0,2,0,1,7,255,1440,250,0,0,-89.307,0.901,-31.577
EX0521-092111,29,C14,prep,1933,1933,0,1376479.092,0.686,-0.675,0.197,0.188,0,0,0,0,0,0,0,0,0,0.000,0,0,0.049,0.004,0.020,-0.020,-0.040,0.015,0.993,0.011,0.004,0.000,-0.006,0.000,0.000,0.000,0.000,0,2,0,1,7,255,1440,250,0,0,-89.307,0.901,-31.577
EX0521-092111,29,C14,prep,1933,1933,0,1376484.092,0.686,-0.675,0.197,0.188,0,0,0,0,0,0,0,0,0,0.000,0,0,0.035,0.006,0.020,-0.020,0.020,0.015,0.993,0.012,0.004,-0.004,-0.004,0.000,0.000,0.000,0.000,0,2,0,1,7,255,1440,250,0,0,-89.307,0.901,-31.577
EX0521-092111,29,C14,prep,1942,1942,0,1376489.092,0.686,-0.675,0.197,0.188,0,0,0,0,0,0,0,0,0,0.000,0,0,0.049,0.004,0.020,-0.020,-0.040,0.014,0.992,0.010,0.004,0.000,-0.006,0.000,0.000,0.000,0.000,0,2,0,1,7,255,1440,250,0,0,-89.307,0.901,-31.577
EX0521-092111,29,C14,prep,1942,1942,0,1376494.092,0.686,-0.675,0.197,0.188,0,0,0,0,0,0,0,0,0,0.000,0,0,0.035,0.006,0.020,-0.020,0.020,0.015,0.993,0.011,0.006,-0.002,-0.004,0.000,0.000,0.000,0.000,0,2,0,1,7,255,1440,250,0,0,-89.307,0.901,-31.577
EX0521-092111,29,C14,prep,1990,1990,0,1376499.092,0.686,-0.675,0.197,0.188,0,0,0,0,0,0,0,0,0,0.000,0,0,0.035,0.006,0.020,-0.020,0.020,0.015,0.994,0.011,0.006,0.000,0.000,0.000,0.000,0.000,0.000,0,2,0,1,7,255,1440,250,0,0,-89.307,0.901,-31.577
EX0521-092111,29,C14,prep,1990,1990,0,1376504.092,0.686,-0.675,0.197,0.188,0,0,0,0,0,0,0,0,0,0.000,0,0,0.049,0.004,0.020,-0.020,-0.040,0.014,0.994,0.011,0.004,0.000,0.004,0.000,0.000,0.000,0.000,0,2,0,1,7,255,1440,250,0,0,-89.307,0.901,-31.577
EX0521-092111,29,C14,prep,1991,1991,0,1376509.092,0.686,-0.675,0.197,0.188,0,0,0,0,0,0,0,0,0,0.000,0,0,0.049,0.006,-0.040,-0.020,0.020,0.015,0.994,0.011,0.004,0.004,0.004,0.000,0.000,0.000,0.000,0,2,0,1,7,255,1440,250,0,0,-89.307,0.901,-31.577
EX0521-092111,29,C14,prep,1991,1991,0,1376514.092,0.686,-0.675,0.197,0.188,0,0,0,0,0,0,0,0,0,0.000,0,0,0.049,0.004,0.020,-0.020,-0.040,0.014,0.993,0.011,0.002,0.004,0.004,0.000,0.000,0.000,0.000,0,2,0,1,7,255,1440,250,0,0,-89.307,0.901,-31.577
EX0521-092111,29,C14,prep,1991,1991,0,1376519.092,0.686,-0.675,0.197,0.188,0,0,0,0,0,0,0,0,0,0.000,0,0,0.085,0.007,0.080,-0.020,0.020,0.015,0.993,0.011,0.006,0.004,0.000,0.000,0.000,0.000,0.000,0,2,0,1,7,255,1440,250,0,0,-89.307,0.901,-31.577
EX0521-092111,29,C14,prep,1991,1991,0,1376524.093,0.686,-0.675,0.197,0.188,0,0,0,0,0,0,0,0,0,0.000,0,0,0.049,0.002,0.020,-0.020,-0.040,0.014,0.994,0.011,0.000,0.002,0.000,0.000,0.000,0.000,0.000,0,2,0,1,7,255,1440,250,0,0,-89.307,0.901,-31.577
EX0521-092111,29,C14,prep,2006,2006,0,1376529.092,0.686,-0.675,0.197,0.188,0,0,0,0,0,0,0,0,0,0.000,0,0,0.069,0.002,-0.040,0.040,-0.040,0.014,0.993,0.011,0.000,0.002,0.000,0.000,0.000,0.000,0.000,0,2,0,1,7,255,1440,250,0,0,-89.307,0.901,-31.577
EX0521-092111,29,C14,prep,2006,2006,0,1376534.092,0.686,-0.675,0.197,0.188,0,0,0,0,0,0,0,0,0,0.000,0,0,0.049,0.002,0.020,-0.020,-0.040,0.013,0.993,0.012,0.000,0.002,0.000,0.000,0.000,0.000,0.000,0,2,0,1,7,255,1440,250,0,0,-89.307,0.901,-31.577
EX0521-092111,29,C14,prep,2006,2006,0,1376539.092,0.686,-0.675,0.197,0.188,0,0,0,0,0,0,0,0,0,0.000,0,0,0.049,0.000,-0.040,-0.020,0.020,0.015,0.994,0.012,0.000,0.000,0.000,0.000,0.000,0.000,0.000,0,2,0,1,7,255,1440,250,0,0,-89.307,0.901,-31.577
EX0521-092111,29,C14,prep,2006,2006,0,1376544.092,0.686,-0.675,0.197,0.188,0,0,0,0,0,0,0,0,0,0.000,0,0,0.060,0.004,-0.040,-0.020,-0.040,0.014,0.993,0.011,-0.004,0.000,-0.006,0.000,0.000,0.000,0.000,0,2,0,1,7,255,1440,250,0,0,-89.307,0.901,-31.577
EX0521-092111,29,C14,prep,2006,2006,0,1376549.092,0.686,-0.675,0.197,0.188,0,0,0,0,0,0,0,0,0,0.000,0,0,0.035,0.002,0.020,-0.020,0.020,0.014,0.992,0.011,0.000,0.002,-0.006,0.000,0.000,0.000,0.000,0,2,0,1,7,255,1440,250,0,0,-89.307,0.901,-31.577
EX0521-092111,29,C14,prep,2006,2006,0,1376554.092,0.686,-0.675,0.197,0.188,0,0,0,0,0,0,0,0,0,0.000,0,0,0.035,0.006,0.020,-0.020,0.020,0.013,0.993,0.012,-0.004,0.004,-0.006,0.000,0.000,0.000,0.000,0,2,0,1,7,255,1440,250,0,0,-89.307,0.901,-31.577
EX0521-092111,29,C14,prep,2031,2031,0,1376559.092,0.686,-0.675,0.197,0.188,0,0,0,0,0,0,0,0,0,0.000,0,0,0.098,0.006,-0.040,-0.080,-0.040,0.014,0.994,0.012,-0.006,0.002,0.000,0.000,0.000,0.000,0.000,0,2,0,1,7,255,1440,250,0,0,-89.307,0.901,-31.577
EX0521-092111,29,C14,prep,2031,2031,0,1376564.093,0.686,-0.675,0.197,0.188,0,0,0,0,0,0,0,0,0,0.000,0,0,0.035,0.006,0.020,-0.020,0.020,0.014,0.994,0.012,-0.006,0.000,0.004,0.000,0.000,0.000,0.000,0,2,0,1,7,255,1440,250,0,0,-89.307,0.901,-31.577
EX0521-092111,29,C14,prep,2032,2032,0,1376569.092,0.686,-0.675,0.197,0.188,0,0,0,0,0,0,0,0,0,0.000,0,0,0.060,0.006,-0.040,-0.020,-0.040,0.014,0.993,0.011,-0.006,0.000,0.004,0.000,0.000,0.000,0.000,0,2,0,1,7,255,1440,250,0,0,-89.307,0.901,-31.577
EX0521-092111,29,C14,prep,2032,2032,0,1376574.092,0.686,-0.675,0.197,0.188,0,0,0,0,0,0,0,0,0,0.000,0,0,0.049,0.002,-0.040,-0.020,0.020,0.014,0.993,0.012,-0.002,0.000,0.000,0.000,0.000,0.000,0.000,0,2,0,1,7,255,1440,250,0,0,-89.307,0.901,-31.577
EX0521-092111,29,C14,prep,2033,2033,0,1376579.092,0.686,-0.675,0.197,0.188,0,0,0,0,0,0,0,0,0,0.000,0,0,0.060,0.002,-0.040,-0.020,-0.040,0.016,0.993,0.011,0.000,-0.002,0.000,0.000,0.000,0.000,0.000,0,2,0,1,7,255,1440,250,0,0,-89.307,0.901,-31.577
EX0521-092111,29,C14,prep,2033,2033,0,1376584.092,0.686,-0.675,0.197,0.188,0,0,0,0,0,0,0,0,0,0.000,0,0,0.035,0.003,0.020,-0.020,0.020,0.014,0.995,0.011,0.002,-0.002,0.000,0.000,0.000,0.000,0.000,0,2,0,1,7,255,1440,250,0,0,-89.307,0.901,-31.577
EX0521-092111,29,C14,prep,2095,2095,0,1376589.092,0.686,-0.675,0.197,0.188,0,0,0,0,0,0,0,0,0,0.000,0,0,0.049,0.007,0.020,-0.020,-0.040,0.014,0.992,0.011,0.004,0.006,0.000,0.000,0.000,0.000,0.000,0,2,0,1,7,255,1440,250,0,0,-89.307,0.901,-31.577
EX0521-092111,29,C14,prep,2095,2095,0,1376594.092,0.686,-0.675,0.197,0.188,0,0,0,0,0,0,0,0,0,0.000,0,0,0.035,0.006,0.020,-0.020,0.020,0.014,0.994,0.012,0.002,0.006,0.004,0.000,0.000,0.000,0.000,0,2,0,1,7,255,1440,250,0,0,-89.307,0.901,-31.577
EX0521-092111,29,C14,prep,2095,2095,0,1376599.092,0.686,-0.675,0.197,0.188,0,0,0,0,0,0,0,0,0,0.000,0,0,0.092,0.004,-0.040,-0.080,0.020,0.015,0.993,0.011,0.004,0.000,-0.006,0.000,0.000,0.000,0.000,0,2,0,1,7,255,1440,250,0,0,-89.307,0.901,-31.577
EX0521-092111,29,C14,prep,2095,2095,0,1376604.092,0.686,-0.675,0.197,0.188,0,0,0,0,0,0,0,0,0,0.000,0,0,0.049,0.007,0.020,-0.020,-0.040,0.014,0.993,0.012,-0.004,-0.006,0.000,0.000,0.000,0.000,0.000,0,2,0,1,7,255,1440,250,0,0,-89.307,0.901,-31.577
EX0521-092111,29,C14,prep,2095,2095,0,1376609.092,0.686,-0.675,0.197,0.188,0,0,0,0,0,0,0,0,0,0.000,0,0,0.049,0.007,0.020,-0.020,-0.040,0.014,0.993,0.012,-0.004,-0.006,0.000,0.000,0.000,0.000,0.000,0,2,0,1,7,255,1440,250,0,0,-89.307,0.901,-31.577
EX0521-092111,29,C14,prep,2095,2095,0,1376614.092,0.686,-0.675,0.197,0.188,0,0,0,0,0,0,0,0,0,0.000,0,0,0.060,0.007,-0.040,-0.020,-0.040,0.014,0.994,0.012,-0.004,-0.006,0.000,0.000,0.000,0.000,0.000,0,2,0,1,7,255,1440,250,0,0,-89.307,0.901,-31.577
EX0521-092111,29,C14,prep,2102,2102,0,1376619.092,0.686,-0.675,0.197,0.188,0,0,0,0,0,0,0,0,0,0.000,0,0,0.085,0.006,0.020,-0.080,0.020,0.015,0.993,0.012,-0.004,-0.004,0.000,0.000,0.000,0.000,0.000,0,2,0,1,7,255,1440,250,0,0,-89.307,0.901,-31.577
EX0521-092111,29,C14,prep,2102,2102,0,1376624.093,0.686,-0.675,0.197,0.188,0,0,0,0,0,0,0,0,0,0.000,0,0,0.060,0.004,-0.040,-0.020,-0.040,0.015,0.993,0.012,0.000,-0.004,0.000,0.000,0.000,0.000,0.000,0,2,0,1,7,255,1440,250,0,0,-89.307,0.901,-31.577
EX0521-092111,29,C14,prep,2102,2102,0,1376629.091,0.686,-0.675,0.197,0.188,0,0,0,0,0,0,0,0,0,0.000,0,0,0.060,0.004,-0.040,-0.020,-0.040,0.014,0.994,0.012,0.000,-0.004,0.000,0.000,0.000,0.000,0.000,0,2,0,1,7,255,1440,250,0,0,-89.307,0.901,-31.577
EX0521-092111,29,C14,prep,2102,2102,0,1376634.091,0.686,-0.675,0.197,0.188,0,0,0,0,0,0,0,0,0,0.000,0,0,0.049,0.002,0.020,-0.020,-0.040,0.015,0.993,0.011,0.000,-0.002,0.000,0.000,0.000,0.000,0.000,0,2,0,1,7,255,1440,250,0,0,-89.307,0.901,-31.577
EX0521-092111,29,C14,prep,2102,2102,0,1376639.091,0.686,-0.675,0.197,0.188,0,0,0,0,0,0,0,0,0,0.000,0,0,0.049,0.008,-0.040,-0.020,0.020,0.016,0.994,0.011,0.008,-0.002,0.004,0.000,0.000,0.000,0.000,0,2,0,1,7,255,1440,250,0,0,-89.307,0.901,-31.577
EX0521-092111,29,C14,prep,2102,2102,0,1376644.091,0.686,-0.675,0.197,0.188,0,0,0,0,0,0,0,0,0,0.000,0,0,0.049,0.008,0.020,-0.020,-0.040,0.014,0.995,0.012,0.008,-0.002,0.004,0.000,0.000,0.000,0.000,0,2,0,1,7,255,1440,250,0,0,-89.307,0.901,-31.577
EX0521-092111,29,C14,prep,2131,2131,0,1376649.091,0.686,-0.675,0.197,0.188,0,0,0,0,0,0,0,0,0,0.000,0,0,0.049,0.002,-0.040,-0.020,0.020,0.014,0.994,0.011,-0.002,0.000,0.004,0.000,0.000,0.000,0.000,0,2,0,1,7,255,1440,250,0,0,-89.307,0.901,-31.577
EX0521-092111,29,C14,prep,2131,2131,0,1376654.092,0.686,-0.675,0.197,0.188,0,0,0,0,0,0,0,0,0,0.000,0,0,0.085,0.003,0.020,-0.080,0.020,0.015,0.994,0.012,-0.002,-0.002,0.004,0.000,0.000,0.000,0.000,0,2,0,1,7,255,1440,250,0,0,-89.307,0.901,-31.577
EX0521-092111,29,C14,prep,2131,2131,0,1376659.091,0.686,-0.675,0.197,0.188,0,0,0,0,0,0,0,0,0,0.000,0,0,0.035,0.006,0.020,-0.020,0.020,0.013,0.994,0.012,-0.004,0.004,0.004,0.000,0.000,0.000,0.000,0,2,0,1,7,255,1440,250,0,0,-89.307,0.901,-31.577
EX0521-092111,29,C14,prep,2131,2131,0,1376664.091,0.686,-0.675,0.197,0.188,0,0,0,0,0,0,0,0,0,0.000,0,0,0.035,0.002,0.020,-0.020,0.020,0.014,0.994,0.011,0.000,0.002,0.004,0.000,0.000,0.000,0.000,0,2,0,1,7,255,1440,250,0,0,-89.307,0.901,-31.577
EX0521-092111,29,C14,prep,2131,2131,0,1376669.091,0.686,-0.675,0.197,0.188,0,0,0,0,0,0,0,0,0,0.000,0,0,0.049,0.008,-0.040,-0.020,0.020,0.014,0.994,0.012,-0.008,0.002,0.008,0.000,0.000,0.000,0.000,0,2,0,1,7,255,1440,250,0,0,-89.307,0.901,-31.577
EX0521-092111,29,C14,prep,2131,2131,0,1376674.091,0.686,-0.675,0.197,0.188,0,0,0,0,0,0,0,0,0,0.000,0,0,0.049,0.003,0.020,-0.020,-0.040,0.014,0.993,0.012,-0.002,-0.002,0.008,0.000,0.000,0.000,0.000,0,2,0,1,7,255,1440,250,0,0,-89.307,0.901,-31.577
EX0521-092111,29,C14,prep,2135,2135,0,1376679.091,0.686,-0.675,0.197,0.188,0,0,0,0,0,0,0,0,0,0.000,0,0,0.085,0.003,0.020,-0.080,0.020,0.015,0.994,0.011,-0.002,-0.002,0.008,0.000,0.000,0.000,0.000,0,2,0,1,7,255,1440,250,0,0,-89.307,0.901,-31.577
EX0521-092111,29,C14,prep,2135,2135,0,1376684.091,0.686,-0.675,0.197,0.188,0,0,0,0,0,0,0,0,0,0.000,0,0,0.049,0.004,0.020,-0.020,-0.040,0.014,0.995,0.011,-0.002,0.004,0.008,0.000,0.000,0.000,0.000,0,2,0,1,7,255,1440,250,0,0,-89.307,0.901,-31.577
EX0521-092111,29,C14,prep,2164,2164,0,1376689.091,0.686,-0.675,0.197,0.188,0,0,0,0,0,0,0,0,0,0.000,0,0,0.049,0.004,-0.040,-0.020,0.020,0.015,0.994,0.012,0.002,0.004,0.008,0.000,0.000,0.000,0.000,0,2,0,1,7,255,1440,250,0,0,-89.307,0.901,-31.577
EX0521-092111,29,C14,prep,2164,2164,0,1376694.091,0.686,-0.675,0.197,0.188,0,0,0,0,0,0,0,0,0,0.000,0,0,0.049,0.002,0.020,-0.020,-0.040,0.015,0.993,0.011,0.002,0.000,0.004,0.000,0.000,0.000,0.000,0,2,0,1,7,255,1440,250,0,0,-89.307,0.901,-31.577
EX0521-092111,29,C14,prep,2165,2165,0,1376699.091,0.686,-0.675,0.197,0.188,0,0,0,0,0,0,0,0,0,0.000,0,0,0.092,0.006,0.020,-0.080,-0.040,0.015,0.993,0.012,0.004,-0.004,-0.002,0.000,0.000,0.000,0.000,0,2,0,1,7,255,1440,250,0,0,-89.307,0.901,-31.577
EX0521-092111,29,C14,prep,2165,2165,0,1376704.091,0.686,-0.675,0.197,0.188,0,0,0,0,0,0,0,0,0,0.000,0,0,0.060,0.006,-0.040,-0.020,-0.040,0.015,0.993,0.012,0.004,-0.004,-0.002,0.000,0.000,0.000,0.000,0,2,0,1,7,255,1440,250,0,0,-89.307,0.901,-31.577
EX0521-092111,29,C14,prep,2196,2196,0,1376709.091,0.686,-0.675,0.197,0.188,0,0,0,0,0,0,0,0,0,0.000,0,0,0.085,0.007,0.020,-0.080,0.020,0.015,0.994,0.011,0.006,-0.004,0.000,0.000,0.000,0.000,0.000,0,2,0,1,7,255,1440,250,0,0,-89.307,0.901,-31.577
EX0521-092111,29,C14,prep,2196,2196,0,1376714.092,0.686,-0.675,0.197,0.188,0,0,0,0,0,0,0,0,0,0.000,0,0,0.060,0.006,0.020,0.040,-0.040,0.015,0.994,0.012,0.004,-0.004,0.004,0.000,0.000,0.000,0.000,0,2,0,1,7,255,1440,250,0,0,-89.307,0.901,-31.577
EX0521-092111,29,C14,prep,2198,2198,0,1376719.092,0.686,-0.675,0.197,0.188,0,0,0,0,0,0,0,0,0,0.000,0,0,0.085,0.006,0.020,-0.020,0.080,0.015,0.994,0.012,0.004,-0.004,0.004,0.000,0.000,0.000,0.000,0,2,0,1,7,255,1440,250,0,0,-89.307,0.901,-31.577
EX0521-092111,29,C14,prep,2198,2198,0,1376724.093,0.686,-0.675,0.197,0.188,0,0,0,0,0,0,0,0,0,0.000,0,0,0.049,0.004,-0.040,-0.020,0.020,0.014,0.994,0.011,0.002,-0.004,0.004,0.000,0.000,0.000,0.000,0,2,0,1,7,255,1440,250,0,0,-89.307,0.901,-31.577
EX0521-092111,29,C14,prep,2198,2198,0,1376729.092,0.686,-0.675,0.197,0.188,0,0,0,0,0,0,0,0,0,0.000,0,0,0.035,0.002,0.020,-0.020,0.020,0.015,0.994,0.011,0.002,0.000,0.004,0.000,0.000,0.000,0.000,0,2,0,1,7,255,1440,250,0,0,-89.307,0.901,-31.577
EX0521-092111,29,C14,prep,2198,2198,0,1376734.091,0.686,-0.675,0.197,0.188,0,0,0,0,0,0,0,0,0,0.000,0,0,0.049,0.000,-0.040,-0.020,0.020,0.013,0.993,0.012,0.000,0.000,0.004,0.000,0.000,0.000,0.000,0,2,0,1,7,255,1440,250,0,0,-89.307,0.901,-31.577
EX0521-092111,29,C14,prep,2199,2199,0,1376739.091,0.686,-0.675,0.197,0.188,0,0,0,0,0,0,0,0,0,0.000,0,0,0.035,0.004,0.020,-0.020,0.020,0.015,0.993,0.011,0.004,0.000,-0.002,0.000,0.000,0.000,0.000,0,2,0,1,7,255,1440,250,0,0,-89.307,0.901,-31.577
EX0521-092111,29,C14,prep,2199,2199,0,1376744.091,0.686,-0.675,0.197,0.188,0,0,0,0,0,0,0,0,0,0.000,0,0,0.049,0.002,-0.040,-0.020,0.020,0.014,0.993,0.011,0.000,0.002,-0.002,0.000,0.000,0.000,0.000,0,2,0,1,7,255,1440,250,0,0,-89.307,0.901,-31.577
EX0521-092111,29,C14,prep,2228,2228,0,1376749.091,0.686,-0.675,0.197,0.188,0,0,0,0,0,0,0,0,0,0.000,0,0,0.035,0.002,0.020,-0.020,0.020,0.014,0.994,0.011,0.000,0.002,-0.002,0.000,0.000,0.000,0.000,0,2,0,1,7,255,1440,250,0,0,-89.307,0.901,-31.577
EX0521-092111,29,C14,prep,2228,2228,0,1376754.092,0.686,-0.675,0.197,0.188,0,0,0,0,0,0,0,0,0,0.000,0,0,0.085,0.002,0.020,-0.080,0.020,0.015,0.994,0.011,0.000,0.002,0.004,0.000,0.000,0.000,0.000,0,2,0,1,7,255,1440,250,0,0,-89.307,0.901,-31.577
EX0521-092111,29,C14,prep,2228,2228,0,1376759.092,0.686,-0.675,0.197,0.188,0,0,0,0,0,0,0,0,0,0.000,0,0,0.049,0.006,0.020,-0.020,-0.040,0.014,0.993,0.011,0.002,0.006,0.004,0.000,0.000,0.000,0.000,0,2,0,1,7,255,1440,250,0,0,-89.307,0.901,-31.577
EX0521-092111,29,C14,prep,2228,2228,0,1376764.093,0.686,-0.675,0.197,0.188,0,0,0,0,0,0,0,0,0,0.000,0,0,0.035,0.008,0.020,-0.020,0.020,0.016,0.992,0.010,0.008,0.002,-0.002,0.000,0.000,0.000,0.000,0,2,0,1,7,255,1440,250,0,0,-89.307,0.901,-31.577
EX0521-092111,29,C14,prep,2230,2230,0,1376769.091,0.686,-0.675,0.197,0.188,0,0,0,0,0,0,0,0,0,0.000,0,0,0.069,0.007,-0.040,0.040,-0.040,0.015,0.993,0.011,0.006,0.004,-0.002,0.000,0.000,0.000,0.000,0,2,0,1,7,255,1440,250,0,0,-89.307,0.901,-31.577
EX0521-092111,29,C14,prep,2230,2230,0,1376774.091,0.686,-0.675,0.197,0.188,0,0,0,0,0,0,0,0,0,0.000,0,0,0.060,0.007,-0.040,0.040,0.020,0.014,0.995,0.011,0.006,0.004,-0.002,0.000,0.000,0.000,0.000,0,2,0,1,7,255,1440,250,0,0,-89.307,0.901,-31.577
EX0521-092111,29,C14,prep,2246,2246,0,1376779.091,0.686,-0.675,0.197,0.188,0,0,0,0,0,0,0,0,0,0.000,0,0,0.060,0.004,-0.040,-0.020,-0.040,0.015,0.993,0.012,0.002,0.004,-0.002,0.000,0.000,0.000,0.000,0,2,0,1,7,255,1440,250,0,0,-89.307,0.901,-31.577
EX0521-092111,29,C14,prep,2246,2246,0,1376784.091,0.686,-0.675,0.197,0.188,0,0,0,0,0,0,0,0,0,0.000,0,0,0.035,0.002,0.020,-0.020,0.020,0.014,0.993,0.012,0.000,-0.002,-0.002,0.000,0.000,0.000,0.000,0,2,0,1,7,255,1440,250,0,0,-89.307,0.901,-31.577
EX0521-092111,29,C14,prep,2246,2246,0,1376789.092,0.686,-0.675,0.197,0.188,0,0,0,0,0,0,0,0,0,0.000,0,0,0.049,0.006,0.020,0.040,0.020,0.014,0.994,0.012,-0.002,-0.006,-0.002,0.000,0.000,0.000,0.000,0,2,0,1,7,255,1440,250,0,0,-89.307,0.901,-31.577
EX0521-092111,29,C14,prep,2246,2246,0,1376794.091,0.686,-0.675,0.197,0.188,0,0,0,0,0,0,0,0,0,0.000,0,0,0.060,0.003,0.020,0.040,-0.040,0.015,0.993,0.011,-0.002,-0.002,-0.002,0.000,0.000,0.000,0.000,0,2,0,1,7,255,1440,250,0,0,-89.307,0.901,-31.577
EX0521-092111,29,C14,prep,2279,2279,0,1376799.091,0.686,-0.675,0.197,0.188,0,0,0,0,0,0,0,0,0,0.000,0,0,0.092,0.000,0.020,-0.080,-0.040,0.014,0.994,0.011,0.000,0.000,0.004,0.000,0.000,0.000,0.000,0,2,0,1,7,255,1440,250,0,0,-89.307,0.901,-31.577
EX0521-092111,29,C14,prep,2279,2279,0,1376804.091,0.686,-0.675,0.197,0.188,0,0,0,0,0,0,0,0,0,0.000,0,0,0.035,0.000,0.020,-0.020,0.020,0.014,0.994,0.012,0.000,0.000,0.004,0.000,0.000,0.000,0.000,0,2,0,1,7,255,1440,250,0,0,-89.307,0.901,-31.577
EX0521-092111,29,C14,prep,2280,2280,0,1376809.092,0.686,-0.675,0.197,0.188,0,0,0,0,0,0,0,0,0,0.000,0,0,0.049,0.003,-0.040,-0.020,0.020,0.014,0.993,0.011,-0.002,0.002,0.004,0.000,0.000,0.000,0.000,0,2,0,1,7,255,1440,250,0,0,-89.307,0.901,-31.577
EX0521-092111,29,C14,prep,2280,2280,0,1376814.092,0.686,-0.675,0.197,0.188,0,0,0,0,0,0,0,0,0,0.000,0,0,0.049,0.006,-0.040,-0.020,0.020,0.014,0.995,0.011,-0.004,0.004,0.008,0.000,0.000,0.000,0.000,0,2,0,1,7,255,1440,250,0,0,-89.307,0.901,-31.577
EX0521-092111,29,C14,prep,2280,2280,0,1376819.092,0.686,-0.675,0.197,0.188,0,0,0,0,0,0,0,0,0,0.000,0,0,0.049,0.006,0.020,-0.020,-0.040,0.014,0.993,0.011,-0.004,0.004,-0.002,0.000,0.000,0.000,0.000,0,2,0,1,7,255,1440,250,0,0,-89.307,0.901,-31.577
EX0521-092111,29,C14,prep,2280,2280,0,1376824.093,0.686,-0.675,0.197,0.188,0,0,0,0,0,0,0,0,0,0.000,0,0,0.060,0.002,-0.040,-0.020,-0.040,0.015,0.993,0.012,0.000,0.002,-0.002,0.000,0.000,0.000,0.000,0,2,0,1,7,255,1440,250,0,0,-89.307,0.901,-31.577
EX0521-092111,29,C14,prep,2310,2310,0,1376829.092,0.686,-0.675,0.197,0.188,0,0,0,0,0,0,0,0,0,0.000,0,0,0.049,0.002,-0.040,-0.020,0.020,0.014,0.993,0.011,0.000,0.002,-0.002,0.000,0.000,0.000,0.000,0,2,0,1,7,255,1440,250,0,0,-89.307,0.901,-31.577
EX0521-092111,29,C14,prep,2310,2310,0,1376834.092,0.686,-0.675,0.197,0.188,0,0,0,0,0,0,0,0,0,0.000,0,0,0.060,0.006,-0.040,-0.020,-0.040,0.014,0.994,0.012,0.000,-0.006,-0.002,0.000,0.000,0.000,0.000,0,2,0,1,7,255,1440,250,0,0,-89.307,0.901,-31.577
EX0521-092111,29,C14,prep,2310,2310,0,1376839.092,0.686,-0.675,0.197,0.188,0,0,0,0,0,0,0,0,0,0.000,0,0,0.060,0.004,-0.040,-0.020,-0.040,0.014,0.994,0.012,-0.004,0.002,0.004,0.000,0.000,0.000,0.000,0,2,0,1,7,255,1440,250,0,0,-89.307,0.901,-31.577
EX0521-092111,29,C14,prep,2310,2310,0,1376844.092,0.686,-0.675,0.197,0.188,0,0,0,0,0,0,0,0,0,0.000,0,0,0.069,0.006,-0.040,0.040,-0.040,0.013,0.995,0.012,-0.006,0.000,0.008,0.000,0.000,0.000,0.000,0,2,0,1,7,255,1440,250,0,0,-89.307,0.901,-31.577
EX0521-092111,29,C14,prep,2310,2310,0,1376849.092,0.686,-0.675,0.197,0.188,0,0,0,0,0,0,0,0,0,0.000,0,0,0.069,0.006,-0.040,0.040,-0.040,0.014,0.993,0.011,-0.006,0.002,0.008,0.000,0.000,0.000,0.000,0,2,0,1,7,255,1440,250,0,0,-89.307,0.901,-31.577
EX0521-092111,29,C14,prep,2310,2310,0,1376854.092,0.686,-0.675,0.197,0.188,0,0,0,0,0,0,0,0,0,0.000,0,0,0.060,0.012,-0.040,0.040,0.020,0.013,0.994,0.012,-0.012,0.000,0.008,0.000,0.000,0.000,0.000,0,2,0,1,7,255,1440,250,0,0,-89.307,0.901,-31.577
EX0521-092111,29,C14,prep,2310,2310,0,1376859.092,0.686,-0.675,0.197,0.188,0,0,0,0,0,0,0,0,0,0.000,0,0,0.035,0.000,0.020,-0.020,0.020,0.015,0.994,0.012,0.000,0.000,0.004,0.000,0.000,0.000,0.000,0,2,0,1,7,255,1440,250,0,0,-89.307,0.901,-31.577
EX0521-092111,29,C14,prep,2310,2310,0,1376864.092,0.686,-0.675,0.197,0.188,0,0,0,0,0,0,0,0,0,0.000,0,0,0.049,0.002,0.020,-0.020,-0.040,0.016,0.994,0.010,0.002,0.000,0.004,0.000,0.000,0.000,0.000,0,2,0,1,7,255,1440,250,0,0,-89.307,0.901,-31.577
EX0521-092111,29,C14,prep,2326,2326,0,1376869.092,0.686,-0.675,0.197,0.188,0,0,0,0,0,0,0,0,0,0.000,0,0,0.049,0.003,-0.040,-0.020,0.020,0.014,0.994,0.011,0.002,0.002,0.004,0.000,0.000,0.000,0.000,0,2,0,1,7,255,1440,250,0,0,-89.307,0.901,-31.577
EX0521-092111,29,C14,prep,2326,2326,0,1376874.092,0.686,-0.675,0.197,0.188,0,0,0,0,0,0,0,0,0,0.000,0,0,0.049,0.002,-0.040,-0.020,0.020,0.014,0.994,0.011,0.000,0.002,0.002,0.000,0.000,0.000,0.000,0,2,0,1,7,255,1440,250,0,0,-89.307,0.901,-31.577
EX0521-092111,29,C14,prep,2342,2342,0,1376879.092,0.686,-0.675,0.197,0.188,0,0,0,0,0,0,0,0,0,0.000,0,0,0.092,0.002,-0.040,-0.080,0.020,0.014,0.994,0.012,0.000,0.002,0.002,0.000,0.000,0.000,0.000,0,2,0,1,7,255,1440,250,0,0,-89.307,0.901,-31.577
EX0521-092111,29,C14,prep,2342,2342,0,1376884.092,0.686,-0.675,0.197,0.188,0,0,0,0,0,0,0,0,0,0.000,0,0,0.049,0.002,0.020,-0.020,-0.040,0.015,0.993,0.012,0.000,-0.002,0.002,0.000,0.000,0.000,0.000,0,2,0,1,7,255,1440,250,0,0,-89.307,0.901,-31.577
EX0521-092111,29,C14,prep,2359,2359,0,1376889.092,0.686,-0.675,0.197,0.188,0,0,0,0,0,0,0,0,0,0.000,0,0,0.060,0.008,-0.040,-0.020,-0.040,0.015,0.993,0.012,0.000,-0.008,-0.002,0.000,0.000,0.000,0.000,0,2,0,1,7,255,1440,250,0,0,-89.307,0.901,-31.577
EX0521-092111,29,C14,prep,2359,2359,0,1376894.092,0.686,-0.675,0.197,0.188,0,0,0,0,0,0,0,0,0,0.000,0,0,0.049,0.008,0.020,-0.020,-0.040,0.014,0.994,0.012,0.000,-0.008,-0.002,0.000,0.000,0.000,0.000,0,2,0,1,7,255,1440,250,0,0,-89.307,0.901,-31.577
EX0521-092111,29,C14,prep,2398,2398,0,1376899.092,0.686,-0.675,0.197,0.188,0,0,0,0,0,0,0,0,0,0.000,0,0,0.060,0.006,-0.040,-0.020,-0.040,0.014,0.995,0.012,-0.002,-0.006,0.002,0.000,0.000,0.000,0.000,0,2,0,1,7,255,1440,250,0,0,-89.307,0.901,-31.577
EX0521-092111,29,C14,prep,2399,2399,0,1376904.092,0.686,-0.675,0.197,0.188,0,0,0,0,0,0,0,0,0,0.000,0,0,0.060,0.003,-0.040,-0.020,-0.040,0.015,0.994,0.011,-0.002,-0.002,0.002,0.000,0.000,0.000,0.000,0,2,0,1,7,255,1440,250,0,0,-89.307,0.901,-31.577
EX0521-092111,29,C14,prep,2400,2400,0,1376909.092,0.686,-0.675,0.197,0.188,0,0,0,0,0,0,0,0,0,0.000,0,0,0.060,0.003,-0.040,-0.020,-0.040,0.015,0.993,0.012,0.002,-0.002,0.002,0.000,0.000,0.000,0.000,0,2,0,1,7,255,1440,250,0,0,-89.307,0.901,-31.577
EX0521-092111,29,C14,prep,2400,2400,0,1376914.092,0.686,-0.675,0.197,0.188,0,0,0,0,0,0,0,0,0,0.000,0,0,0.060,0.004,-0.040,-0.020,-0.040,0.015,0.994,0.012,0.002,-0.004,0.002,0.000,0.000,0.000,0.000,0,2,0,1,7,255,1440,250,0,0,-89.307,0.901,-31.577
EX0521-092111,29,C14,prep,2401,2401,0,1376919.092,0.686,-0.675,0.197,0.188,0,0,0,0,0,0,0,0,0,0.000,0,0,0.060,0.004,-0.040,-0.020,-0.040,0.014,0.994,0.012,0.002,-0.004,0.008,0.000,0.000,0.000,0.000,0,2,0,1,7,255,1440,250,0,0,-89.307,0.901,-31.577
EX0521-092111,29,C14,prep,2401,2401,0,1376924.093,0.686,-0.675,0.197,0.188,0,0,0,0,0,0,0,0,0,0.000,0,0,0.060,0.002,-0.040,-0.020,-0.040,0.014,0.995,0.011,0.000,-0.002,0.008,0.000,0.000,0.000,0.000,0,2,0,1,7,255,1440,250,0,0,-89.307,0.901,-31.577
EX0521-092111,29,C14,prep,2401,2401,0,1376929.092,0.686,-0.675,0.197,0.188,0,0,0,0,0,0,0,0,0,0.000,0,0,0.035,0.003,0.020,-0.020,0.020,0.014,0.995,0.012,-0.002,-0.002,0.012,0.000,0.000,0.000,0.000,0,2,0,1,7,255,1440,250,0,0,-89.307,0.901,-31.577
EX0521-092111,29,C14,prep,2401,2401,0,1376934.092,0.686,-0.675,0.197,0.188,0,0,0,0,0,0,0,0,0,0.000,0,0,0.049,0.002,0.020,-0.020,-0.040,0.015,0.994,0.012,0.000,-0.002,0.012,0.000,0.000,0.000,0.000,0,2,0,1,7,255,1440,250,0,0,-89.307,0.901,-31.577
EX0521-092111,29,C14,prep,2401,2401,0,1376939.092,0.686,-0.675,0.197,0.188,0,0,0,0,0,0,0,0,0,0.000,0,0,0.035,0.002,0.020,-0.020,0.020,0.015,0.994,0.011,0.000,-0.002,0.008,0.000,0.000,0.000,0.000,0,2,0,1,7,255,1440,250,0,0,-89.307,0.901,-31.577
EX0521-092111,29,C14,prep,2401,2401,0,1376944.092,0.686,-0.675,0.197,0.188,0,0,0,0,0,0,0,0,0,0.000,0,0,0.049,0.002,-0.040,-0.020,0.020,0.014,0.994,0.012,0.000,0.002,0.006,0.000,0.000,0.000,0.000,0,2,0,1,7,255,1440,250,0,0,-89.307,0.901,-31.577
EX0521-092111,29,C14,prep,2402,2402,0,1376949.092,0.686,-0.675,0.197,0.188,0,0,0,0,0,0,0,0,0,0.000,0,0,0.134,0.006,-0.100,-0.080,-0.040,0.014,0.994,0.011,-0.004,0.004,0.002,0.000,0.000,0.000,0.000,0,2,0,1,7,255,1440,250,0,0,-89.307,0.901,-31.577
EX0521-092111,29,C14,prep,2402,2402,0,1376954.092,0.686,-0.675,0.197,0.188,0,0,0,0,0,0,0,0,0,0.000,0,0,0.049,0.004,0.020,0.040,0.020,0.015,0.994,0.011,-0.004,0.002,0.006,0.000,0.000,0.000,0.000,0,2,0,1,7,255,1440,250,0,0,-89.307,0.901,-31.577
EX0521-092111,29,C14,prep,2425,2425,0,1376959.092,0.686,-0.675,0.197,0.188,0,0,0,0,0,0,0,0,0,0.000,0,0,0.049,0.002,-0.040,-0.020,0.020,0.014,0.994,0.012,-0.002,0.000,0.002,0.000,0.000,0.000,0.000,0,2,0,1,7,255,1440,250,0,0,-89.307,0.901,-31.577
EX0521-092111,29,C14,prep,2425,2425,0,1376964.093,0.686,-0.675,0.197,0.188,0,0,0,0,0,0,0,0,0,0.000,0,0,0.049,0.002,-0.040,-0.020,0.020,0.013,0.994,0.011,-0.002,0.000,0.006,0.000,0.000,0.000,0.000,0,2,0,1,7,255,1440,250,0,0,-89.307,0.901,-31.577
