experiment_id,condition_order_index,condition_id,condition_phase,condition_phase_elapsed_ms,condition_elapsed_ms,is_stimulation_on,t_ms,R_q0,R_q1,R_q2,R_q3,R_heel1,R_mid1,R_fore1,R_heel2,R_fore3,R_mid2,R_fore4,R_fore2,R_cadence,R_speed,R_steps,R_zupt,R_gyroNorm,R_accH,R_gyro_x,R_gyro_y,R_gyro_z,R_acc_x,R_acc_y,R_acc_z,R_nav_ax,R_nav_ay,R_nav_az,R_stepVel,R_stepVelj,R_stepDispRaw,R_stepDispZUPT,R_gaitEvent,R_motorMode,R_motorActive,R_motorAlignment,R_motorRegionMask,R_motorAmplitude,R_motorIntervalMs,R_motorDurationMs,R_motorPhaseMs,R_motorCycleMs,R_roll,R_pitch,R_yaw
EX0521-092111,13,C08,prep,15,15,0,714499.092,0.685,-0.678,0.193,0.187,0,0,0,0,0,0,0,0,0,0.000,0,0,1.906,0.000,-1.720,-0.060,0.820,0.016,0.981,0.012,0.000,0.000,-0.048,0.000,0.000,0.000,0.000,0,2,0,1,7,255,1200,200,0,0,-89.602,0.602,-31.110
EX0521-092111,13,C08,prep,15,15,0,714504.091,0.685,-0.678,0.193,0.187,0,0,0,0,0,0,0,0,0,0.000,0,0,0.672,0.002,0.540,0.000,-0.400,0.012,1.014,0.007,0.002,0.000,-0.048,0.000,0.000,0.000,0.000,0,2,0,1,7,255,1200,200,0,0,-89.602,0.602,-31.110
EX0521-092111,13,C08,prep,16,16,0,714509.091,0.685,-0.678,0.193,0.187,0,0,0,0,0,0,0,0,0,0.000,0,0,0.457,0.037,0.400,0.000,-0.220,0.017,0.971,0.013,0.014,-0.034,-0.118,0.000,0.000,0.000,0.000,0,2,0,1,7,255,1200,200,0,0,-89.596,0.603,-31.110
EX0521-092111,13,C08,prep,16,16,0,714514.092,0.685,-0.678,0.193,0.187,0,0,0,0,0,0,0,0,0,0.000,0,0,2.438,0.026,-2.220,-0.120,1.000,0.012,1.013,0.006,0.004,0.026,0.192,0.000,0.000,0.000,0.000,0,2,0,1,7,255,1200,200,0,0,-89.585,0.608,-31.110
EX0521-092111,13,C08,prep,84,84,0,714519.092,0.685,-0.678,0.193,0.187,0,0,0,0,0,0,0,0,0,0.000,0,0,3.901,0.016,3.520,0.060,-1.680,0.015,0.986,0.010,0.008,-0.014,-0.070,0.000,0.000,0.000,0.000,0,2,0,1,7,255,1200,200,0,0,-89.603,0.600,-31.110
EX0521-092111,13,C08,prep,84,84,0,714524.092,0.685,-0.678,0.193,0.187,0,0,0,0,0,0,0,0,0,0.000,0,0,4.665,0.009,-4.220,-0.180,1.980,0.014,0.991,0.010,0.004,-0.008,-0.024,0.000,0.000,0.000,0.000,0,2,0,1,7,255,1200,200,0,0,-89.582,0.610,-31.110
EX0521-092111,13,C08,prep,84,84,0,714529.092,0.685,-0.678,0.193,0.187,0,0,0,0,0,0,0,0,0,0.000,0,0,5.297,0.009,4.800,0.060,-2.240,0.011,1.009,0.006,0.004,-0.008,-0.024,0.000,0.000,0.000,0.000,0,2,0,1,7,255,1200,200,0,0,-89.606,0.599,-31.110
EX0521-092111,13,C08,prep,84,84,0,714534.092,0.685,-0.678,0.193,0.187,0,0,0,0,0,0,0,0,0,0.000,0,0,4.479,0.008,-4.100,-0.120,1.800,0.016,0.974,0.014,0.002,-0.008,-0.024,0.000,0.000,0.000,0.000,0,2,0,1,7,255,1200,200,0,0,-89.583,0.608,-31.110
EX0521-092111,13,C08,prep,84,84,0,714539.091,0.685,-0.678,0.193,0.187,0,0,0,0,0,0,0,0,0,0.000,0,0,3.339,0.042,3.040,0.000,-1.380,0.011,1.015,0.004,0.002,0.042,0.154,0.000,0.000,0.000,0.000,0,2,0,1,7,255,1200,200,0,0,-89.599,0.601,-31.110
EX0521-092111,13,C08,prep,84,84,0,714544.092,0.685,-0.678,0.193,0.187,0,0,0,0,0,0,0,0,0,0.000,0,0,1.591,0.044,-1.480,-0.060,0.580,0.015,0.976,0.014,0.002,-0.044,-0.172,0.000,0.000,0.000,0.000,0,2,0,1,7,255,1200,200,0,0,-89.589,0.602,-31.110
EX0521-092111,13,C08,prep,101,101,0,714549.092,0.685,-0.678,0.193,0.187,0,0,0,0,0,0,0,0,0,0.000,0,0,0.450,0.015,-0.320,-0.180,0.260,0.013,1.003,0.008,0.006,0.014,0.090,0.000,0.000,0.000,0.000,0,2,0,1,7,255,1200,200,0,0,-89.589,0.602,-31.110
EX0521-092111,13,C08,prep,101,101,0,714554.091,0.685,-0.678,0.193,0.187,0,0,0,0,0,0,0,0,0,0.000,0,0,2.436,0.007,2.180,0.120,-1.080,0.014,0.992,0.009,0.006,0.004,-0.014,0.000,0.000,0.000,0.000,0,2,0,1,7,255,1200,200,0,0,-89.600,0.596,-31.110
EX0521-092111,13,C08,prep,101,101,0,714559.095,0.685,-0.678,0.193,0.187,0,0,0,0,0,0,0,0,0,0.000,0,0,3.593,0.007,-3.260,-0.300,1.480,0.014,0.992,0.010,0.006,0.004,-0.014,0.000,0.000,0.000,0.000,0,2,0,1,7,255,1200,200,0,0,-89.584,0.604,-31.110
EX0521-092111,13,C08,prep,101,101,0,714564.092,0.685,-0.678,0.193,0.187,0,0,0,0,0,0,0,0,0,0.000,0,0,3.852,0.004,3.520,0.120,-1.560,0.012,0.996,0.010,0.004,-0.002,-0.014,0.000,0.000,0.000,0.000,0,2,0,1,7,255,1200,200,0,0,-89.602,0.596,-31.110
EX0521-092111,13,C08,prep,101,101,0,714569.091,0.685,-0.678,0.193,0.187,0,0,0,0,0,0,0,0,0,0.000,0,0,2.122,0.004,-1.980,-0.060,0.760,0.014,0.992,0.006,0.004,-0.002,-0.020,0.000,0.000,0.000,0.000,0,2,0,1,7,255,1200,200,0,0,-89.592,0.600,-31.110
EX0521-092111,13,C08,prep,101,101,0,714574.092,0.685,-0.678,0.193,0.187,0,0,0,0,0,0,0,0,0,0.000,0,0,0.714,0.012,-0.620,-0.240,0.260,0.012,1.000,0.013,-0.012,-0.002,0.024,0.000,0.000,0.000,0.000,0,2,0,1,7,255,1200,200,0,0,-89.584,0.600,-31.110
EX0521-092111,13,C08,prep,101,101,0,714579.092,0.685,-0.678,0.192,0.187,0,0,0,0,0,0,0,0,0,0.000,0,0,2.855,0.021,2.660,0.180,-1.020,0.015,0.982,0.010,0.014,-0.016,-0.020,0.000,0.000,0.000,0.000,0,2,0,1,7,255,1200,200,0,0,-89.597,0.595,-31.110
EX0521-092111,13,C08,prep,101,101,0,714584.091,0.685,-0.678,0.193,0.187,0,0,0,0,0,0,0,0,0,0.000,0,0,2.178,0.020,-2.040,-0.060,0.760,0.010,1.013,0.002,0.012,-0.016,0.062,0.000,0.000,0.000,0.000,0,2,0,1,7,255,1200,200,0,0,-89.587,0.598,-31.110
EX0521-092111,13,C08,prep,101,101,0,714589.092,0.685,-0.678,0.192,0.187,0,0,0,0,0,0,0,0,0,0.000,0,0,0.661,0.020,-0.620,-0.180,0.140,0.013,0.980,0.019,0.012,-0.016,-0.116,0.000,0.000,0.000,0.000,0,2,0,1,7,255,1200,200,0,0,-89.573,0.598,-31.110
EX0521-092111,13,C08,prep,101,101,0,714594.092,0.685,-0.678,0.192,0.187,0,0,0,0,0,0,0,0,0,0.000,0,0,1.806,0.021,1.760,0.060,-0.400,0.013,0.993,0.008,0.010,0.018,-0.004,0.000,0.000,0.000,0.000,0,2,0,1,7,255,1200,200,0,0,-89.582,0.598,-31.110
EX0521-092111,13,C08,prep,111,111,0,714599.092,0.685,-0.678,0.193,0.187,0,0,0,0,0,0,0,0,0,0.000,0,0,0.492,0.021,0.280,0.060,-0.400,0.012,1.008,0.001,0.010,0.018,-0.004,0.000,0.000,0.000,0.000,0,2,0,1,7,255,1200,200,0,0,-89.588,0.598,-31.110
EX0521-092111,13,C08,prep,111,111,0,714604.092,0.685,-0.678,0.193,0.187,0,0,0,0,0,0,0,0,0,0.000,0,0,3.757,0.021,-3.500,-0.120,1.360,0.016,0.979,0.016,0.010,0.018,-0.004,0.000,0.000,0.000,0.000,0,2,0,1,7,255,1200,200,0,0,-89.567,0.606,-31.110
EX0521-092111,13,C08,prep,135,135,0,714609.092,0.685,-0.678,0.193,0.187,0,0,0,0,0,0,0,0,0,0.000,0,0,3.209,0.006,3.040,-0.120,-1.020,0.012,1.003,0.011,-0.006,0.002,0.094,0.000,0.000,0.000,0.000,0,2,0,1,7,255,1200,200,0,0,-89.583,0.601,-31.110
EX0521-092111,13,C08,prep,135,135,0,714614.091,0.685,-0.678,0.193,0.187,0,0,0,0,0,0,0,0,0,0.000,0,0,1.040,0.006,0.960,0.000,-0.400,0.014,0.994,0.005,-0.006,0.002,0.004,0.000,0.000,0.000,0.000,0,2,0,1,7,255,1200,200,0,0,-89.587,0.601,-31.110
EX0521-092111,13,C08,prep,136,136,0,714619.092,0.685,-0.678,0.193,0.187,0,0,0,0,0,0,0,0,0,0.000,0,0,3.831,0.018,-3.620,-0.180,1.240,0.014,0.998,0.008,0.012,0.014,0.042,0.000,0.000,0.000,0.000,0,2,0,1,7,255,1200,200,0,0,-89.569,0.607,-31.110
EX0521-092111,13,C08,prep,136,136,0,714624.092,0.685,-0.678,0.193,0.187,0,0,0,0,0,0,0,0,0,0.000,0,0,2.281,0.018,2.120,0.060,-0.840,0.015,0.987,0.014,0.012,0.014,0.004,0.000,0.000,0.000,0.000,0,2,0,1,7,255,1200,200,0,0,-89.578,0.603,-31.110
EX0521-092111,13,C08,prep,136,136,0,714629.091,0.685,-0.678,0.193,0.187,0,0,0,0,0,0,0,0,0,0.000,0,0,0.418,0.018,0.400,-0.120,0.020,0.014,0.995,0.006,0.012,0.014,0.012,0.000,0.000,0.000,0.000,0,2,0,1,7,255,1200,200,0,0,-89.578,0.603,-31.110
EX0521-092111,13,C08,prep,136,136,0,714634.092,0.685,-0.678,0.193,0.187,0,0,0,0,0,0,0,0,0,0.000,0,0,0.651,0.011,-0.620,-0.180,0.080,0.013,1.003,0.009,0.004,0.010,0.012,0.000,0.000,0.000,0.000,0,2,0,1,7,255,1200,200,0,0,-89.575,0.603,-31.110
EX0521-092111,13,C08,prep,159,159,0,714639.092,0.685,-0.678,0.192,0.187,0,0,0,0,0,0,0,0,0,0.000,0,0,0.405,0.011,-0.380,0.000,0.140,0.015,0.982,0.015,0.004,0.010,0.012,0.000,0.000,0.000,0.000,0,2,0,1,7,255,1200,200,0,0,-89.568,0.603,-31.110
EX0521-092111,13,C08,prep,159,159,0,714644.091,0.685,-0.678,0.193,0.187,0,0,0,0,0,0,0,0,0,0.000,0,0,0.698,0.011,0.660,0.060,-0.220,0.013,1.002,0.005,0.004,0.010,0.080,0.000,0.000,0.000,0.000,0,2,0,1,7,255,1200,200,0,0,-89.572,0.603,-31.110
EX0521-092111,13,C08,prep,177,177,0,714649.092,0.685,-0.678,0.192,0.187,0,0,0,0,0,0,0,0,0,0.000,0,0,0.694,0.022,-0.680,0.000,0.140,0.015,0.992,0.008,0.020,0.008,-0.016,0.000,0.000,0.000,0.000,0,2,0,1,7,255,1200,200,0,0,-89.568,0.603,-31.110
EX0521-092111,13,C08,prep,177,177,0,714654.092,0.685,-0.678,0.192,0.187,0,0,0,0,0,0,0,0,0,0.000,0,0,1.205,0.022,-1.120,-0.060,0.440,0.014,0.991,0.012,0.020,0.008,-0.016,0.000,0.000,0.000,0.000,0,2,0,1,7,255,1200,200,0,0,-89.563,0.603,-31.110
EX0521-092111,13,C08,prep,178,178,0,714659.094,0.685,-0.678,0.192,0.187,0,0,0,0,0,0,0,0,0,0.000,0,0,2.303,0.008,2.120,0.000,-0.900,0.013,0.997,0.009,0.002,0.008,-0.016,0.000,0.000,0.000,0.000,0,2,0,1,7,255,1200,200,0,0,-89.573,0.598,-31.110
EX0521-092111,13,C08,prep,178,178,0,714664.092,0.685,-0.678,0.192,0.187,0,0,0,0,0,0,0,0,0,0.000,0,0,1.009,0.012,-0.940,-0.180,0.320,0.014,0.995,0.006,0.002,0.012,0.008,0.000,0.000,0.000,0.000,0,2,0,1,7,255,1200,200,0,0,-89.569,0.598,-31.110
EX0521-092111,13,C08,prep,178,178,0,714669.092,0.685,-0.678,0.192,0.187,0,0,0,0,0,0,0,0,0,0.000,0,0,0.463,0.013,-0.440,-0.120,0.080,0.014,0.995,0.011,0.004,0.012,0.008,0.000,0.000,0.000,0.000,0,2,0,1,7,255,1200,200,0,0,-89.569,0.598,-31.110
EX0521-092111,13,C08,prep,178,178,0,714674.091,0.685,-0.678,0.192,0.187,0,0,0,0,0,0,0,0,0,0.000,0,0,0.964,0.004,0.900,0.060,-0.340,0.014,0.989,0.010,0.004,-0.002,0.008,0.000,0.000,0.000,0.000,0,2,0,1,7,255,1200,200,0,0,-89.573,0.598,-31.110
EX0521-092111,13,C08,prep,223,223,0,714679.092,0.685,-0.678,0.192,0.187,0,0,0,0,0,0,0,0,0,0.000,0,0,0.330,0.004,-0.320,0.000,0.080,0.013,1.000,0.006,0.004,-0.002,0.008,0.000,0.000,0.000,0.000,0,2,0,1,7,255,1200,200,0,0,-89.573,0.598,-31.110
EX0521-092111,13,C08,prep,223,223,0,714684.092,0.685,-0.678,0.192,0.187,0,0,0,0,0,0,0,0,0,0.000,0,0,0.795,0.004,-0.760,-0.120,0.200,0.014,0.990,0.012,0.004,-0.002,-0.040,0.000,0.000,0.000,0.000,0,2,0,1,7,255,1200,200,0,0,-89.570,0.598,-31.110
EX0521-092111,13,C08,prep,223,223,0,714689.091,0.685,-0.678,0.192,0.187,0,0,0,0,0,0,0,0,0,0.000,0,0,0.813,0.007,0.780,-0.060,-0.220,0.014,0.994,0.009,0.006,0.004,-0.002,0.000,0.000,0.000,0.000,0,2,0,1,7,255,1200,200,0,0,-89.574,0.598,-31.110
EX0521-092111,13,C08,prep,223,223,0,714694.092,0.685,-0.678,0.192,0.187,0,0,0,0,0,0,0,0,0,0.000,0,0,0.914,0.007,0.840,-0.120,-0.340,0.013,0.999,0.006,0.006,0.004,-0.002,0.000,0.000,0.000,0.000,0,2,0,1,7,255,1200,200,0,0,-89.578,0.598,-31.110
EX0521-092111,13,C08,prep,223,223,0,714699.092,0.685,-0.678,0.192,0.187,0,0,0,0,0,0,0,0,0,0.000,0,0,1.245,0.007,-1.180,-0.120,0.380,0.014,0.993,0.011,0.006,0.004,-0.002,0.000,0.000,0.000,0.000,0,2,0,1,7,255,1200,200,0,0,-89.572,0.598,-31.110
EX0521-092111,13,C08,prep,223,223,0,714704.091,0.685,-0.678,0.192,0.187,0,0,0,0,0,0,0,0,0,0.000,0,0,0.642,0.008,0.600,0.060,-0.220,0.013,0.994,0.011,-0.002,-0.008,0.004,0.000,0.000,0.000,0.000,0,2,0,1,7,255,1200,200,0,0,-89.575,0.598,-31.110
EX0521-092111,13,C08,prep,223,223,0,714709.092,0.685,-0.678,0.192,0.187,0,0,0,0,0,0,0,0,0,0.000,0,0,0.662,0.008,0.600,0.000,-0.280,0.014,0.995,0.006,-0.002,-0.008,0.004,0.000,0.000,0.000,0.000,0,2,0,1,7,255,1200,200,0,0,-89.578,0.598,-31.110
EX0521-092111,13,C08,prep,223,223,0,714714.092,0.685,-0.678,0.192,0.187,0,0,0,0,0,0,0,0,0,0.000,0,0,1.109,0.006,-1.060,-0.060,0.320,0.013,0.995,0.009,0.002,0.006,0.008,0.000,0.000,0.000,0.000,0,2,0,1,7,255,1200,200,0,0,-89.573,0.598,-31.110
EX0521-092111,13,C08,prep,239,239,0,714719.091,0.685,-0.678,0.192,0.187,0,0,0,0,0,0,0,0,0,0.000,0,0,0.531,0.006,0.480,-0.060,-0.220,0.014,0.990,0.012,0.002,0.006,0.008,0.000,0.000,0.000,0.000,0,2,0,1,7,255,1200,200,0,0,-89.573,0.598,-31.110
EX0521-092111,13,C08,prep,239,239,0,714724.091,0.685,-0.678,0.192,0.187,0,0,0,0,0,0,0,0,0,0.000,0,0,0.642,0.006,0.600,-0.060,-0.220,0.013,0.996,0.007,0.002,0.006,0.008,0.000,0.000,0.000,0.000,0,2,0,1,7,255,1200,200,0,0,-89.576,0.598,-31.110
EX0521-092111,13,C08,prep,239,239,0,714729.092,0.685,-0.678,0.192,0.187,0,0,0,0,0,0,0,0,0,0.000,0,0,0.523,0.016,-0.500,-0.060,0.140,0.013,0.997,0.008,0.002,0.016,0.018,0.000,0.000,0.000,0.000,0,2,0,1,7,255,1200,200,0,0,-89.576,0.598,-31.110
EX0521-092111,13,C08,prep,239,239,0,714734.091,0.685,-0.678,0.192,0.187,0,0,0,0,0,0,0,0,0,0.000,0,0,0.354,0.016,-0.320,-0.060,0.140,0.014,0.989,0.011,0.002,0.016,0.018,0.000,0.000,0.000,0.000,0,2,0,1,7,255,1200,200,0,0,-89.576,0.598,-31.110
EX0521-092111,13,C08,prep,255,255,0,714739.091,0.685,-0.678,0.192,0.187,0,0,0,0,0,0,0,0,0,0.000,0,0,0.717,0.004,0.660,0.000,-0.280,0.013,0.997,0.009,0.002,0.004,0.026,0.000,0.000,0.000,0.000,0,2,0,1,7,255,1200,200,0,0,-89.580,0.598,-31.110
EX0521-092111,13,C08,prep,255,255,0,714744.092,0.685,-0.678,0.192,0.187,0,0,0,0,0,0,0,0,0,0.000,0,0,0.477,0.004,-0.440,-0.120,0.140,0.014,0.995,0.008,0.002,0.004,0.012,0.000,0.000,0.000,0.000,0,2,0,1,7,255,1200,200,0,0,-89.580,0.598,-31.110
EX0521-092111,13,C08,prep,287,287,0,714749.091,0.685,-0.678,0.192,0.187,0,0,0,0,0,0,0,0,0,0.000,0,0,0.477,0.004,-0.440,-0.120,0.140,0.014,0.992,0.011,0.002,0.004,0.012,0.000,0.000,0.000,0.000,0,2,0,1,7,255,1200,200,0,0,-89.580,0.598,-31.110
EX0521-092111,13,C08,prep,287,287,0,714754.091,0.685,-0.678,0.192,0.187,0,0,0,0,0,0,0,0,0,0.000,0,0,1.018,0.009,0.960,0.000,-0.340,0.013,0.995,0.009,0.004,0.008,0.012,0.000,0.000,0.000,0.000,0,2,0,1,7,255,1200,200,0,0,-89.585,0.598,-31.110
EX0521-092111,13,C08,prep,287,287,0,714759.095,0.685,-0.678,0.192,0.187,0,0,0,0,0,0,0,0,0,0.000,0,0,0.247,0.009,-0.200,-0.120,0.080,0.013,0.995,0.008,0.004,0.008,0.012,0.000,0.000,0.000,0.000,0,2,0,1,7,255,1200,200,0,0,-89.585,0.598,-31.110
EX0521-092111,13,C08,prep,287,287,0,714764.091,0.685,-0.678,0.192,0.187,0,0,0,0,0,0,0,0,0,0.000,0,0,0.654,0.009,-0.620,-0.060,0.200,0.014,0.994,0.010,0.004,0.008,0.012,0.000,0.000,0.000,0.000,0,2,0,1,7,255,1200,200,0,0,-89.581,0.598,-31.110
EX0521-092111,13,C08,prep,287,287,0,714769.091,0.685,-0.678,0.192,0.187,0,0,0,0,0,0,0,0,0,0.000,0,0,0.457,0.006,0.400,0.000,-0.220,0.014,0.993,0.009,0.006,0.002,-0.002,0.000,0.000,0.000,0.000,0,2,0,1,7,255,1200,200,0,0,-89.582,0.598,-31.110
EX0521-092111,13,C08,prep,287,287,0,714774.092,0.685,-0.678,0.192,0.187,0,0,0,0,0,0,0,0,0,0.000,0,0,0.082,0.006,-0.080,0.000,0.020,0.014,0.997,0.007,0.006,0.002,-0.002,0.000,0.000,0.000,0.000,0,2,0,1,7,255,1200,200,0,0,-89.582,0.598,-31.110
EX0521-092111,13,C08,prep,309,309,0,714779.092,0.685,-0.678,0.192,0.187,0,0,0,0,0,0,0,0,0,0.000,0,0,0.580,0.010,-0.560,-0.060,0.140,0.014,0.992,0.009,0.008,0.006,-0.006,0.000,0.000,0.000,0.000,0,2,0,1,7,255,1200,200,0,0,-89.582,0.598,-31.110
EX0521-092111,13,C08,prep,309,309,0,714784.091,0.685,-0.678,0.192,0.187,0,0,0,0,0,0,0,0,0,0.000,0,0,0.502,0.010,0.460,-0.120,-0.160,0.014,0.993,0.009,0.008,0.006,-0.006,0.000,0.000,0.000,0.000,0,2,0,1,7,255,1200,200,0,0,-89.582,0.598,-31.110
EX0521-092111,13,C08,prep,310,310,0,714789.092,0.685,-0.678,0.192,0.187,0,0,0,0,0,0,0,0,0,0.000,0,0,0.381,0.010,0.340,-0.060,-0.160,0.013,0.996,0.008,0.008,0.006,-0.006,0.000,0.000,0.000,0.000,0,2,0,1,7,255,1200,200,0,0,-89.582,0.598,-31.110
EX0521-092111,13,C08,prep,310,310,0,714794.092,0.685,-0.678,0.192,0.187,0,0,0,0,0,0,0,0,0,0.000,0,0,0.647,0.004,-0.620,-0.120,0.140,0.014,0.994,0.010,0.004,-0.002,0.002,0.000,0.000,0.000,0.000,0,2,0,1,7,255,1200,200,0,0,-89.579,0.598,-31.110
EX0521-092111,13,C08,prep,311,311,0,714799.092,0.685,-0.678,0.192,0.187,0,0,0,0,0,0,0,0,0,0.000,0,0,0.082,0.006,0.040,-0.060,-0.040,0.014,0.993,0.011,0.000,-0.006,0.002,0.000,0.000,0.000,0.000,0,2,0,1,7,255,1200,200,0,0,-89.579,0.598,-31.110
EX0521-092111,13,C08,prep,311,311,0,714804.092,0.685,-0.678,0.192,0.187,0,0,0,0,0,0,0,0,0,0.000,0,0,0.322,0.006,0.280,0.000,-0.160,0.015,0.995,0.008,0.000,-0.006,0.002,0.000,0.000,0.000,0.000,0,2,0,1,7,255,1200,200,0,0,-89.579,0.598,-31.110
EX0521-092111,13,C08,prep,319,319,0,714809.092,0.685,-0.678,0.192,0.187,0,0,0,0,0,0,0,0,0,0.000,0,0,0.533,0.004,-0.500,-0.120,0.140,0.013,0.994,0.009,-0.002,0.004,0.002,0.000,0.000,0.000,0.000,0,2,0,1,7,255,1200,200,0,0,-89.579,0.598,-31.110
EX0521-092111,13,C08,prep,319,319,0,714814.091,0.685,-0.678,0.192,0.187,0,0,0,0,0,0,0,0,0,0.000,0,0,0.175,0.006,0.160,-0.060,-0.040,0.014,0.991,0.010,0.004,0.004,0.002,0.000,0.000,0.000,0.000,0,2,0,1,7,255,1200,200,0,0,-89.579,0.598,-31.110
EX0521-092111,13,C08,prep,342,342,0,714819.092,0.685,-0.678,0.192,0.187,0,0,0,0,0,0,0,0,0,0.000,0,0,0.642,0.004,0.600,-0.060,-0.220,0.014,0.995,0.009,0.004,0.002,0.002,0.000,0.000,0.000,0.000,0,2,0,1,7,255,1200,200,0,0,-89.582,0.598,-31.110
EX0521-092111,13,C08,prep,342,342,0,714824.092,0.685,-0.678,0.192,0.187,0,0,0,0,0,0,0,0,0,0.000,0,0,0.287,0.006,-0.260,-0.120,0.020,0.014,0.995,0.009,0.006,0.002,0.008,0.000,0.000,0.000,0.000,0,2,0,1,7,255,1200,200,0,0,-89.582,0.598,-31.110
EX0521-092111,13,C08,prep,344,344,0,714829.091,0.685,-0.678,0.192,0.187,0,0,0,0,0,0,0,0,0,0.000,0,0,0.210,0.006,-0.200,-0.060,0.020,0.014,0.993,0.010,0.006,0.002,0.008,0.000,0.000,0.000,0.000,0,2,0,1,7,255,1200,200,0,0,-89.582,0.598,-31.110
EX0521-092111,13,C08,prep,344,344,0,714834.092,0.685,-0.678,0.192,0.187,0,0,0,0,0,0,0,0,0,0.000,0,0,0.431,0.004,0.400,0.000,-0.160,0.013,0.994,0.009,0.002,0.004,-0.002,0.000,0.000,0.000,0.000,0,2,0,1,7,255,1200,200,0,0,-89.582,0.598,-31.110
EX0521-092111,13,C08,prep,351,351,0,714839.092,0.685,-0.678,0.192,0.187,0,0,0,0,0,0,0,0,0,0.000,0,0,0.210,0.004,-0.200,-0.060,0.020,0.014,0.995,0.008,0.002,0.004,-0.002,0.000,0.000,0.000,0.000,0,2,0,1,7,255,1200,200,0,0,-89.582,0.598,-31.110
EX0521-092111,13,C08,prep,351,351,0,714844.091,0.685,-0.678,0.192,0.187,0,0,0,0,0,0,0,0,0,0.000,0,0,0.210,0.004,-0.200,-0.060,0.020,0.013,0.991,0.010,0.000,0.004,-0.002,0.000,0.000,0.000,0.000,0,2,0,1,7,255,1200,200,0,0,-89.582,0.598,-31.110
EX0521-092111,13,C08,prep,399,399,0,714849.092,0.685,-0.678,0.192,0.187,0,0,0,0,0,0,0,0,0,0.000,0,0,0.491,0.006,0.460,-0.060,-0.160,0.012,0.994,0.010,-0.004,0.004,-0.002,0.000,0.000,0.000,0.000,0,2,0,1,7,255,1200,200,0,0,-89.582,0.598,-31.110
EX0521-092111,13,C08,prep,399,399,0,714854.092,0.685,-0.678,0.192,0.187,0,0,0,0,0,0,0,0,0,0.000,0,0,0.066,0.006,-0.020,-0.060,0.020,0.013,0.995,0.009,-0.004,0.004,-0.002,0.000,0.000,0.000,0.000,0,2,0,1,7,255,1200,200,0,0,-89.582,0.598,-31.110
EX0521-092111,13,C08,prep,399,399,0,714859.095,0.685,-0.678,0.192,0.187,0,0,0,0,0,0,0,0,0,0.000,0,0,0.393,0.004,-0.380,-0.060,0.080,0.014,0.993,0.010,0.002,0.004,-0.002,0.000,0.000,0.000,0.000,0,2,0,1,7,255,1200,200,0,0,-89.582,0.598,-31.110
EX0521-092111,13,C08,prep,399,399,0,714864.092,0.685,-0.678,0.192,0.187,0,0,0,0,0,0,0,0,0,0.000,0,0,0.279,0.006,0.220,-0.060,-0.160,0.013,0.993,0.009,0.002,0.006,-0.006,0.000,0.000,0.000,0.000,0,2,0,1,7,255,1200,200,0,0,-89.583,0.598,-31.110
EX0521-092111,13,C08,prep,399,399,0,714869.092,0.685,-0.678,0.192,0.187,0,0,0,0,0,0,0,0,0,0.000,0,0,0.075,0.004,0.040,-0.060,0.020,0.013,0.996,0.010,-0.004,-0.002,-0.006,0.000,0.000,0.000,0.000,0,2,0,1,7,255,1200,200,0,0,-89.583,0.598,-31.110
EX0521-092111,13,C08,prep,399,399,0,714874.091,0.685,-0.678,0.192,0.187,0,0,0,0,0,0,0,0,0,0.000,0,0,0.335,0.004,-0.320,-0.060,0.080,0.014,0.994,0.009,-0.004,0.002,-0.002,0.000,0.000,0.000,0.000,0,2,0,1,7,255,1200,200,0,0,-89.583,0.598,-31.110
EX0521-092111,13,C08,prep,399,399,0,714879.092,0.685,-0.678,0.192,0.187,0,0,0,0,0,0,0,0,0,0.000,0,0,0.321,0.006,0.280,-0.120,-0.100,0.014,0.994,0.010,0.006,-0.002,-0.002,0.000,0.000,0.000,0.000,0,2,0,1,7,255,1200,200,0,0,-89.583,0.598,-31.110
EX0521-092111,13,C08,prep,399,399,0,714884.092,0.685,-0.678,0.192,0.187,0,0,0,0,0,0,0,0,0,0.000,0,0,0.249,0.006,0.220,-0.060,-0.100,0.013,0.995,0.009,0.006,0.002,-0.002,0.000,0.000,0.000,0.000,0,2,0,1,7,255,1200,200,0,0,-89.583,0.598,-31.110
EX0521-092111,13,C08,prep,400,400,0,714889.091,0.685,-0.678,0.192,0.187,0,0,0,0,0,0,0,0,0,0.000,0,0,0.393,0.003,-0.380,-0.060,0.080,0.013,0.994,0.010,-0.002,0.002,-0.002,0.000,0.000,0.000,0.000,0,2,0,1,7,255,1200,200,0,0,-89.583,0.598,-31.110
EX0521-092111,13,C08,prep,400,400,0,714894.092,0.685,-0.678,0.192,0.187,0,0,0,0,0,0,0,0,0,0.000,0,0,0.075,0.006,-0.020,-0.060,-0.040,0.013,0.993,0.010,-0.006,0.002,-0.002,0.000,0.000,0.000,0.000,0,2,0,1,7,255,1200,200,0,0,-89.583,0.598,-31.110
EX0521-092111,13,C08,prep,415,415,0,714899.092,0.685,-0.678,0.192,0.187,0,0,0,0,0,0,0,0,0,0.000,0,0,0.165,0.006,0.160,0.000,-0.040,0.014,0.995,0.009,-0.006,0.002,-0.002,0.000,0.000,0.000,0.000,0,2,0,1,7,255,1200,200,0,0,-89.583,0.598,-31.110
EX0521-092111,13,C08,prep,415,415,0,714904.091,0.685,-0.678,0.192,0.187,0,0,0,0,0,0,0,0,0,0.000,0,0,0.224,0.004,-0.200,-0.060,0.080,0.014,0.994,0.009,0.004,0.000,-0.002,0.000,0.000,0.000,0.000,0,2,0,1,7,255,1200,200,0,0,-89.583,0.598,-31.110
EX0521-092111,13,C08,prep,415,415,0,714909.092,0.685,-0.678,0.192,0.187,0,0,0,0,0,0,0,0,0,0.000,0,0,0.123,0.006,-0.020,-0.120,0.020,0.014,0.995,0.010,0.006,0.000,0.008,0.000,0.000,0.000,0.000,0,2,0,1,7,255,1200,200,0,0,-89.583,0.598,-31.110
EX0521-092111,13,C08,prep,415,415,0,714914.092,0.685,-0.678,0.192,0.187,0,0,0,0,0,0,0,0,0,0.000,0,0,0.279,0.006,0.220,-0.060,-0.160,0.014,0.994,0.009,0.006,0.000,-0.002,0.000,0.000,0.000,0.000,0,2,0,1,7,255,1200,200,0,0,-89.583,0.598,-31.110
EX0521-092111,13,C08,prep,443,443,0,714919.091,0.685,-0.678,0.192,0.187,0,0,0,0,0,0,0,0,0,0.000,0,0,0.210,0.006,-0.200,-0.060,0.020,0.014,0.995,0.009,0.006,0.000,0.008,0.000,0.000,0.000,0.000,0,2,0,1,7,255,1200,200,0,0,-89.583,0.598,-31.110
EX0521-092111,13,C08,prep,443,443,0,714924.092,0.685,-0.678,0.192,0.187,0,0,0,0,0,0,0,0,0,0.000,0,0,0.161,0.006,-0.140,0.000,0.080,0.013,0.994,0.009,0.004,0.004,-0.002,0.000,0.000,0.000,0.000,0,2,0,1,7,255,1200,200,0,0,-89.583,0.598,-31.110
EX0521-092111,13,C08,prep,444,444,0,714929.092,0.685,-0.678,0.192,0.187,0,0,0,0,0,0,0,0,0,0.000,0,0,0.242,0.002,0.220,0.000,-0.100,0.014,0.994,0.010,0.002,0.000,0.002,0.000,0.000,0.000,0.000,0,2,0,1,7,255,1200,200,0,0,-89.583,0.598,-31.110
EX0521-092111,13,C08,prep,444,444,0,714934.091,0.685,-0.678,0.192,0.187,0,0,0,0,0,0,0,0,0,0.000,0,0,0.102,0.004,-0.080,-0.060,0.020,0.013,0.995,0.009,0.000,0.004,0.002,0.000,0.000,0.000,0.000,0,2,0,1,7,255,1200,200,0,0,-89.583,0.598,-31.110
EX0521-092111,13,C08,prep,445,445,0,714939.092,0.685,-0.678,0.192,0.187,0,0,0,0,0,0,0,0,0,0.000,0,0,0.154,0.004,-0.140,-0.060,0.020,0.014,0.993,0.010,0.002,-0.004,0.002,0.000,0.000,0.000,0.000,0,2,0,1,7,255,1200,200,0,0,-89.583,0.598,-31.110
EX0521-092111,13,C08,prep,445,445,0,714944.092,0.685,-0.678,0.192,0.187,0,0,0,0,0,0,0,0,0,0.000,0,0,0.303,0.004,0.280,-0.060,-0.100,0.014,0.994,0.009,0.004,0.002,-0.002,0.000,0.000,0.000,0.000,0,2,0,1,7,255,1200,200,0,0,-89.583,0.598,-31.110
EX0521-092111,13,C08,prep,479,479,0,714949.091,0.685,-0.678,0.192,0.187,0,0,0,0,0,0,0,0,0,0.000,0,0,0.075,0.008,0.040,-0.060,0.020,0.014,0.995,0.010,0.006,-0.006,-0.002,0.000,0.000,0.000,0.000,0,2,0,1,7,255,1200,200,0,0,-89.584,0.598,-31.110
EX0521-092111,13,C08,prep,479,479,0,714954.091,0.685,-0.678,0.192,0.187,0,0,0,0,0,0,0,0,0,0.000,0,0,0.268,0.006,-0.260,-0.060,0.020,0.014,0.993,0.009,0.006,0.000,-0.002,0.000,0.000,0.000,0.000,0,2,0,1,7,255,1200,200,0,0,-89.584,0.598,-31.110
EX0521-092111,13,C08,prep,479,479,0,714959.094,0.685,-0.678,0.192,0.187,0,0,0,0,0,0,0,0,0,0.000,0,0,0.108,0.004,0.040,0.000,-0.100,0.013,0.993,0.009,0.004,0.000,-0.006,0.000,0.000,0.000,0.000,0,2,0,1,7,255,1200,200,0,0,-89.584,0.598,-31.110
EX0521-092111,13,C08,prep,479,479,0,714964.091,0.685,-0.678,0.192,0.187,0,0,0,0,0,0,0,0,0,0.000,0,0,0.082,0.004,0.040,-0.060,-0.040,0.015,0.993,0.010,0.004,0.000,-0.006,0.000,0.000,0.000,0.000,0,2,0,1,7,255,1200,200,0,0,-89.584,0.598,-31.110
EX0521-092111,13,C08,prep,479,479,0,714969.091,0.685,-0.678,0.192,0.187,0,0,0,0,0,0,0,0,0,0.000,0,0,0.154,0.002,-0.140,-0.060,0.020,0.013,0.993,0.010,0.000,0.002,-0.006,0.000,0.000,0.000,0.000,0,2,0,1,7,255,1200,200,0,0,-89.584,0.598,-31.110
EX0521-092111,13,C08,prep,479,479,0,714974.092,0.685,-0.678,0.192,0.187,0,0,0,0,0,0,0,0,0,0.000,0,0,0.224,0.006,0.160,-0.120,-0.100,0.012,0.994,0.009,-0.006,0.002,-0.006,0.000,0.000,0.000,0.000,0,2,0,1,7,255,1200,200,0,0,-89.584,0.598,-31.110
EX0521-092111,13,C08,prep,503,503,0,714979.091,0.685,-0.678,0.192,0.187,0,0,0,0,0,0,0,0,0,0.000,0,0,0.175,0.010,0.160,-0.060,-0.040,0.012,0.994,0.009,-0.006,0.008,0.002,0.000,0.000,0.000,0.000,0,2,0,1,7,255,1200,200,0,0,-89.584,0.598,-31.110
EX0521-092111,13,C08,prep,503,503,0,714984.091,0.685,-0.678,0.192,0.187,0,0,0,0,0,0,0,0,0,0.000,0,0,0.210,0.010,-0.200,-0.060,0.020,0.014,0.995,0.008,-0.006,0.008,0.002,0.000,0.000,0.000,0.000,0,2,0,1,7,255,1200,200,0,0,-89.584,0.598,-31.110
EX0521-092111,13,C08,prep,504,504,0,714989.092,0.685,-0.678,0.192,0.187,0,0,0,0,0,0,0,0,0,0.000,0,0,0.045,0.008,-0.020,0.000,-0.040,0.013,0.994,0.010,-0.002,0.008,0.002,0.000,0.000,0.000,0.000,0,2,0,1,7,255,1200,200,0,0,-89.584,0.598,-31.110
EX0521-092111,13,C08,prep,504,504,0,714994.091,0.685,-0.678,0.192,0.187,0,0,0,0,0,0,0,0,0,0.000,0,0,0.141,0.011,0.100,0.000,-0.100,0.014,0.996,0.008,0.008,0.008,0.012,0.000,0.000,0.000,0.000,0,2,0,1,7,255,1200,200,0,0,-89.584,0.598,-31.110
EX0521-092111,13,C08,prep,504,504,0,714999.092,0.685,-0.678,0.192,0.187,0,0,0,0,0,0,0,0,0,0.000,0,0,0.102,0.002,-0.080,-0.060,0.020,0.013,0.995,0.009,0.000,0.002,0.008,0.000,0.000,0.000,0.000,0,2,0,1,7,255,1200,200,0,0,-89.584,0.598,-31.110
EX0521-092111,13,C08,prep,504,504,0,715004.092,0.685,-0.678,0.192,0.187,0,0,0,0,0,0,0,0,0,0.000,0,0,0.075,0.006,-0.020,-0.060,-0.040,0.014,0.994,0.010,0.006,0.002,0.008,0.000,0.000,0.000,0.000,0,2,0,1,7,255,1200,200,0,0,-89.584,0.598,-31.110
EX0521-092111,13,C08,prep,543,543,0,715009.091,0.685,-0.678,0.192,0.187,0,0,0,0,0,0,0,0,0,0.000,0,0,0.198,0.004,0.160,-0.060,-0.100,0.014,0.994,0.009,0.004,0.000,-0.002,0.000,0.000,0.000,0.000,0,2,0,1,7,255,1200,200,0,0,-89.584,0.598,-31.110
EX0521-092111,13,C08,prep,543,543,0,715014.091,0.685,-0.678,0.192,0.187,0,0,0,0,0,0,0,0,0,0.000,0,0,0.128,0.004,-0.080,-0.060,0.080,0.013,0.993,0.009,0.004,0.000,-0.002,0.000,0.000,0.000,0.000,0,2,0,1,7,255,1200,200,0,0,-89.584,0.598,-31.110
EX0521-092111,13,C08,prep,545,545,0,715019.092,0.685,-0.678,0.192,0.187,0,0,0,0,0,0,0,0,0,0.000,0,0,0.172,0.000,-0.140,-0.060,0.080,0.014,0.994,0.010,0.000,0.000,-0.002,0.000,0.000,0.000,0.000,0,2,0,1,7,255,1200,200,0,0,-89.584,0.598,-31.110
EX0521-092111,13,C08,prep,545,545,0,715024.091,0.685,-0.678,0.192,0.187,0,0,0,0,0,0,0,0,0,0.000,0,0,0.123,0.002,0.100,-0.060,-0.040,0.013,0.994,0.009,0.000,0.002,0.002,0.000,0.000,0.000,0.000,0,2,0,1,7,255,1200,200,0,0,-89.584,0.598,-31.110
EX0521-092111,13,C08,prep,545,545,0,715029.091,0.685,-0.678,0.192,0.187,0,0,0,0,0,0,0,0,0,0.000,0,0,0.082,0.002,0.040,-0.060,-0.040,0.014,0.994,0.008,0.000,0.002,0.002,0.000,0.000,0.000,0.000,0,2,0,1,7,255,1200,200,0,0,-89.584,0.598,-31.110
EX0521-092111,13,C08,prep,545,545,0,715034.092,0.685,-0.678,0.192,0.187,0,0,0,0,0,0,0,0,0,0.000,0,0,0.150,0.002,-0.080,-0.120,-0.040,0.013,0.994,0.009,0.000,0.002,0.002,0.000,0.000,0.000,0.000,0,2,0,1,7,255,1200,200,0,0,-89.585,0.598,-31.110
EX0521-092111,13,C08,prep,576,576,0,715039.092,0.685,-0.678,0.192,0.187,0,0,0,0,0,0,0,0,0,0.000,0,0,0.175,0.002,0.160,-0.060,-0.040,0.013,0.994,0.010,0.000,0.002,0.002,0.000,0.000,0.000,0.000,0,2,0,1,7,255,1200,200,0,0,-89.585,0.598,-31.110
EX0521-092111,13,C08,prep,576,576,0,715044.091,0.685,-0.678,0.192,0.187,0,0,0,0,0,0,0,0,0,0.000,0,0,0.082,0.004,0.040,-0.060,-0.040,0.013,0.995,0.009,-0.004,0.002,0.002,0.000,0.000,0.000,0.000,0,2,0,1,7,255,1200,200,0,0,-89.585,0.598,-31.110
EX0521-092111,13,C08,prep,591,591,0,715049.092,0.685,-0.678,0.192,0.187,0,0,0,0,0,0,0,0,0,0.000,0,0,0.154,0.004,-0.140,-0.060,0.020,0.014,0.993,0.011,-0.004,-0.002,0.002,0.000,0.000,0.000,0.000,0,2,0,1,7,255,1200,200,0,0,-89.585,0.598,-31.110
EX0521-092111,13,C08,prep,591,591,0,715054.092,0.685,-0.678,0.192,0.187,0,0,0,0,0,0,0,0,0,0.000,0,0,0.082,0.004,0.040,-0.060,-0.040,0.013,0.995,0.010,-0.004,0.002,0.008,0.000,0.000,0.000,0.000,0,2,0,1,7,255,1200,200,0,0,-89.585,0.598,-31.110
EX0521-092111,13,C08,prep,591,591,0,715059.094,0.685,-0.678,0.192,0.187,0,0,0,0,0,0,0,0,0,0.000,0,0,0.082,0.003,0.040,-0.060,-0.040,0.013,0.995,0.009,-0.002,0.002,0.008,0.000,0.000,0.000,0.000,0,2,0,1,7,255,1200,200,0,0,-89.585,0.598,-31.110
EX0521-092111,13,C08,prep,591,591,0,715064.092,0.685,-0.678,0.192,0.187,0,0,0,0,0,0,0,0,0,0.000,0,0,0.108,0.002,-0.080,-0.060,-0.040,0.014,0.994,0.009,0.000,0.002,0.008,0.000,0.000,0.000,0.000,0,2,0,1,7,255,1200,200,0,0,-89.585,0.598,-31.110
EX0521-092111,13,C08,prep,591,591,0,715069.094,0.685,-0.678,0.192,0.187,0,0,0,0,0,0,0,0,0,0.000,0,0,0.123,0.006,0.040,-0.060,-0.100,0.014,0.995,0.009,0.006,0.002,0.008,0.000,0.000,0.000,0.000,0,2,0,1,7,255,1200,200,0,0,-89.585,0.598,-31.110
EX0521-092111,13,C08,prep,591,591,0,715074.091,0.685,-0.678,0.192,0.187,0,0,0,0,0,0,0,0,0,0.000,0,0,0.154,0.007,0.100,-0.060,-0.100,0.013,0.994,0.009,0.006,0.004,0.002,0.000,0.000,0.000,0.000,0,2,0,1,7,255,1200,200,0,0,-89.585,0.598,-31.110
EX0521-092111,13,C08,prep,610,610,0,715079.092,0.685,-0.678,0.192,0.187,0,0,0,0,0,0,0,0,0,0.000,0,0,0.157,0.006,-0.140,-0.060,-0.040,0.014,0.994,0.009,0.004,0.004,0.002,0.000,0.000,0.000,0.000,0,2,0,1,7,255,1200,200,0,0,-89.585,0.598,-31.110
EX0521-092111,13,C08,prep,610,610,0,715084.092,0.685,-0.678,0.192,0.187,0,0,0,0,0,0,0,0,0,0.000,0,0,0.066,0.002,-0.020,-0.060,0.020,0.012,0.993,0.011,0.002,0.000,0.002,0.000,0.000,0.000,0.000,0,2,0,1,7,255,1200,200,0,0,-89.585,0.598,-31.110
EX0521-092111,13,C08,prep,611,611,0,715089.091,0.685,-0.678,0.192,0.187,0,0,0,0,0,0,0,0,0,0.000,0,0,0.123,0.004,0.100,-0.060,-0.040,0.014,0.993,0.009,0.004,0.000,-0.008,0.000,0.000,0.000,0.000,0,2,0,1,7,255,1200,200,0,0,-89.585,0.598,-31.110
EX0521-092111,13,C08,prep,611,611,0,715094.092,0.685,-0.678,0.192,0.187,0,0,0,0,0,0,0,0,0,0.000,0,0,0.075,0.004,-0.020,-0.060,-0.040,0.013,0.994,0.008,0.004,0.000,-0.008,0.000,0.000,0.000,0.000,0,2,0,1,7,255,1200,200,0,0,-89.585,0.598,-31.110
EX0521-092111,13,C08,prep,612,612,0,715099.092,0.685,-0.678,0.192,0.187,0,0,0,0,0,0,0,0,0,0.000,0,0,0.133,0.004,0.040,-0.120,-0.040,0.014,0.995,0.010,0.004,0.000,0.002,0.000,0.000,0.000,0.000,0,2,0,1,7,255,1200,200,0,0,-89.585,0.598,-31.110
EX0521-092111,13,C08,prep,612,612,0,715104.093,0.685,-0.678,0.192,0.187,0,0,0,0,0,0,0,0,0,0.000,0,0,0.185,0.010,0.100,-0.120,-0.100,0.012,0.996,0.009,-0.002,0.010,0.012,0.000,0.000,0.000,0.000,0,2,0,1,7,255,1200,200,0,0,-89.585,0.598,-31.110
EX0521-092111,13,C08,prep,623,623,0,715109.092,0.685,-0.678,0.192,0.187,0,0,0,0,0,0,0,0,0,0.000,0,0,0.108,0.002,-0.080,-0.060,-0.040,0.014,0.995,0.009,-0.002,0.000,0.012,0.000,0.000,0.000,0.000,0,2,0,1,7,255,1200,200,0,0,-89.585,0.598,-31.110
EX0521-092111,13,C08,prep,623,623,0,715114.092,0.685,-0.678,0.192,0.187,0,0,0,0,0,0,0,0,0,0.000,0,0,0.150,0.002,-0.080,-0.120,-0.040,0.013,0.993,0.009,0.000,0.002,0.006,0.000,0.000,0.000,0.000,0,2,0,1,7,255,1200,200,0,0,-89.585,0.598,-31.110
EX0521-092111,13,C08,prep,623,623,0,715119.091,0.685,-0.678,0.192,0.187,0,0,0,0,0,0,0,0,0,0.000,0,0,0.075,0.004,-0.020,-0.060,-0.040,0.014,0.996,0.009,0.004,0.002,0.006,0.000,0.000,0.000,0.000,0,2,0,1,7,255,1200,200,0,0,-89.586,0.598,-31.110
EX0521-092111,13,C08,prep,623,623,0,715124.092,0.685,-0.678,0.192,0.187,0,0,0,0,0,0,0,0,0,0.000,0,0,0.075,0.007,0.040,-0.060,0.020,0.014,0.995,0.008,0.006,0.004,0.006,0.000,0.000,0.000,0.000,0,2,0,1,7,255,1200,200,0,0,-89.586,0.598,-31.110
EX0521-092111,13,C08,prep,639,639,0,715129.092,0.685,-0.678,0.192,0.187,0,0,0,0,0,0,0,0,0,0.000,0,0,0.075,0.007,-0.020,-0.060,-0.040,0.013,0.994,0.009,0.006,0.004,0.006,0.000,0.000,0.000,0.000,0,2,0,1,7,255,1200,200,0,0,-89.586,0.598,-31.110
EX0521-092111,13,C08,prep,639,639,0,715134.091,0.685,-0.678,0.192,0.187,0,0,0,0,0,0,0,0,0,0.000,0,0,0.082,0.004,0.040,-0.060,-0.040,0.013,0.993,0.009,0.000,0.004,-0.002,0.000,0.000,0.000,0.000,0,2,0,1,7,255,1200,200,0,0,-89.586,0.598,-31.110
EX0521-092111,13,C08,prep,655,655,0,715139.092,0.685,-0.678,0.192,0.187,0,0,0,0,0,0,0,0,0,0.000,0,0,0.045,0.004,-0.020,0.000,-0.040,0.014,0.995,0.009,0.000,0.004,-0.002,0.000,0.000,0.000,0.000,0,2,0,1,7,255,1200,200,0,0,-89.586,0.598,-31.110
EX0521-092111,13,C08,prep,655,655,0,715144.092,0.685,-0.678,0.192,0.187,0,0,0,0,0,0,0,0,0,0.000,0,0,0.082,0.004,-0.080,0.000,0.020,0.013,0.994,0.009,0.000,0.004,-0.002,0.000,0.000,0.000,0.000,0,2,0,1,7,255,1200,200,0,0,-89.586,0.598,-31.110
EX0521-092111,13,C08,prep,687,687,0,715149.091,0.685,-0.678,0.192,0.187,0,0,0,0,0,0,0,0,0,0.000,0,0,0.075,0.002,-0.020,-0.060,-0.040,0.013,0.993,0.010,0.000,0.002,-0.002,0.000,0.000,0.000,0.000,0,2,0,1,7,255,1200,200,0,0,-89.586,0.598,-31.110
EX0521-092111,13,C08,prep,687,687,0,715154.092,0.685,-0.678,0.192,0.187,0,0,0,0,0,0,0,0,0,0.000,0,0,0.075,0.008,-0.020,-0.060,-0.040,0.012,0.994,0.010,-0.008,0.002,-0.002,0.000,0.000,0.000,0.000,0,2,0,1,7,255,1200,200,0,0,-89.586,0.598,-31.110
EX0521-092111,13,C08,prep,687,687,0,715159.095,0.685,-0.678,0.192,0.187,0,0,0,0,0,0,0,0,0,0.000,0,0,0.075,0.008,-0.020,-0.060,-0.040,0.013,0.993,0.010,-0.008,0.000,-0.008,0.000,0.000,0.000,0.000,0,2,0,1,7,255,1200,200,0,0,-89.586,0.598,-31.110
EX0521-092111,13,C08,prep,687,687,0,715164.091,0.685,-0.678,0.192,0.187,0,0,0,0,0,0,0,0,0,0.000,0,0,0.123,0.004,0.100,-0.060,-0.040,0.013,0.993,0.009,-0.004,0.002,-0.008,0.000,0.000,0.000,0.000,0,2,0,1,7,255,1200,200,0,0,-89.586,0.598,-31.110
EX0521-092111,13,C08,prep,687,687,0,715169.092,0.685,-0.678,0.192,0.187,0,0,0,0,0,0,0,0,0,0.000,0,0,0.082,0.006,0.040,-0.060,-0.040,0.014,0.994,0.008,0.002,0.006,-0.008,0.000,0.000,0.000,0.000,0,2,0,1,7,255,1200,200,0,0,-89.586,0.598,-31.110
EX0521-092111,13,C08,prep,687,687,0,715174.092,0.685,-0.678,0.192,0.187,0,0,0,0,0,0,0,0,0,0.000,0,0,0.108,0.010,-0.080,-0.060,-0.040,0.014,0.995,0.008,0.008,0.006,0.002,0.000,0.000,0.000,0.000,0,2,0,1,7,255,1200,200,0,0,-89.586,0.598,-31.110
EX0521-092111,13,C08,prep,705,705,0,715179.091,0.685,-0.678,0.192,0.187,0,0,0,0,0,0,0,0,0,0.000,0,0,0.075,0.010,-0.020,-0.060,-0.040,0.014,0.995,0.010,0.008,0.006,0.006,0.000,0.000,0.000,0.000,0,2,0,1,7,255,1200,200,0,0,-89.586,0.598,-31.110
EX0521-092111,13,C08,prep,705,705,0,715184.092,0.685,-0.678,0.192,0.187,0,0,0,0,0,0,0,0,0,0.000,0,0,0.161,0.007,0.100,-0.120,-0.040,0.013,0.994,0.008,0.004,0.006,0.006,0.000,0.000,0.000,0.000,0,2,0,1,7,255,1200,200,0,0,-89.586,0.598,-31.110
EX0521-092111,13,C08,prep,705,705,0,715189.092,0.685,-0.678,0.192,0.187,0,0,0,0,0,0,0,0,0,0.000,0,0,0.066,0.007,-0.020,-0.060,0.020,0.013,0.994,0.009,0.004,0.006,-0.002,0.000,0.000,0.000,0.000,0,2,0,1,7,255,1200,200,0,0,-89.586,0.598,-31.110
EX0521-092111,13,C08,prep,705,705,0,715194.091,0.685,-0.678,0.192,0.187,0,0,0,0,0,0,0,0,0,0.000,0,0,0.066,0.006,-0.020,-0.060,0.020,0.013,0.993,0.010,0.002,0.006,-0.002,0.000,0.000,0.000,0.000,0,2,0,1,7,255,1200,200,0,0,-89.586,0.598,-31.110
EX0521-092111,13,C08,prep,719,719,0,715199.092,0.685,-0.678,0.192,0.187,0,0,0,0,0,0,0,0,0,0.000,0,0,0.075,0.004,-0.020,-0.060,-0.040,0.013,0.994,0.010,-0.004,0.000,-0.002,0.000,0.000,0.000,0.000,0,2,0,1,7,255,1200,200,0,0,-89.587,0.598,-31.110
EX0521-092111,13,C08,prep,719,719,0,715204.092,0.685,-0.678,0.192,0.187,0,0,0,0,0,0,0,0,0,0.000,0,0,0.146,0.004,-0.080,-0.120,0.020,0.013,0.995,0.009,-0.004,0.000,0.002,0.000,0.000,0.000,0.000,0,2,0,1,7,255,1200,200,0,0,-89.587,0.598,-31.110
EX0521-092111,13,C08,prep,719,719,0,715209.091,0.685,-0.678,0.192,0.187,0,0,0,0,0,0,0,0,0,0.000,0,0,0.154,0.002,-0.140,-0.060,0.020,0.014,0.994,0.009,0.002,0.000,0.002,0.000,0.000,0.000,0.000,0,2,0,1,7,255,1200,200,0,0,-89.587,0.598,-31.110
EX0521-092111,13,C08,prep,719,719,0,715214.092,0.685,-0.678,0.192,0.187,0,0,0,0,0,0,0,0,0,0.000,0,0,0.066,0.003,-0.020,-0.060,0.020,0.013,0.994,0.010,0.002,-0.002,0.002,0.000,0.000,0.000,0.000,0,2,0,1,7,255,1200,200,0,0,-89.587,0.598,-31.110
EX0521-092111,13,C08,prep,739,739,0,715219.092,0.685,-0.678,0.192,0.187,0,0,0,0,0,0,0,0,0,0.000,0,0,0.123,0.009,-0.020,-0.120,0.020,0.015,0.994,0.009,0.008,-0.004,-0.002,0.000,0.000,0.000,0.000,0,2,0,1,7,255,1200,200,0,0,-89.587,0.598,-31.110
EX0521-092111,13,C08,prep,739,739,0,715224.091,0.685,-0.678,0.192,0.187,0,0,0,0,0,0,0,0,0,0.000,0,0,0.128,0.004,0.040,-0.120,0.020,0.013,0.995,0.010,-0.004,-0.002,-0.002,0.000,0.000,0.000,0.000,0,2,0,1,7,255,1200,200,0,0,-89.587,0.598,-31.110
EX0521-092111,13,C08,prep,739,739,0,715229.092,0.685,-0.678,0.192,0.187,0,0,0,0,0,0,0,0,0,0.000,0,0,0.133,0.008,0.040,-0.120,-0.040,0.014,0.994,0.008,0.008,-0.002,0.002,0.000,0.000,0.000,0.000,0,2,0,1,7,255,1200,200,0,0,-89.587,0.598,-31.110
EX0521-092111,13,C08,prep,739,739,0,715234.092,0.685,-0.678,0.192,0.187,0,0,0,0,0,0,0,0,0,0.000,0,0,0.075,0.003,-0.020,-0.060,-0.040,0.013,0.994,0.009,-0.002,0.002,0.002,0.000,0.000,0.000,0.000,0,2,0,1,7,255,1200,200,0,0,-89.587,0.598,-31.110
EX0521-092111,13,C08,prep,751,751,0,715239.091,0.685,-0.678,0.192,0.187,0,0,0,0,0,0,0,0,0,0.000,0,0,0.108,0.003,-0.080,-0.060,-0.040,0.013,0.995,0.010,-0.002,0.002,0.002,0.000,0.000,0.000,0.000,0,2,0,1,7,255,1200,200,0,0,-89.587,0.598,-31.110
EX0521-092111,13,C08,prep,751,751,0,715244.091,0.685,-0.678,0.192,0.187,0,0,0,0,0,0,0,0,0,0.000,0,0,0.045,0.002,-0.020,0.000,-0.040,0.014,0.993,0.009,-0.002,0.000,0.002,0.000,0.000,0.000,0.000,0,2,0,1,7,255,1200,200,0,0,-89.587,0.598,-31.110
EX0521-092111,13,C08,prep,776,776,0,715249.092,0.685,-0.678,0.192,0.187,0,0,0,0,0,0,0,0,0,0.000,0,0,0.108,0.002,-0.080,-0.060,-0.040,0.013,0.993,0.009,-0.002,0.000,-0.008,0.000,0.000,0.000,0.000,0,2,0,1,7,255,1200,200,0,0,-89.587,0.598,-31.110
EX0521-092111,13,C08,prep,776,776,0,715254.091,0.685,-0.678,0.192,0.187,0,0,0,0,0,0,0,0,0,0.000,0,0,0.108,0.004,-0.080,-0.060,-0.040,0.014,0.993,0.009,0.004,0.000,-0.008,0.000,0.000,0.000,0.000,0,2,0,1,7,255,1200,200,0,0,-89.587,0.598,-31.110
EX0521-092111,13,C08,prep,777,777,0,715259.095,0.685,-0.678,0.192,0.187,0,0,0,0,0,0,0,0,0,0.000,0,0,0.066,0.010,-0.020,-0.060,0.020,0.014,0.994,0.009,0.010,0.000,-0.008,0.000,0.000,0.000,0.000,0,2,0,1,7,255,1200,200,0,0,-89.587,0.598,-31.110
EX0521-092111,13,C08,prep,777,777,0,715264.092,0.685,-0.678,0.192,0.187,0,0,0,0,0,0,0,0,0,0.000,0,0,0.075,0.010,0.040,-0.060,0.020,0.014,0.995,0.008,0.010,0.000,0.002,0.000,0.000,0.000,0.000,0,2,0,1,7,255,1200,200,0,0,-89.587,0.598,-31.110
EX0521-092111,13,C08,prep,778,778,0,715269.091,0.685,-0.678,0.192,0.187,0,0,0,0,0,0,0,0,0,0.000,0,0,0.102,0.010,-0.080,-0.060,0.020,0.013,0.994,0.009,0.008,0.006,0.002,0.000,0.000,0.000,0.000,0,2,0,1,7,255,1200,200,0,0,-89.587,0.598,-31.110
EX0521-092111,13,C08,prep,778,778,0,715274.091,0.685,-0.678,0.192,0.187,0,0,0,0,0,0,0,0,0,0.000,0,0,0.102,0.007,-0.080,-0.060,0.020,0.014,0.995,0.010,0.004,0.006,0.006,0.000,0.000,0.000,0.000,0,2,0,1,7,255,1200,200,0,0,-89.587,0.598,-31.110
EX0521-092111,13,C08,prep,808,808,0,715279.092,0.685,-0.678,0.193,0.187,0,0,0,0,0,0,0,0,0,0.000,0,0,0.057,0.003,0.040,0.000,-0.040,0.013,0.994,0.009,0.002,0.002,0.002,0.000,0.000,0.000,0.000,0,2,0,1,7,255,1200,200,0,0,-89.587,0.598,-31.110
EX0521-092111,13,C08,prep,808,808,0,715284.091,0.685,-0.678,0.193,0.187,0,0,0,0,0,0,0,0,0,0.000,0,0,0.082,0.003,0.040,-0.060,-0.040,0.013,0.995,0.010,-0.002,-0.002,0.006,0.000,0.000,0.000,0.000,0,2,0,1,7,255,1200,200,0,0,-89.588,0.598,-31.110
EX0521-092111,13,C08,prep,809,809,0,715289.091,0.685,-0.678,0.193,0.187,0,0,0,0,0,0,0,0,0,0.000,0,0,0.128,0.003,-0.020,-0.120,-0.040,0.013,0.995,0.009,-0.002,0.002,0.006,0.000,0.000,0.000,0.000,0,2,0,1,7,255,1200,200,0,0,-89.588,0.598,-31.110
EX0521-092111,13,C08,prep,809,809,0,715294.092,0.685,-0.678,0.193,0.187,0,0,0,0,0,0,0,0,0,0.000,0,0,0.066,0.004,-0.020,-0.060,0.020,0.013,0.995,0.010,-0.004,-0.002,0.006,0.000,0.000,0.000,0.000,0,2,0,1,7,255,1200,200,0,0,-89.588,0.598,-31.110
EX0521-092111,13,C08,prep,810,810,0,715299.092,0.685,-0.678,0.193,0.187,0,0,0,0,0,0,0,0,0,0.000,0,0,0.102,0.004,-0.080,-0.060,0.020,0.013,0.994,0.009,-0.004,0.002,0.006,0.000,0.000,0.000,0.000,0,2,0,1,7,255,1200,200,0,0,-89.588,0.598,-31.110
EX0521-092111,13,C08,prep,810,810,0,715304.091,0.685,-0.678,0.193,0.187,0,0,0,0,0,0,0,0,0,0.000,0,0,0.102,0.004,-0.080,-0.060,0.020,0.014,0.994,0.009,-0.004,-0.002,0.002,0.000,0.000,0.000,0.000,0,2,0,1,7,255,1200,200,0,0,-89.588,0.598,-31.110
EX0521-092111,13,C08,prep,843,843,0,715309.092,0.685,-0.678,0.193,0.187,0,0,0,0,0,0,0,0,0,0.000,0,0,0.066,0.004,-0.020,-0.060,0.020,0.013,0.993,0.010,-0.004,-0.002,0.002,0.000,0.000,0.000,0.000,0,2,0,1,7,255,1200,200,0,0,-89.588,0.598,-31.110
EX0521-092111,13,C08,prep,843,843,0,715314.091,0.685,-0.678,0.193,0.187,0,0,0,0,0,0,0,0,0,0.000,0,0,0.128,0.004,-0.020,-0.120,-0.040,0.012,0.995,0.010,-0.004,-0.002,0.002,0.000,0.000,0.000,0.000,0,2,0,1,7,255,1200,200,0,0,-89.588,0.598,-31.110
EX0521-092111,13,C08,prep,843,843,0,715319.091,0.685,-0.678,0.193,0.187,0,0,0,0,0,0,0,0,0,0.000,0,0,0.082,0.008,0.040,-0.060,-0.040,0.013,0.994,0.010,-0.008,0.000,-0.004,0.000,0.000,0.000,0.000,0,2,0,1,7,255,1200,200,0,0,-89.588,0.598,-31.110
EX0521-092111,13,C08,prep,843,843,0,715324.092,0.685,-0.678,0.193,0.187,0,0,0,0,0,0,0,0,0,0.000,0,0,0.161,0.008,0.100,-0.120,-0.040,0.013,0.994,0.009,-0.008,0.002,0.002,0.000,0.000,0.000,0.000,0,2,0,1,7,255,1200,200,0,0,-89.588,0.598,-31.110
EX0521-092111,13,C08,prep,844,844,0,715329.091,0.685,-0.678,0.193,0.187,0,0,0,0,0,0,0,0,0,0.000,0,0,0.161,0.002,0.100,-0.120,-0.040,0.014,0.993,0.010,0.002,0.000,-0.004,0.000,0.000,0.000,0.000,0,2,0,1,7,255,1200,200,0,0,-89.588,0.598,-31.110
EX0521-092111,13,C08,prep,844,844,0,715334.091,0.685,-0.678,0.193,0.187,0,0,0,0,0,0,0,0,0,0.000,0,0,0.082,0.006,0.040,-0.060,-0.040,0.013,0.993,0.008,0.002,0.006,-0.008,0.000,0.000,0.000,0.000,0,2,0,1,7,255,1200,200,0,0,-89.588,0.598,-31.110
EX0521-092111,13,C08,prep,874,874,0,715339.092,0.685,-0.678,0.193,0.187,0,0,0,0,0,0,0,0,0,0.000,0,0,0.123,0.008,0.100,-0.060,-0.040,0.013,0.994,0.009,0.000,0.008,-0.008,0.000,0.000,0.000,0.000,0,2,0,1,7,255,1200,200,0,0,-89.588,0.598,-31.110
EX0521-092111,13,C08,prep,874,874,0,715344.091,0.685,-0.678,0.193,0.187,0,0,0,0,0,0,0,0,0,0.000,0,0,0.133,0.010,0.040,-0.120,-0.040,0.014,0.994,0.008,0.000,0.010,-0.004,0.000,0.000,0.000,0.000,0,2,0,1,7,255,1200,200,0,0,-89.588,0.598,-31.110
EX0521-092111,13,C08,prep,916,916,0,715349.091,0.685,-0.678,0.193,0.187,0,0,0,0,0,0,0,0,0,0.000,0,0,0.075,0.013,0.040,-0.060,0.020,0.014,0.995,0.009,0.010,0.008,0.002,0.000,0.000,0.000,0.000,0,2,0,1,7,255,1200,200,0,0,-89.588,0.598,-31.110
EX0521-092111,13,C08,prep,916,916,0,715354.092,0.685,-0.678,0.193,0.187,0,0,0,0,0,0,0,0,0,0.000,0,0,0.075,0.012,0.040,-0.060,0.020,0.013,0.994,0.009,0.010,0.006,0.002,0.000,0.000,0.000,0.000,0,2,0,1,7,255,1200,200,0,0,-89.588,0.598,-31.110
EX0521-092111,13,C08,prep,916,916,0,715359.093,0.685,-0.678,0.193,0.187,0,0,0,0,0,0,0,0,0,0.000,0,0,0.075,0.004,-0.020,-0.060,-0.040,0.014,0.993,0.010,0.004,0.000,-0.004,0.000,0.000,0.000,0.000,0,2,0,1,7,255,1200,200,0,0,-89.588,0.598,-31.110
EX0521-092111,13,C08,prep,916,916,0,715364.091,0.685,-0.678,0.193,0.187,0,0,0,0,0,0,0,0,0,0.000,0,0,0.089,0.003,-0.080,0.000,-0.040,0.013,0.994,0.009,0.002,0.002,-0.004,0.000,0.000,0.000,0.000,0,2,0,1,7,255,1200,200,0,0,-89.588,0.598,-31.110
EX0521-092111,13,C08,prep,916,916,0,715369.092,0.685,-0.678,0.193,0.187,0,0,0,0,0,0,0,0,0,0.000,0,0,0.075,0.003,-0.020,-0.060,-0.040,0.012,0.994,0.009,-0.002,0.002,-0.002,0.000,0.000,0.000,0.000,0,2,0,1,7,255,1200,200,0,0,-89.589,0.598,-31.110
EX0521-092111,13,C08,prep,916,916,0,715374.091,0.685,-0.678,0.193,0.187,0,0,0,0,0,0,0,0,0,0.000,0,0,0.082,0.007,0.040,-0.060,-0.040,0.013,0.994,0.009,-0.006,0.004,0.002,0.000,0.000,0.000,0.000,0,2,0,1,7,255,1200,200,0,0,-89.589,0.598,-31.110
EX0521-092111,13,C08,prep,916,916,0,715379.091,0.685,-0.678,0.193,0.187,0,0,0,0,0,0,0,0,0,0.000,0,0,0.082,0.009,0.040,-0.060,-0.040,0.013,0.994,0.010,-0.008,0.004,0.002,0.000,0.000,0.000,0.000,0,2,0,1,7,255,1200,200,0,0,-89.589,0.598,-31.110
EX0521-092111,13,C08,prep,916,916,0,715384.092,0.685,-0.678,0.193,0.187,0,0,0,0,0,0,0,0,0,0.000,0,0,0.108,0.006,0.100,0.000,-0.040,0.013,0.994,0.009,-0.006,0.000,0.002,0.000,0.000,0.000,0.000,0,2,0,1,7,255,1200,200,0,0,-89.589,0.598,-31.110
EX0521-092111,13,C08,prep,917,917,0,715389.091,0.685,-0.678,0.193,0.187,0,0,0,0,0,0,0,0,0,0.000,0,0,0.157,0.002,0.100,-0.120,0.020,0.014,0.994,0.010,-0.002,0.000,-0.002,0.000,0.000,0.000,0.000,0,2,0,1,7,255,1200,200,0,0,-89.589,0.598,-31.110
EX0521-092111,13,C08,prep,917,917,0,715394.091,0.685,-0.678,0.193,0.187,0,0,0,0,0,0,0,0,0,0.000,0,0,0.075,0.000,-0.020,-0.060,-0.040,0.014,0.993,0.009,0.000,0.000,-0.002,0.000,0.000,0.000,0.000,0,2,0,1,7,255,1200,200,0,0,-89.589,0.598,-31.110
EX0521-092111,13,C08,prep,918,918,0,715399.092,0.685,-0.678,0.193,0.187,0,0,0,0,0,0,0,0,0,0.000,0,0,0.123,0.003,0.100,-0.060,-0.040,0.014,0.993,0.009,0.002,-0.002,-0.008,0.000,0.000,0.000,0.000,0,2,0,1,7,255,1200,200,0,0,-89.589,0.598,-31.110
EX0521-092111,13,C08,prep,918,918,0,715404.091,0.685,-0.678,0.193,0.187,0,0,0,0,0,0,0,0,0,0.000,0,0,0.161,0.003,0.100,-0.120,-0.040,0.013,0.995,0.009,0.002,0.002,-0.008,0.000,0.000,0.000,0.000,0,2,0,1,7,255,1200,200,0,0,-89.589,0.598,-31.110
EX0521-092111,13,C08,prep,919,919,0,715409.091,0.685,-0.678,0.193,0.187,0,0,0,0,0,0,0,0,0,0.000,0,0,0.082,0.003,0.040,-0.060,-0.040,0.014,0.994,0.009,0.002,-0.002,0.002,0.000,0.000,0.000,0.000,0,2,0,1,7,255,1200,200,0,0,-89.589,0.598,-31.110
EX0521-092111,13,C08,prep,919,919,0,715414.092,0.685,-0.678,0.193,0.187,0,0,0,0,0,0,0,0,0,0.000,0,0,0.118,0.004,-0.020,-0.060,-0.100,0.013,0.994,0.009,0.002,0.004,0.002,0.000,0.000,0.000,0.000,0,2,0,1,7,255,1200,200,0,0,-89.589,0.598,-31.110
EX0521-092111,13,C08,prep,938,938,0,715419.091,0.685,-0.678,0.193,0.187,0,0,0,0,0,0,0,0,0,0.000,0,0,0.075,0.006,-0.020,-0.060,-0.040,0.014,0.994,0.009,0.006,0.002,0.002,0.000,0.000,0.000,0.000,0,2,0,1,7,255,1200,200,0,0,-89.589,0.598,-31.110
EX0521-092111,13,C08,prep,938,938,0,715424.091,0.685,-0.678,0.193,0.187,0,0,0,0,0,0,0,0,0,0.000,0,0,0.108,0.003,-0.080,-0.060,-0.040,0.014,0.994,0.009,0.002,0.002,0.002,0.000,0.000,0.000,0.000,0,2,0,1,7,255,1200,200,0,0,-89.589,0.598,-31.110
EX0521-092111,13,C08,prep,939,939,0,715429.092,0.685,-0.678,0.193,0.187,0,0,0,0,0,0,0,0,0,0.000,0,0,0.108,0.003,-0.080,-0.060,-0.040,0.014,0.994,0.009,0.002,-0.002,0.002,0.000,0.000,0.000,0.000,0,2,0,1,7,255,1200,200,0,0,-89.589,0.598,-31.110
EX0521-092111,13,C08,prep,939,939,0,715434.091,0.685,-0.678,0.193,0.187,0,0,0,0,0,0,0,0,0,0.000,0,0,0.123,0.003,-0.020,-0.120,0.020,0.015,0.995,0.009,0.002,-0.002,0.002,0.000,0.000,0.000,0.000,0,2,0,1,7,255,1200,200,0,0,-89.589,0.598,-31.110
EX0521-092111,13,C08,prep,965,965,0,715439.091,0.685,-0.678,0.193,0.187,0,0,0,0,0,0,0,0,0,0.000,0,0,0.102,0.010,-0.080,-0.060,0.020,0.014,0.993,0.008,0.010,-0.002,-0.002,0.000,0.000,0.000,0.000,0,2,0,1,7,255,1200,200,0,0,-89.589,0.598,-31.110
EX0521-092111,13,C08,prep,965,965,0,715444.092,0.685,-0.678,0.193,0.187,0,0,0,0,0,0,0,0,0,0.000,0,0,0.141,0.012,-0.140,0.000,0.020,0.014,0.993,0.008,0.010,0.006,-0.008,0.000,0.000,0.000,0.000,0,2,0,1,7,255,1200,200,0,0,-89.589,0.598,-31.110
EX0521-092111,13,C08,prep,993,993,0,715449.092,0.685,-0.678,0.193,0.187,0,0,0,0,0,0,0,0,0,0.000,0,0,0.154,0.010,-0.140,-0.060,0.020,0.014,0.993,0.010,0.008,0.006,-0.008,0.000,0.000,0.000,0.000,0,2,0,1,7,255,1200,200,0,0,-89.589,0.598,-31.110
EX0521-092111,13,C08,prep,993,993,0,715454.091,0.685,-0.678,0.193,0.187,0,0,0,0,0,0,0,0,0,0.000,0,0,0.102,0.006,-0.080,-0.060,0.020,0.013,0.994,0.008,0.000,0.006,-0.008,0.000,0.000,0.000,0.000,0,2,0,1,7,255,1200,200,0,0,-89.590,0.598,-31.110
EX0521-092111,13,C08,prep,993,993,0,715459.095,0.685,-0.678,0.193,0.187,0,0,0,0,0,0,0,0,0,0.000,0,0,0.028,0.004,-0.020,0.000,0.020,0.013,0.995,0.009,0.000,0.004,0.002,0.000,0.000,0.000,0.000,0,2,0,1,7,255,1200,200,0,0,-89.590,0.598,-31.110
EX0521-092111,13,C08,prep,993,993,0,715464.091,0.685,-0.678,0.193,0.187,0,0,0,0,0,0,0,0,0,0.000,0,0,0.089,0.004,-0.080,0.000,-0.040,0.013,0.994,0.009,0.000,0.004,0.002,0.000,0.000,0.000,0.000,0,2,0,1,7,255,1200,200,0,0,-89.590,0.598,-31.110
EX0521-092111,13,C08,prep,993,993,0,715469.091,0.685,-0.678,0.193,0.187,0,0,0,0,0,0,0,0,0,0.000,0,0,0.075,0.004,-0.020,-0.060,-0.040,0.014,0.992,0.010,0.000,0.004,0.002,0.000,0.000,0.000,0.000,0,2,0,1,7,255,1200,200,0,0,-89.590,0.598,-31.110
EX0521-092111,13,C08,prep,993,993,0,715474.092,0.685,-0.678,0.193,0.187,0,0,0,0,0,0,0,0,0,0.000,0,0,0.108,0.004,-0.080,-0.060,-0.040,0.013,0.993,0.008,0.000,0.004,-0.008,0.000,0.000,0.000,0.000,0,2,0,1,7,255,1200,200,0,0,-89.590,0.598,-31.110
EX0521-092111,13,C08,prep,993,993,0,715479.091,0.685,-0.678,0.193,0.187,0,0,0,0,0,0,0,0,0,0.000,0,0,0.089,0.002,-0.080,0.000,-0.040,0.013,0.994,0.009,0.000,0.002,-0.008,0.000,0.000,0.000,0.000,0,2,0,1,7,255,1200,200,0,0,-89.590,0.598,-31.110
EX0521-092111,13,C08,prep,993,993,0,715484.091,0.685,-0.678,0.193,0.187,0,0,0,0,0,0,0,0,0,0.000,0,0,0.075,0.002,-0.020,-0.060,-0.040,0.014,0.995,0.010,0.000,0.002,-0.002,0.000,0.000,0.000,0.000,0,2,0,1,7,255,1200,200,0,0,-89.590,0.598,-31.110
EX0521-092111,13,C08,prep,1005,1005,0,715489.092,0.685,-0.678,0.193,0.187,0,0,0,0,0,0,0,0,0,0.000,0,0,0.089,0.003,-0.080,0.000,-0.040,0.014,0.995,0.009,0.002,-0.002,0.012,0.000,0.000,0.000,0.000,0,2,0,1,7,255,1200,200,0,0,-89.590,0.598,-31.110
EX0521-092111,13,C08,prep,1005,1005,0,715494.092,0.685,-0.678,0.193,0.187,0,0,0,0,0,0,0,0,0,0.000,0,0,0.045,0.010,-0.020,0.000,-0.040,0.013,0.994,0.011,0.002,-0.010,0.012,0.000,0.000,0.000,0.000,0,2,0,1,7,255,1200,200,0,0,-89.590,0.598,-31.110
EX0521-092111,13,C08,prep,1007,1007,0,715499.092,0.685,-0.678,0.193,0.187,0,0,0,0,0,0,0,0,0,0.000,0,0,0.057,0.010,0.040,0.000,-0.040,0.014,0.995,0.011,0.000,-0.010,0.006,0.000,0.000,0.000,0.000,0,2,0,1,7,255,1200,200,0,0,-89.590,0.598,-31.110
EX0521-092111,13,C08,prep,1007,1007,0,715504.092,0.685,-0.678,0.193,0.187,0,0,0,0,0,0,0,0,0,0.000,0,0,0.154,0.012,0.100,-0.060,-0.100,0.013,0.994,0.010,-0.006,-0.010,0.002,0.000,0.000,0.000,0.000,0,2,0,1,7,255,1200,200,0,0,-89.590,0.598,-31.110
EX0521-092111,13,C08,prep,1023,1023,0,715509.092,0.685,-0.678,0.193,0.187,0,0,0,0,0,0,0,0,0,0.000,0,0,0.082,0.008,0.040,-0.060,-0.040,0.014,0.994,0.008,0.000,-0.008,-0.002,0.000,0.000,0.000,0.000,0,2,0,1,7,255,1200,200,0,0,-89.590,0.598,-31.110
EX0521-092111,13,C08,prep,1023,1023,0,715514.091,0.685,-0.678,0.193,0.187,0,0,0,0,0,0,0,0,0,0.000,0,0,0.057,0.004,0.040,0.000,-0.040,0.013,0.994,0.009,0.000,0.004,-0.002,0.000,0.000,0.000,0.000,0,2,0,1,7,255,1200,200,0,0,-89.590,0.598,-31.110
EX0521-092111,13,C08,prep,1044,1044,0,715519.092,0.685,-0.678,0.193,0.187,0,0,0,0,0,0,0,0,0,0.000,0,0,0.057,0.007,0.040,0.000,-0.040,0.014,0.994,0.009,0.006,0.004,-0.002,0.000,0.000,0.000,0.000,0,2,0,1,7,255,1200,200,0,0,-89.590,0.598,-31.110
EX0521-092111,13,C08,prep,1044,1044,0,715524.092,0.685,-0.678,0.193,0.187,0,0,0,0,0,0,0,0,0,0.000,0,0,0.045,0.004,0.040,0.000,0.020,0.013,0.994,0.009,0.000,0.004,0.002,0.000,0.000,0.000,0.000,0,2,0,1,7,255,1200,200,0,0,-89.590,0.598,-31.110
EX0521-092111,13,C08,prep,1045,1045,0,715529.091,0.685,-0.678,0.193,0.187,0,0,0,0,0,0,0,0,0,0.000,0,0,0.082,0.004,0.040,-0.060,-0.040,0.013,0.994,0.009,0.000,0.004,0.002,0.000,0.000,0.000,0.000,0,2,0,1,7,255,1200,200,0,0,-89.590,0.598,-31.110
EX0521-092111,13,C08,prep,1045,1045,0,715534.092,0.685,-0.678,0.193,0.187,0,0,0,0,0,0,0,0,0,0.000,0,0,0.082,0.004,0.040,-0.060,-0.040,0.014,0.993,0.008,0.000,0.004,0.002,0.000,0.000,0.000,0.000,0,2,0,1,7,255,1200,200,0,0,-89.591,0.598,-31.110
EX0521-092111,13,C08,prep,1045,1045,0,715539.092,0.685,-0.678,0.193,0.187,0,0,0,0,0,0,0,0,0,0.000,0,0,0.108,0.004,0.100,0.000,-0.040,0.013,0.993,0.010,0.000,0.004,-0.008,0.000,0.000,0.000,0.000,0,2,0,1,7,255,1200,200,0,0,-89.591,0.598,-31.110
EX0521-092111,13,C08,prep,1045,1045,0,715544.091,0.685,-0.678,0.193,0.187,0,0,0,0,0,0,0,0,0,0.000,0,0,0.123,0.008,0.100,-0.060,-0.040,0.013,0.994,0.010,-0.008,-0.002,-0.008,0.000,0.000,0.000,0.000,0,2,0,1,7,255,1200,200,0,0,-89.591,0.598,-31.110
EX0521-092111,13,C08,prep,1087,1087,0,715549.092,0.685,-0.678,0.193,0.187,0,0,0,0,0,0,0,0,0,0.000,0,0,0.082,0.008,0.040,-0.060,-0.040,0.014,0.994,0.008,-0.008,-0.002,-0.002,0.000,0.000,0.000,0.000,0,2,0,1,7,255,1200,200,0,0,-89.591,0.598,-31.110
EX0521-092111,13,C08,prep,1087,1087,0,715554.092,0.685,-0.678,0.193,0.187,0,0,0,0,0,0,0,0,0,0.000,0,0,0.089,0.007,-0.080,0.000,-0.040,0.013,0.995,0.009,-0.004,0.006,0.002,0.000,0.000,0.000,0.000,0,2,0,1,7,255,1200,200,0,0,-89.591,0.598,-31.110
EX0521-092111,13,C08,prep,1107,1107,0,715559.094,0.685,-0.678,0.193,0.187,0,0,0,0,0,0,0,0,0,0.000,0,0,0.102,0.006,-0.080,-0.060,0.020,0.014,0.994,0.010,0.002,0.006,0.002,0.000,0.000,0.000,0.000,0,2,0,1,7,255,1200,200,0,0,-89.591,0.598,-31.110
EX0521-092111,13,C08,prep,1107,1107,0,715564.092,0.685,-0.678,0.193,0.187,0,0,0,0,0,0,0,0,0,0.000,0,0,0.102,0.002,-0.080,-0.060,0.020,0.013,0.995,0.009,-0.002,0.000,0.006,0.000,0.000,0.000,0.000,0,2,0,1,7,255,1200,200,0,0,-89.591,0.598,-31.110
EX0521-092111,13,C08,prep,1108,1108,0,715569.092,0.685,-0.678,0.193,0.187,0,0,0,0,0,0,0,0,0,0.000,0,0,0.102,0.008,-0.080,-0.060,0.020,0.013,0.995,0.010,-0.002,-0.008,0.006,0.000,0.000,0.000,0.000,0,2,0,1,7,255,1200,200,0,0,-89.591,0.598,-31.110
EX0521-092111,13,C08,prep,1108,1108,0,715574.091,0.685,-0.678,0.193,0.187,0,0,0,0,0,0,0,0,0,0.000,0,0,0.066,0.006,-0.020,-0.060,0.020,0.013,0.994,0.010,-0.004,-0.004,0.006,0.000,0.000,0.000,0.000,0,2,0,1,7,255,1200,200,0,0,-89.591,0.598,-31.110
EX0521-092111,13,C08,prep,1109,1109,0,715579.092,0.685,-0.678,0.193,0.187,0,0,0,0,0,0,0,0,0,0.000,0,0,0.066,0.007,-0.020,-0.060,0.020,0.012,0.993,0.009,-0.006,-0.004,0.002,0.000,0.000,0.000,0.000,0,2,0,1,7,255,1200,200,0,0,-89.591,0.598,-31.110
EX0521-092111,13,C08,prep,1109,1109,0,715584.092,0.685,-0.678,0.193,0.187,0,0,0,0,0,0,0,0,0,0.000,0,0,0.075,0.007,-0.020,-0.060,-0.040,0.013,0.994,0.009,-0.004,0.006,-0.002,0.000,0.000,0.000,0.000,0,2,0,1,7,255,1200,200,0,0,-89.591,0.598,-31.110
EX0521-092111,13,C08,prep,1109,1109,0,715589.091,0.685,-0.678,0.193,0.187,0,0,0,0,0,0,0,0,0,0.000,0,0,0.075,0.010,-0.020,-0.060,-0.040,0.013,0.992,0.010,-0.008,0.006,-0.008,0.000,0.000,0.000,0.000,0,2,0,1,7,255,1200,200,0,0,-89.591,0.598,-31.110
EX0521-092111,13,C08,prep,1109,1109,0,715594.092,0.685,-0.678,0.193,0.187,0,0,0,0,0,0,0,0,0,0.000,0,0,0.161,0.004,0.100,-0.120,-0.040,0.014,0.994,0.009,-0.004,0.000,-0.002,0.000,0.000,0.000,0.000,0,2,0,1,7,255,1200,200,0,0,-89.591,0.598,-31.110
EX0521-092111,13,C08,prep,1110,1110,0,715599.092,0.685,-0.678,0.193,0.187,0,0,0,0,0,0,0,0,0,0.000,0,0,0.082,0.006,0.040,-0.060,-0.040,0.013,0.993,0.009,-0.006,0.000,-0.008,0.000,0.000,0.000,0.000,0,2,0,1,7,255,1200,200,0,0,-89.591,0.598,-31.110
EX0521-092111,13,C08,prep,1110,1110,0,715604.091,0.685,-0.678,0.193,0.187,0,0,0,0,0,0,0,0,0,0.000,0,0,0.123,0.002,0.100,-0.060,-0.040,0.013,0.994,0.009,-0.002,0.000,-0.002,0.000,0.000,0.000,0.000,0,2,0,1,7,255,1200,200,0,0,-89.591,0.598,-31.110
EX0521-092111,13,C08,prep,1119,1119,0,715609.092,0.685,-0.678,0.193,0.187,0,0,0,0,0,0,0,0,0,0.000,0,0,0.161,0.006,0.100,-0.120,-0.040,0.013,0.994,0.010,-0.006,0.000,-0.002,0.000,0.000,0.000,0.000,0,2,0,1,7,255,1200,200,0,0,-89.591,0.598,-31.110
EX0521-092111,13,C08,prep,1119,1119,0,715614.092,0.685,-0.678,0.193,0.187,0,0,0,0,0,0,0,0,0,0.000,0,0,0.154,0.003,0.100,-0.060,-0.100,0.014,0.994,0.009,-0.002,-0.002,-0.002,0.000,0.000,0.000,0.000,0,2,0,1,7,255,1200,200,0,0,-89.591,0.598,-31.110
EX0521-092111,13,C08,prep,1135,1135,0,715619.091,0.685,-0.678,0.193,0.187,0,0,0,0,0,0,0,0,0,0.000,0,0,0.185,0.003,0.100,-0.120,-0.100,0.014,0.994,0.009,0.002,-0.002,-0.002,0.000,0.000,0.000,0.000,0,2,0,1,7,255,1200,200,0,0,-89.592,0.598,-31.110
EX0521-092111,13,C08,prep,1135,1135,0,715624.092,0.685,-0.678,0.193,0.187,0,0,0,0,0,0,0,0,0,0.000,0,0,0.154,0.003,0.100,-0.060,-0.100,0.013,0.994,0.010,0.002,-0.002,0.002,0.000,0.000,0.000,0.000,0,2,0,1,7,255,1200,200,0,0,-89.592,0.598,-31.110
EX0521-092111,13,C08,prep,1135,1135,0,715629.092,0.685,-0.678,0.193,0.187,0,0,0,0,0,0,0,0,0,0.000,0,0,0.175,0.004,0.160,-0.060,-0.040,0.013,0.995,0.009,-0.004,0.002,0.002,0.000,0.000,0.000,0.000,0,2,0,1,7,255,1200,200,0,0,-89.592,0.598,-31.110
EX0521-092111,13,C08,prep,1135,1135,0,715634.092,0.685,-0.678,0.193,0.187,0,0,0,0,0,0,0,0,0,0.000,0,0,0.123,0.004,0.100,-0.060,-0.040,0.014,0.993,0.009,-0.004,-0.002,0.002,0.000,0.000,0.000,0.000,0,2,0,1,7,255,1200,200,0,0,-89.592,0.598,-31.110
EX0521-092111,13,C08,prep,1151,1151,0,715639.092,0.685,-0.678,0.193,0.187,0,0,0,0,0,0,0,0,0,0.000,0,0,0.075,0.007,0.040,-0.060,0.020,0.013,0.994,0.009,-0.004,0.006,-0.002,0.000,0.000,0.000,0.000,0,2,0,1,7,255,1200,200,0,0,-89.592,0.598,-31.110
EX0521-092111,13,C08,prep,1151,1151,0,715644.092,0.685,-0.678,0.193,0.187,0,0,0,0,0,0,0,0,0,0.000,0,0,0.123,0.003,0.100,-0.060,-0.040,0.015,0.995,0.010,0.002,-0.002,-0.002,0.000,0.000,0.000,0.000,0,2,0,1,7,255,1200,200,0,0,-89.592,0.598,-31.110
EX0521-092111,13,C08,prep,1183,1183,0,715649.091,0.685,-0.678,0.193,0.187,0,0,0,0,0,0,0,0,0,0.000,0,0,0.133,0.009,0.040,-0.120,-0.040,0.014,0.994,0.008,0.008,0.004,0.002,0.000,0.000,0.000,0.000,0,2,0,1,7,255,1200,200,0,0,-89.592,0.598,-31.110
EX0521-092111,13,C08,prep,1183,1183,0,715654.092,0.685,-0.678,0.193,0.187,0,0,0,0,0,0,0,0,0,0.000,0,0,0.118,0.008,0.100,-0.060,0.020,0.014,0.993,0.009,0.008,0.002,0.002,0.000,0.000,0.000,0.000,0,2,0,1,7,255,1200,200,0,0,-89.592,0.598,-31.110
EX0521-092111,13,C08,prep,1183,1183,0,715659.093,0.685,-0.678,0.193,0.187,0,0,0,0,0,0,0,0,0,0.000,0,0,0.133,0.006,0.040,-0.120,-0.040,0.013,0.994,0.008,0.004,0.004,0.002,0.000,0.000,0.000,0.000,0,2,0,1,7,255,1200,200,0,0,-89.592,0.598,-31.110
EX0521-092111,13,C08,prep,1183,1183,0,715664.091,0.685,-0.678,0.193,0.187,0,0,0,0,0,0,0,0,0,0.000,0,0,0.082,0.006,0.040,-0.060,-0.040,0.014,0.993,0.008,0.004,0.004,-0.008,0.000,0.000,0.000,0.000,0,2,0,1,7,255,1200,200,0,0,-89.592,0.598,-31.110
EX0521-092111,13,C08,prep,1183,1183,0,715669.092,0.685,-0.678,0.193,0.187,0,0,0,0,0,0,0,0,0,0.000,0,0,0.154,0.006,0.100,-0.060,-0.100,0.013,0.994,0.009,0.004,0.004,-0.002,0.000,0.000,0.000,0.000,0,2,0,1,7,255,1200,200,0,0,-89.592,0.598,-31.110
EX0521-092111,13,C08,prep,1183,1183,0,715674.092,0.685,-0.678,0.193,0.187,0,0,0,0,0,0,0,0,0,0.000,0,0,0.154,0.002,0.100,-0.060,-0.100,0.014,0.994,0.009,0.002,0.000,-0.002,0.000,0.000,0.000,0.000,0,2,0,1,7,255,1200,200,0,0,-89.592,0.598,-31.110
EX0521-092111,13,C08,prep,1205,1205,0,715679.091,0.685,-0.678,0.193,0.187,0,0,0,0,0,0,0,0,0,0.000,0,0,0.108,0.003,0.100,0.000,-0.040,0.014,0.995,0.009,0.002,-0.002,-0.002,0.000,0.000,0.000,0.000,0,2,0,1,7,255,1200,200,0,0,-89.592,0.598,-31.110
EX0521-092111,13,C08,prep,1205,1205,0,715684.092,0.685,-0.678,0.193,0.187,0,0,0,0,0,0,0,0,0,0.000,0,0,0.082,0.003,0.040,-0.060,-0.040,0.013,0.994,0.009,0.002,-0.002,-0.002,0.000,0.000,0.000,0.000,0,2,0,1,7,255,1200,200,0,0,-89.592,0.598,-31.110
EX0521-092111,13,C08,prep,1205,1205,0,715689.092,0.685,-0.678,0.193,0.187,0,0,0,0,0,0,0,0,0,0.000,0,0,0.133,0.003,0.040,-0.120,-0.040,0.014,0.994,0.009,0.002,-0.002,0.002,0.000,0.000,0.000,0.000,0,2,0,1,7,255,1200,200,0,0,-89.592,0.598,-31.110
EX0521-092111,13,C08,prep,1205,1205,0,715694.091,0.685,-0.678,0.193,0.187,0,0,0,0,0,0,0,0,0,0.000,0,0,0.133,0.004,0.040,-0.120,-0.040,0.014,0.994,0.010,0.000,-0.004,-0.002,0.000,0.000,0.000,0.000,0,2,0,1,7,255,1200,200,0,0,-89.592,0.598,-31.110
EX0521-092111,13,C08,prep,1215,1215,0,715699.092,0.685,-0.678,0.193,0.187,0,0,0,0,0,0,0,0,0,0.000,0,0,0.123,0.007,0.100,-0.060,-0.040,0.014,0.993,0.008,0.006,-0.004,-0.002,0.000,0.000,0.000,0.000,0,2,0,1,7,255,1200,200,0,0,-89.592,0.598,-31.110
EX0521-092111,13,C08,prep,1215,1215,0,715704.092,0.685,-0.678,0.193,0.187,0,0,0,0,0,0,0,0,0,0.000,0,0,0.082,0.007,0.040,-0.060,-0.040,0.014,0.995,0.009,0.006,-0.004,-0.002,0.000,0.000,0.000,0.000,0,2,0,1,7,255,1200,200,0,0,-89.593,0.598,-31.110
EX0521-092111,13,C08,prep,1232,1232,0,715709.091,0.685,-0.678,0.193,0.187,0,0,0,0,0,0,0,0,0,0.000,0,0,0.082,0.008,0.040,-0.060,-0.040,0.013,0.995,0.009,0.006,0.006,0.006,0.000,0.000,0.000,0.000,0,2,0,1,7,255,1200,200,0,0,-89.593,0.598,-31.110
EX0521-092111,13,C08,prep,1232,1232,0,715714.092,0.685,-0.678,0.193,0.187,0,0,0,0,0,0,0,0,0,0.000,0,0,0.045,0.006,-0.020,0.000,-0.040,0.013,0.994,0.010,-0.004,-0.004,0.006,0.000,0.000,0.000,0.000,0,2,0,1,7,255,1200,200,0,0,-89.593,0.598,-31.110
EX0521-092111,13,C08,prep,1232,1232,0,715719.092,0.685,-0.678,0.193,0.187,0,0,0,0,0,0,0,0,0,0.000,0,0,0.082,0.006,0.040,-0.060,-0.040,0.013,0.993,0.009,-0.004,0.004,-0.002,0.000,0.000,0.000,0.000,0,2,0,1,7,255,1200,200,0,0,-89.593,0.598,-31.110
EX0521-092111,13,C08,prep,1232,1232,0,715724.091,0.685,-0.678,0.193,0.187,0,0,0,0,0,0,0,0,0,0.000,0,0,0.075,0.004,0.040,-0.060,0.020,0.015,0.994,0.009,0.000,-0.004,-0.002,0.000,0.000,0.000,0.000,0,2,0,1,7,255,1200,200,0,0,-89.593,0.598,-31.110
EX0521-092111,13,C08,prep,1247,1247,0,715729.092,0.685,-0.678,0.193,0.187,0,0,0,0,0,0,0,0,0,0.000,0,0,0.075,0.006,0.040,-0.060,0.020,0.014,0.995,0.010,0.000,-0.006,0.002,0.000,0.000,0.000,0.000,0,2,0,1,7,255,1200,200,0,0,-89.593,0.598,-31.110
EX0521-092111,13,C08,prep,1247,1247,0,715734.092,0.685,-0.678,0.193,0.187,0,0,0,0,0,0,0,0,0,0.000,0,0,0.066,0.006,-0.020,-0.060,0.020,0.013,0.994,0.010,0.000,-0.006,0.002,0.000,0.000,0.000,0.000,0,2,0,1,7,255,1200,200,0,0,-89.593,0.598,-31.110
EX0521-092111,13,C08,prep,1247,1247,0,715739.091,0.685,-0.678,0.193,0.187,0,0,0,0,0,0,0,0,0,0.000,0,0,0.082,0.008,0.040,-0.060,-0.040,0.013,0.994,0.010,-0.006,-0.006,-0.002,0.000,0.000,0.000,0.000,0,2,0,1,7,255,1200,200,0,0,-89.593,0.598,-31.110
EX0521-092111,13,C08,prep,1247,1247,0,715744.092,0.685,-0.678,0.193,0.187,0,0,0,0,0,0,0,0,0,0.000,0,0,0.082,0.006,0.040,-0.060,-0.040,0.013,0.993,0.009,-0.006,-0.002,-0.002,0.000,0.000,0.000,0.000,0,2,0,1,7,255,1200,200,0,0,-89.593,0.598,-31.110
EX0521-092111,13,C08,prep,1279,1279,0,715749.092,0.685,-0.678,0.193,0.187,0,0,0,0,0,0,0,0,0,0.000,0,0,0.082,0.006,0.040,-0.060,-0.040,0.014,0.994,0.009,-0.006,0.002,-0.002,0.000,0.000,0.000,0.000,0,2,0,1,7,255,1200,200,0,0,-89.593,0.598,-31.110
EX0521-092111,13,C08,prep,1279,1279,0,715754.091,0.685,-0.678,0.193,0.187,0,0,0,0,0,0,0,0,0,0.000,0,0,0.082,0.004,0.040,-0.060,-0.040,0.014,0.994,0.008,0.004,0.002,-0.002,0.000,0.000,0.000,0.000,0,2,0,1,7,255,1200,200,0,0,-89.593,0.598,-31.110
EX0521-092111,13,C08,prep,1279,1279,0,715759.094,0.685,-0.678,0.193,0.187,0,0,0,0,0,0,0,0,0,0.000,0,0,0.075,0.004,0.040,-0.060,0.020,0.014,0.994,0.009,0.004,0.002,0.002,0.000,0.000,0.000,0.000,0,2,0,1,7,255,1200,200,0,0,-89.593,0.598,-31.110
EX0521-092111,13,C08,prep,1279,1279,0,715764.092,0.685,-0.678,0.193,0.187,0,0,0,0,0,0,0,0,0,0.000,0,0,0.157,0.004,0.100,-0.120,0.020,0.014,0.995,0.009,0.004,0.002,0.002,0.000,0.000,0.000,0.000,0,2,0,1,7,255,1200,200,0,0,-89.593,0.598,-31.110
EX0521-092111,13,C08,prep,1279,1279,0,715769.091,0.685,-0.678,0.193,0.187,0,0,0,0,0,0,0,0,0,0.000,0,0,0.082,0.004,0.040,-0.060,-0.040,0.014,0.994,0.009,0.004,0.000,0.002,0.000,0.000,0.000,0.000,0,2,0,1,7,255,1200,200,0,0,-89.593,0.598,-31.110
EX0521-092111,13,C08,prep,1279,1279,0,715774.092,0.685,-0.678,0.193,0.187,0,0,0,0,0,0,0,0,0,0.000,0,0,0.102,0.004,-0.080,-0.060,0.020,0.013,0.993,0.009,0.004,0.000,-0.002,0.000,0.000,0.000,0.000,0,2,0,1,7,255,1200,200,0,0,-89.593,0.598,-31.110
EX0521-092111,13,C08,prep,1297,1297,0,715779.092,0.685,-0.678,0.193,0.187,0,0,0,0,0,0,0,0,0,0.000,0,0,0.082,0.004,0.040,-0.060,-0.040,0.013,0.993,0.007,0.004,0.000,-0.012,0.000,0.000,0.000,0.000,0,2,0,1,7,255,1200,200,0,0,-89.593,0.598,-31.110
EX0521-092111,13,C08,prep,1297,1297,0,715784.091,0.685,-0.678,0.193,0.187,0,0,0,0,0,0,0,0,0,0.000,0,0,0.082,0.007,0.040,-0.060,-0.040,0.014,0.993,0.008,0.004,0.006,-0.012,0.000,0.000,0.000,0.000,0,2,0,1,7,255,1200,200,0,0,-89.594,0.598,-31.110
EX0521-092111,13,C08,prep,1311,1311,0,715789.092,0.685,-0.678,0.193,0.187,0,0,0,0,0,0,0,0,0,0.000,0,0,0.128,0.009,-0.020,-0.120,-0.040,0.013,0.995,0.008,0.004,0.008,-0.012,0.000,0.000,0.000,0.000,0,2,0,1,7,255,1200,200,0,0,-89.594,0.598,-31.110
EX0521-092111,13,C08,prep,1311,1311,0,715794.092,0.685,-0.678,0.193,0.187,0,0,0,0,0,0,0,0,0,0.000,0,0,0.066,0.007,-0.020,-0.060,0.020,0.014,0.994,0.010,0.004,0.006,-0.002,0.000,0.000,0.000,0.000,0,2,0,1,7,255,1200,200,0,0,-89.594,0.598,-31.110
EX0521-092111,13,C08,prep,1311,1311,0,715799.092,0.685,-0.678,0.193,0.187,0,0,0,0,0,0,0,0,0,0.000,0,0,0.066,0.009,-0.020,-0.060,0.020,0.014,0.994,0.010,0.004,-0.008,0.002,0.000,0.000,0.000,0.000,0,2,0,1,7,255,1200,200,0,0,-89.594,0.598,-31.110
EX0521-092111,13,C08,prep,1311,1311,0,715804.092,0.685,-0.678,0.193,0.187,0,0,0,0,0,0,0,0,0,0.000,0,0,0.082,0.009,0.040,-0.060,-0.040,0.014,0.994,0.008,0.004,-0.008,0.002,0.000,0.000,0.000,0.000,0,2,0,1,7,255,1200,200,0,0,-89.594,0.598,-31.110
EX0521-092111,13,C08,prep,1333,1333,0,715809.092,0.685,-0.678,0.193,0.187,0,0,0,0,0,0,0,0,0,0.000,0,0,0.118,0.004,-0.020,-0.060,-0.100,0.013,0.994,0.009,0.004,0.002,0.002,0.000,0.000,0.000,0.000,0,2,0,1,7,255,1200,200,0,0,-89.594,0.598,-31.110
EX0521-092111,13,C08,prep,1333,1333,0,715814.092,0.685,-0.678,0.193,0.187,0,0,0,0,0,0,0,0,0,0.000,0,0,0.089,0.003,-0.080,0.000,-0.040,0.014,0.995,0.009,0.002,0.002,0.002,0.000,0.000,0.000,0.000,0,2,0,1,7,255,1200,200,0,0,-89.594,0.598,-31.110
EX0521-092111,13,C08,prep,1333,1333,0,715819.092,0.685,-0.678,0.193,0.187,0,0,0,0,0,0,0,0,0,0.000,0,0,0.075,0.002,-0.020,-0.060,-0.040,0.013,0.994,0.009,-0.002,0.000,0.002,0.000,0.000,0.000,0.000,0,2,0,1,7,255,1200,200,0,0,-89.594,0.598,-31.110
EX0521-092111,13,C08,prep,1333,1333,0,715824.092,0.685,-0.678,0.193,0.187,0,0,0,0,0,0,0,0,0,0.000,0,0,0.082,0.000,0.040,-0.060,-0.040,0.013,0.994,0.009,0.000,0.000,0.002,0.000,0.000,0.000,0.000,0,2,0,1,7,255,1200,200,0,0,-89.594,0.598,-31.110
EX0521-092111,13,C08,prep,1343,1343,0,715829.091,0.685,-0.678,0.193,0.187,0,0,0,0,0,0,0,0,0,0.000,0,0,0.102,0.002,-0.080,-0.060,0.020,0.013,0.993,0.010,-0.002,0.000,-0.002,0.000,0.000,0.000,0.000,0,2,0,1,7,255,1200,200,0,0,-89.594,0.598,-31.110
EX0521-092111,13,C08,prep,1343,1343,0,715834.092,0.685,-0.678,0.193,0.187,0,0,0,0,0,0,0,0,0,0.000,0,0,0.075,0.002,-0.020,-0.060,-0.040,0.014,0.994,0.009,0.000,0.002,-0.002,0.000,0.000,0.000,0.000,0,2,0,1,7,255,1200,200,0,0,-89.594,0.598,-31.110
EX0521-092111,13,C08,prep,1343,1343,0,715839.092,0.685,-0.678,0.193,0.187,0,0,0,0,0,0,0,0,0,0.000,0,0,0.075,0.004,-0.020,-0.060,-0.040,0.014,0.993,0.008,0.004,0.002,-0.008,0.000,0.000,0.000,0.000,0,2,0,1,7,255,1200,200,0,0,-89.594,0.598,-31.110
EX0521-092111,13,C08,prep,1343,1343,0,715844.092,0.685,-0.678,0.193,0.187,0,0,0,0,0,0,0,0,0,0.000,0,0,0.082,0.007,0.040,-0.060,-0.040,0.013,0.995,0.009,0.004,0.006,-0.002,0.000,0.000,0.000,0.000,0,2,0,1,7,255,1200,200,0,0,-89.594,0.598,-31.110
EX0521-092111,13,C08,prep,1375,1375,0,715849.092,0.685,-0.678,0.193,0.187,0,0,0,0,0,0,0,0,0,0.000,0,0,0.082,0.006,0.040,-0.060,-0.040,0.013,0.995,0.008,0.000,0.006,0.008,0.000,0.000,0.000,0.000,0,2,0,1,7,255,1200,200,0,0,-89.594,0.598,-31.110
EX0521-092111,13,C08,prep,1375,1375,0,715854.092,0.685,-0.678,0.193,0.187,0,0,0,0,0,0,0,0,0,0.000,0,0,0.066,0.006,-0.020,-0.060,0.020,0.014,0.995,0.009,0.000,0.006,0.008,0.000,0.000,0.000,0.000,0,2,0,1,7,255,1200,200,0,0,-89.594,0.598,-31.110
EX0521-092111,13,C08,prep,1375,1375,0,715859.093,0.685,-0.678,0.193,0.187,0,0,0,0,0,0,0,0,0,0.000,0,0,0.066,0.002,-0.020,-0.060,0.020,0.013,0.994,0.010,0.000,0.002,0.008,0.000,0.000,0.000,0.000,0,2,0,1,7,255,1200,200,0,0,-89.594,0.598,-31.110
EX0521-092111,13,C08,prep,1375,1375,0,715864.092,0.685,-0.678,0.193,0.187,0,0,0,0,0,0,0,0,0,0.000,0,0,0.075,0.004,0.040,-0.060,0.020,0.013,0.994,0.009,-0.004,0.002,0.002,0.000,0.000,0.000,0.000,0,2,0,1,7,255,1200,200,0,0,-89.594,0.598,-31.110
EX0521-092111,13,C08,prep,1375,1375,0,715869.092,0.685,-0.678,0.193,0.187,0,0,0,0,0,0,0,0,0,0.000,0,0,0.128,0.004,-0.020,-0.120,-0.040,0.014,0.994,0.009,-0.004,-0.002,-0.002,0.000,0.000,0.000,0.000,0,2,0,1,7,255,1200,200,0,0,-89.595,0.598,-31.110
EX0521-092111,13,C08,prep,1375,1375,0,715874.091,0.685,-0.678,0.193,0.187,0,0,0,0,0,0,0,0,0,0.000,0,0,0.075,0.003,0.040,-0.060,0.020,0.014,0.995,0.009,0.002,-0.002,-0.002,0.000,0.000,0.000,0.000,0,2,0,1,7,255,1200,200,0,0,-89.595,0.598,-31.110
EX0521-092111,13,C08,prep,1412,1412,0,715879.092,0.685,-0.678,0.193,0.187,0,0,0,0,0,0,0,0,0,0.000,0,0,0.075,0.003,-0.020,-0.060,-0.040,0.014,0.995,0.009,0.002,-0.002,0.008,0.000,0.000,0.000,0.000,0,2,0,1,7,255,1200,200,0,0,-89.595,0.598,-31.110
EX0521-092111,13,C08,prep,1412,1412,0,715884.092,0.685,-0.678,0.193,0.187,0,0,0,0,0,0,0,0,0,0.000,0,0,0.108,0.007,-0.080,-0.060,-0.040,0.014,0.994,0.010,0.004,-0.006,0.008,0.000,0.000,0.000,0.000,0,2,0,1,7,255,1200,200,0,0,-89.595,0.598,-31.110
EX0521-092111,13,C08,prep,1413,1413,0,715889.092,0.685,-0.678,0.193,0.187,0,0,0,0,0,0,0,0,0,0.000,0,0,0.141,0.008,-0.140,0.000,0.020,0.014,0.994,0.008,0.006,-0.006,0.002,0.000,0.000,0.000,0.000,0,2,0,1,7,255,1200,200,0,0,-89.595,0.598,-31.110
EX0521-092111,13,C08,prep,1413,1413,0,715894.092,0.685,-0.678,0.193,0.187,0,0,0,0,0,0,0,0,0,0.000,0,0,0.141,0.008,-0.140,0.000,0.020,0.014,0.994,0.009,0.008,-0.002,-0.002,0.000,0.000,0.000,0.000,0,2,0,1,7,255,1200,200,0,0,-89.595,0.598,-31.110
EX0521-092111,13,C08,prep,1413,1413,0,715899.092,0.685,-0.678,0.193,0.187,0,0,0,0,0,0,0,0,0,0.000,0,0,0.146,0.008,-0.140,0.000,-0.040,0.014,0.994,0.009,0.008,-0.002,0.002,0.000,0.000,0.000,0.000,0,2,0,1,7,255,1200,200,0,0,-89.595,0.598,-31.110
EX0521-092111,13,C08,prep,1413,1413,0,715904.091,0.685,-0.678,0.193,0.187,0,0,0,0,0,0,0,0,0,0.000,0,0,0.141,0.003,-0.140,0.000,0.020,0.013,0.995,0.008,0.002,-0.002,0.002,0.000,0.000,0.000,0.000,0,2,0,1,7,255,1200,200,0,0,-89.595,0.598,-31.110
EX0521-092111,13,C08,prep,1423,1423,0,715909.092,0.685,-0.678,0.193,0.187,0,0,0,0,0,0,0,0,0,0.000,0,0,0.154,0.004,-0.140,-0.060,0.020,0.013,0.995,0.009,0.002,0.004,0.006,0.000,0.000,0.000,0.000,0,2,0,1,7,255,1200,200,0,0,-89.595,0.598,-31.110
EX0521-092111,13,C08,prep,1423,1423,0,715914.091,0.685,-0.678,0.193,0.187,0,0,0,0,0,0,0,0,0,0.000,0,0,0.028,0.004,-0.020,0.000,0.020,0.014,0.995,0.009,0.002,0.004,0.006,0.000,0.000,0.000,0.000,0,2,0,1,7,255,1200,200,0,0,-89.595,0.598,-31.110
EX0521-092111,13,C08,prep,1439,1439,0,715919.091,0.685,-0.678,0.193,0.187,0,0,0,0,0,0,0,0,0,0.000,0,0,0.108,0.004,-0.080,-0.060,-0.040,0.013,0.992,0.009,0.000,0.004,0.006,0.000,0.000,0.000,0.000,0,2,0,1,7,255,1200,200,0,0,-89.595,0.598,-31.110
EX0521-092111,13,C08,prep,1439,1439,0,715924.092,0.685,-0.678,0.193,0.187,0,0,0,0,0,0,0,0,0,0.000,0,0,0.102,0.002,-0.080,-0.060,0.020,0.013,0.994,0.009,0.000,0.002,-0.002,0.000,0.000,0.000,0.000,0,2,0,1,7,255,1200,200,0,0,-89.595,0.598,-31.110
EX0521-092111,13,C08,prep,1439,1439,0,715929.091,0.685,-0.678,0.193,0.187,0,0,0,0,0,0,0,0,0,0.000,0,0,0.075,0.004,-0.020,-0.060,-0.040,0.014,0.994,0.008,0.000,0.004,-0.002,0.000,0.000,0.000,0.000,0,2,0,1,7,255,1200,200,0,0,-89.595,0.598,-31.110
EX0521-092111,13,C08,prep,1439,1439,0,715934.091,0.685,-0.678,0.193,0.187,0,0,0,0,0,0,0,0,0,0.000,0,0,0.161,0.006,0.100,-0.120,-0.040,0.014,0.994,0.009,0.006,0.000,0.002,0.000,0.000,0.000,0.000,0,2,0,1,7,255,1200,200,0,0,-89.595,0.598,-31.110
EX0521-092111,13,C08,prep,1455,1455,0,715939.092,0.685,-0.678,0.193,0.187,0,0,0,0,0,0,0,0,0,0.000,0,0,0.082,0.008,0.040,-0.060,-0.040,0.014,0.993,0.009,0.006,-0.006,0.002,0.000,0.000,0.000,0.000,0,2,0,1,7,255,1200,200,0,0,-89.595,0.598,-31.110
EX0521-092111,13,C08,prep,1455,1455,0,715944.092,0.685,-0.678,0.193,0.187,0,0,0,0,0,0,0,0,0,0.000,0,0,0.108,0.008,-0.080,-0.060,-0.040,0.013,0.994,0.009,0.006,-0.006,-0.002,0.000,0.000,0.000,0.000,0,2,0,1,7,255,1200,200,0,0,-89.595,0.598,-31.110
EX0521-092111,13,C08,prep,1487,1487,0,715949.091,0.685,-0.678,0.193,0.187,0,0,0,0,0,0,0,0,0,0.000,0,0,0.082,0.002,0.040,-0.060,-0.040,0.013,0.994,0.009,-0.002,0.000,-0.002,0.000,0.000,0.000,0.000,0,2,0,1,7,255,1200,200,0,0,-89.595,0.598,-31.110
EX0521-092111,13,C08,prep,1487,1487,0,715954.092,0.685,-0.678,0.193,0.187,0,0,0,0,0,0,0,0,0,0.000,0,0,0.082,0.002,0.040,-0.060,-0.040,0.014,0.994,0.009,-0.002,0.000,-0.002,0.000,0.000,0.000,0.000,0,2,0,1,7,255,1200,200,0,0,-89.596,0.598,-31.110
EX0521-092111,13,C08,prep,1487,1487,0,715959.094,0.685,-0.678,0.193,0.187,0,0,0,0,0,0,0,0,0,0.000,0,0,0.066,0.007,-0.020,-0.060,0.020,0.013,0.994,0.009,-0.004,0.006,-0.002,0.000,0.000,0.000,0.000,0,2,0,1,7,255,1200,200,0,0,-89.596,0.598,-31.110
EX0521-092111,13,C08,prep,1487,1487,0,715964.091,0.685,-0.678,0.193,0.187,0,0,0,0,0,0,0,0,0,0.000,0,0,0.045,0.006,0.040,0.000,0.020,0.012,0.995,0.009,-0.004,0.004,0.002,0.000,0.000,0.000,0.000,0,2,0,1,7,255,1200,200,0,0,-89.596,0.598,-31.110
EX0521-092111,13,C08,prep,1487,1487,0,715969.092,0.685,-0.678,0.193,0.187,0,0,0,0,0,0,0,0,0,0.000,0,0,0.066,0.011,-0.020,-0.060,0.020,0.012,0.994,0.009,-0.010,0.004,0.002,0.000,0.000,0.000,0.000,0,2,0,1,7,255,1200,200,0,0,-89.596,0.598,-31.110
EX0521-092111,13,C08,prep,1487,1487,0,715974.092,0.685,-0.678,0.193,0.187,0,0,0,0,0,0,0,0,0,0.000,0,0,0.082,0.011,0.040,-0.060,-0.040,0.014,0.993,0.008,-0.010,0.004,-0.002,0.000,0.000,0.000,0.000,0,2,0,1,7,255,1200,200,0,0,-89.596,0.598,-31.110
EX0521-092111,13,C08,prep,1509,1509,0,715979.091,0.685,-0.678,0.193,0.187,0,0,0,0,0,0,0,0,0,0.000,0,0,0.075,0.009,-0.020,-0.060,-0.040,0.014,0.993,0.009,0.008,0.004,-0.008,0.000,0.000,0.000,0.000,0,2,0,1,7,255,1200,200,0,0,-89.596,0.598,-31.110
EX0521-092111,13,C08,prep,1509,1509,0,715984.092,0.685,-0.678,0.193,0.187,0,0,0,0,0,0,0,0,0,0.000,0,0,0.045,0.010,-0.020,0.000,-0.040,0.014,0.996,0.008,0.008,0.006,-0.008,0.000,0.000,0.000,0.000,0,2,0,1,7,255,1200,200,0,0,-89.596,0.598,-31.110
EX0521-092111,13,C08,prep,1510,1510,0,715989.092,0.685,-0.678,0.193,0.187,0,0,0,0,0,0,0,0,0,0.000,0,0,0.075,0.007,-0.020,-0.060,-0.040,0.014,0.994,0.008,0.006,0.004,-0.002,0.000,0.000,0.000,0.000,0,2,0,1,7,255,1200,200,0,0,-89.596,0.598,-31.110
EX0521-092111,13,C08,prep,1510,1510,0,715994.091,0.685,-0.678,0.193,0.187,0,0,0,0,0,0,0,0,0,0.000,0,0,0.082,0.007,0.040,-0.060,-0.040,0.014,0.993,0.009,0.006,0.004,-0.002,0.000,0.000,0.000,0.000,0,2,0,1,7,255,1200,200,0,0,-89.596,0.598,-31.110
EX0521-092111,13,C08,prep,1510,1510,0,715999.092,0.685,-0.678,0.193,0.187,0,0,0,0,0,0,0,0,0,0.000,0,0,0.082,0.006,0.040,-0.060,-0.040,0.013,0.994,0.009,0.006,0.000,-0.002,0.000,0.000,0.000,0.000,0,2,0,1,7,255,1200,200,0,0,-89.596,0.598,-31.110
EX0521-092111,13,C08,prep,1510,1510,0,716004.092,0.685,-0.678,0.193,0.187,0,0,0,0,0,0,0,0,0,0.000,0,0,0.082,0.004,0.040,-0.060,-0.040,0.012,0.993,0.009,-0.004,0.000,-0.008,0.000,0.000,0.000,0.000,0,2,0,1,7,255,1200,200,0,0,-89.596,0.598,-31.110
EX0521-092111,13,C08,prep,1519,1519,0,716009.091,0.685,-0.678,0.193,0.187,0,0,0,0,0,0,0,0,0,0.000,0,0,0.108,0.009,0.040,0.000,-0.100,0.013,0.995,0.008,-0.004,0.008,0.002,0.000,0.000,0.000,0.000,0,2,0,1,7,255,1200,200,0,0,-89.596,0.598,-31.110
EX0521-092111,13,C08,prep,1519,1519,0,716014.092,0.685,-0.678,0.193,0.187,0,0,0,0,0,0,0,0,0,0.000,0,0,0.082,0.008,0.040,-0.060,-0.040,0.013,0.994,0.009,0.000,0.008,-0.002,0.000,0.000,0.000,0.000,0,2,0,1,7,255,1200,200,0,0,-89.596,0.598,-31.110
EX0521-092111,13,C08,prep,1541,1541,0,716019.092,0.685,-0.678,0.193,0.187,0,0,0,0,0,0,0,0,0,0.000,0,0,0.123,0.004,0.100,-0.060,-0.040,0.012,0.994,0.010,0.000,0.004,0.002,0.000,0.000,0.000,0.000,0,2,0,1,7,255,1200,200,0,0,-89.596,0.598,-31.110
EX0521-092111,13,C08,prep,1541,1541,0,716024.091,0.685,-0.678,0.193,0.187,0,0,0,0,0,0,0,0,0,0.000,0,0,0.066,0.000,-0.020,-0.060,0.020,0.014,0.993,0.009,0.000,0.000,-0.002,0.000,0.000,0.000,0.000,0,2,0,1,7,255,1200,200,0,0,-89.596,0.598,-31.110
EX0521-092111,13,C08,prep,1541,1541,0,716029.092,0.685,-0.678,0.193,0.187,0,0,0,0,0,0,0,0,0,0.000,0,0,0.082,0.002,0.040,-0.060,-0.040,0.013,0.995,0.008,-0.002,0.000,0.002,0.000,0.000,0.000,0.000,0,2,0,1,7,255,1200,200,0,0,-89.596,0.598,-31.110
EX0521-092111,13,C08,prep,1541,1541,0,716034.091,0.685,-0.678,0.193,0.187,0,0,0,0,0,0,0,0,0,0.000,0,0,0.082,0.003,0.040,-0.060,-0.040,0.014,0.995,0.009,0.002,-0.002,0.006,0.000,0.000,0.000,0.000,0,2,0,1,7,255,1200,200,0,0,-89.596,0.598,-31.110
EX0521-092111,13,C08,prep,1551,1551,0,716039.091,0.685,-0.678,0.193,0.187,0,0,0,0,0,0,0,0,0,0.000,0,0,0.123,0.003,0.040,-0.060,-0.100,0.013,0.994,0.009,-0.002,0.002,0.006,0.000,0.000,0.000,0.000,0,2,0,1,7,255,1200,200,0,0,-89.597,0.598,-31.110
EX0521-092111,13,C08,prep,1551,1551,0,716044.092,0.685,-0.678,0.193,0.187,0,0,0,0,0,0,0,0,0,0.000,0,0,0.082,0.004,-0.080,0.000,0.020,0.013,0.995,0.009,-0.004,-0.002,0.008,0.000,0.000,0.000,0.000,0,2,0,1,7,255,1200,200,0,0,-89.597,0.598,-31.110
EX0521-092111,13,C08,prep,1583,1583,0,716049.091,0.685,-0.678,0.193,0.187,0,0,0,0,0,0,0,0,0,0.000,0,0,0.082,0.004,0.040,-0.060,-0.040,0.013,0.993,0.008,-0.004,0.002,-0.002,0.000,0.000,0.000,0.000,0,2,0,1,7,255,1200,200,0,0,-89.597,0.598,-31.110
EX0521-092111,13,C08,prep,1583,1583,0,716054.091,0.685,-0.678,0.193,0.187,0,0,0,0,0,0,0,0,0,0.000,0,0,0.089,0.004,-0.080,0.000,-0.040,0.013,0.993,0.010,-0.004,-0.002,-0.008,0.000,0.000,0.000,0.000,0,2,0,1,7,255,1200,200,0,0,-89.597,0.598,-31.110
EX0521-092111,13,C08,prep,1583,1583,0,716059.095,0.685,-0.678,0.193,0.187,0,0,0,0,0,0,0,0,0,0.000,0,0,0.045,0.003,-0.020,0.000,-0.040,0.014,0.993,0.010,-0.002,-0.002,-0.008,0.000,0.000,0.000,0.000,0,2,0,1,7,255,1200,200,0,0,-89.597,0.598,-31.110
EX0521-092111,13,C08,prep,1583,1583,0,716064.091,0.685,-0.678,0.193,0.187,0,0,0,0,0,0,0,0,0,0.000,0,0,0.082,0.008,0.040,-0.060,-0.040,0.013,0.994,0.010,-0.006,-0.006,-0.006,0.000,0.000,0.000,0.000,0,2,0,1,7,255,1200,200,0,0,-89.597,0.598,-31.110
EX0521-092111,13,C08,prep,1583,1583,0,716069.093,0.685,-0.678,0.193,0.187,0,0,0,0,0,0,0,0,0,0.000,0,0,0.075,0.006,-0.020,-0.060,-0.040,0.014,0.994,0.009,0.000,-0.006,0.002,0.000,0.000,0.000,0.000,0,2,0,1,7,255,1200,200,0,0,-89.597,0.598,-31.110
EX0521-092111,13,C08,prep,1583,1583,0,716074.092,0.685,-0.678,0.193,0.187,0,0,0,0,0,0,0,0,0,0.000,0,0,0.108,0.007,-0.080,-0.060,-0.040,0.015,0.994,0.009,0.004,-0.006,0.002,0.000,0.000,0.000,0.000,0,2,0,1,7,255,1200,200,0,0,-89.597,0.598,-31.110
EX0521-092111,13,C08,prep,1611,1611,0,716079.091,0.685,-0.678,0.193,0.187,0,0,0,0,0,0,0,0,0,0.000,0,0,0.082,0.008,0.040,-0.060,-0.040,0.014,0.993,0.009,0.006,-0.006,-0.002,0.000,0.000,0.000,0.000,0,2,0,1,7,255,1200,200,0,0,-89.597,0.598,-31.110
EX0521-092111,13,C08,prep,1611,1611,0,716084.092,0.685,-0.678,0.193,0.187,0,0,0,0,0,0,0,0,0,0.000,0,0,0.082,0.008,0.040,-0.060,-0.040,0.014,0.994,0.009,0.006,-0.006,-0.002,0.000,0.000,0.000,0.000,0,2,0,1,7,255,1200,200,0,0,-89.597,0.598,-31.110
EX0521-092111,13,C08,prep,1612,1612,0,716089.092,0.685,-0.678,0.193,0.187,0,0,0,0,0,0,0,0,0,0.000,0,0,0.075,0.004,-0.020,-0.060,-0.040,0.013,0.993,0.009,0.002,-0.004,-0.008,0.000,0.000,0.000,0.000,0,2,0,1,7,255,1200,200,0,0,-89.597,0.598,-31.110
EX0521-092111,13,C08,prep,1612,1612,0,716094.091,0.685,-0.678,0.193,0.187,0,0,0,0,0,0,0,0,0,0.000,0,0,0.075,0.003,0.040,-0.060,0.020,0.013,0.994,0.008,-0.002,0.002,0.002,0.000,0.000,0.000,0.000,0,2,0,1,7,255,1200,200,0,0,-89.597,0.598,-31.110
EX0521-092111,13,C08,prep,1613,1613,0,716099.092,0.685,-0.678,0.193,0.187,0,0,0,0,0,0,0,0,0,0.000,0,0,0.066,0.012,-0.020,-0.060,0.020,0.012,0.996,0.008,-0.006,0.010,0.002,0.000,0.000,0.000,0.000,0,2,0,1,7,255,1200,200,0,0,-89.597,0.598,-31.110
EX0521-092111,13,C08,prep,1613,1613,0,716104.092,0.685,-0.678,0.193,0.187,0,0,0,0,0,0,0,0,0,0.000,0,0,0.066,0.010,-0.020,-0.060,0.020,0.014,0.993,0.009,-0.002,0.010,0.002,0.000,0.000,0.000,0.000,0,2,0,1,7,255,1200,200,0,0,-89.597,0.598,-31.110
EX0521-092111,13,C08,prep,1615,1615,0,716109.091,0.685,-0.678,0.193,0.187,0,0,0,0,0,0,0,0,0,0.000,0,0,0.089,0.008,-0.080,0.000,-0.040,0.013,0.995,0.010,-0.006,-0.006,0.012,0.000,0.000,0.000,0.000,0,2,0,1,7,255,1200,200,0,0,-89.597,0.598,-31.110
EX0521-092111,13,C08,prep,1615,1615,0,716114.092,0.685,-0.678,0.193,0.187,0,0,0,0,0,0,0,0,0,0.000,0,0,0.082,0.008,-0.080,0.000,0.020,0.013,0.994,0.010,-0.006,-0.006,-0.002,0.000,0.000,0.000,0.000,0,2,0,1,7,255,1200,200,0,0,-89.597,0.598,-31.110
EX0521-092111,13,C08,prep,1642,1642,0,716119.092,0.685,-0.678,0.193,0.187,0,0,0,0,0,0,0,0,0,0.000,0,0,0.075,0.008,-0.020,-0.060,-0.040,0.014,0.994,0.009,-0.006,-0.006,0.002,0.000,0.000,0.000,0.000,0,2,0,1,7,255,1200,200,0,0,-89.598,0.598,-31.110
EX0521-092111,13,C08,prep,1642,1642,0,716124.091,0.685,-0.678,0.193,0.187,0,0,0,0,0,0,0,0,0,0.000,0,0,0.045,0.004,-0.020,0.000,-0.040,0.013,0.996,0.009,-0.004,-0.002,0.002,0.000,0.000,0.000,0.000,0,2,0,1,7,255,1200,200,0,0,-89.598,0.598,-31.110
EX0521-092111,13,C08,prep,1642,1642,0,716129.091,0.685,-0.678,0.193,0.187,0,0,0,0,0,0,0,0,0,0.000,0,0,0.102,0.008,-0.080,-0.060,0.020,0.014,0.995,0.009,0.008,-0.002,0.006,0.000,0.000,0.000,0.000,0,2,0,1,7,255,1200,200,0,0,-89.598,0.598,-31.110
EX0521-092111,13,C08,prep,1642,1642,0,716134.092,0.685,-0.678,0.193,0.187,0,0,0,0,0,0,0,0,0,0.000,0,0,0.154,0.006,-0.140,-0.060,0.020,0.013,0.993,0.008,-0.002,0.006,0.006,0.000,0.000,0.000,0.000,0,2,0,1,7,255,1200,200,0,0,-89.598,0.598,-31.110
EX0521-092111,13,C08,prep,1679,1679,0,716139.091,0.685,-0.678,0.193,0.187,0,0,0,0,0,0,0,0,0,0.000,0,0,0.066,0.003,-0.020,-0.060,0.020,0.013,0.993,0.009,-0.002,-0.002,-0.008,0.000,0.000,0.000,0.000,0,2,0,1,7,255,1200,200,0,0,-89.598,0.598,-31.110
EX0521-092111,13,C08,prep,1679,1679,0,716144.092,0.685,-0.678,0.193,0.187,0,0,0,0,0,0,0,0,0,0.000,0,0,0.108,0.003,-0.080,-0.060,-0.040,0.014,0.993,0.009,-0.002,-0.002,-0.008,0.000,0.000,0.000,0.000,0,2,0,1,7,255,1200,200,0,0,-89.598,0.598,-31.110
EX0521-092111,13,C08,prep,1679,1679,0,716149.092,0.685,-0.678,0.193,0.187,0,0,0,0,0,0,0,0,0,0.000,0,0,0.154,0.003,-0.140,-0.060,0.020,0.013,0.994,0.010,-0.002,-0.002,-0.008,0.000,0.000,0.000,0.000,0,2,0,1,7,255,1200,200,0,0,-89.598,0.598,-31.110
EX0521-092111,13,C08,prep,1679,1679,0,716154.091,0.685,-0.678,0.193,0.187,0,0,0,0,0,0,0,0,0,0.000,0,0,0.108,0.004,-0.080,-0.060,-0.040,0.014,0.994,0.009,0.004,-0.002,-0.002,0.000,0.000,0.000,0.000,0,2,0,1,7,255,1200,200,0,0,-89.598,0.598,-31.110
EX0521-092111,13,C08,prep,1679,1679,0,716159.094,0.685,-0.678,0.193,0.187,0,0,0,0,0,0,0,0,0,0.000,0,0,0.075,0.002,-0.020,-0.060,-0.040,0.013,0.994,0.008,-0.002,0.000,-0.002,0.000,0.000,0.000,0.000,0,2,0,1,7,255,1200,200,0,0,-89.598,0.598,-31.110
EX0521-092111,13,C08,prep,1679,1679,0,716164.092,0.685,-0.678,0.193,0.187,0,0,0,0,0,0,0,0,0,0.000,0,0,0.075,0.002,-0.020,-0.060,-0.040,0.013,0.994,0.009,0.000,0.002,-0.002,0.000,0.000,0.000,0.000,0,2,0,1,7,255,1200,200,0,0,-89.598,0.598,-31.110
EX0521-092111,13,C08,prep,1710,1710,0,716169.091,0.685,-0.678,0.193,0.187,0,0,0,0,0,0,0,0,0,0.000,0,0,0.075,0.002,0.040,-0.060,0.020,0.013,0.995,0.009,0.000,0.002,0.002,0.000,0.000,0.000,0.000,0,2,0,1,7,255,1200,200,0,0,-89.598,0.598,-31.110
EX0521-092111,13,C08,prep,1710,1710,0,716174.091,0.685,-0.678,0.193,0.187,0,0,0,0,0,0,0,0,0,0.000,0,0,0.161,0.002,0.100,-0.120,-0.040,0.012,0.995,0.009,0.000,0.002,0.006,0.000,0.000,0.000,0.000,0,2,0,1,7,255,1200,200,0,0,-89.598,0.598,-31.110
EX0521-092111,13,C08,prep,1711,1711,0,716179.092,0.685,-0.678,0.193,0.187,0,0,0,0,0,0,0,0,0,0.000,0,0,0.082,0.006,0.040,-0.060,-0.040,0.013,0.994,0.010,-0.006,0.002,0.006,0.000,0.000,0.000,0.000,0,2,0,1,7,255,1200,200,0,0,-89.598,0.598,-31.110
EX0521-092111,13,C08,prep,1711,1711,0,716184.091,0.685,-0.678,0.193,0.187,0,0,0,0,0,0,0,0,0,0.000,0,0,0.028,0.006,-0.020,0.000,0.020,0.013,0.994,0.009,-0.006,-0.002,0.002,0.000,0.000,0.000,0.000,0,2,0,1,7,255,1200,200,0,0,-89.598,0.598,-31.110
EX0521-092111,13,C08,prep,1711,1711,0,716189.091,0.685,-0.678,0.193,0.187,0,0,0,0,0,0,0,0,0,0.000,0,0,0.128,0.003,0.040,-0.120,0.020,0.013,0.994,0.009,-0.002,-0.002,0.002,0.000,0.000,0.000,0.000,0,2,0,1,7,255,1200,200,0,0,-89.598,0.598,-31.110
EX0521-092111,13,C08,prep,1711,1711,0,716194.092,0.685,-0.678,0.193,0.187,0,0,0,0,0,0,0,0,0,0.000,0,0,0.057,0.003,0.040,0.000,-0.040,0.013,0.992,0.008,-0.002,-0.002,-0.002,0.000,0.000,0.000,0.000,0,2,0,1,7,255,1200,200,0,0,-89.598,0.598,-31.110
EX0521-092111,13,C08,prep,1712,1712,0,716199.092,0.685,-0.678,0.193,0.187,0,0,0,0,0,0,0,0,0,0.000,0,0,0.123,0.004,0.040,-0.060,-0.100,0.013,0.993,0.009,-0.002,0.004,-0.012,0.000,0.000,0.000,0.000,0,2,0,1,7,255,1200,200,0,0,-89.598,0.598,-31.110
EX0521-092111,13,C08,prep,1712,1712,0,716204.091,0.685,-0.678,0.193,0.187,0,0,0,0,0,0,0,0,0,0.000,0,0,0.082,0.004,0.040,-0.060,-0.040,0.013,0.994,0.009,0.000,0.004,-0.012,0.000,0.000,0.000,0.000,0,2,0,1,7,255,1200,200,0,0,-89.599,0.598,-31.110
EX0521-092111,13,C08,prep,1740,1740,0,716209.092,0.685,-0.678,0.193,0.187,0,0,0,0,0,0,0,0,0,0.000,0,0,0.082,0.002,0.040,-0.060,-0.040,0.014,0.995,0.008,0.000,0.002,0.002,0.000,0.000,0.000,0.000,0,2,0,1,7,255,1200,200,0,0,-89.599,0.598,-31.110
EX0521-092111,13,C08,prep,1740,1740,0,716214.091,0.685,-0.678,0.193,0.187,0,0,0,0,0,0,0,0,0,0.000,0,0,0.075,0.002,0.040,-0.060,0.020,0.013,0.994,0.010,0.000,0.002,0.002,0.000,0.000,0.000,0.000,0,2,0,1,7,255,1200,200,0,0,-89.599,0.598,-31.110
EX0521-092111,13,C08,prep,1741,1741,0,716219.091,0.685,-0.678,0.193,0.187,0,0,0,0,0,0,0,0,0,0.000,0,0,0.128,0.006,-0.020,-0.120,-0.040,0.013,0.993,0.009,-0.006,0.000,0.002,0.000,0.000,0.000,0.000,0,2,0,1,7,255,1200,200,0,0,-89.599,0.598,-31.110
EX0521-092111,13,C08,prep,1741,1741,0,716224.092,0.685,-0.678,0.193,0.187,0,0,0,0,0,0,0,0,0,0.000,0,0,0.082,0.006,0.040,-0.060,-0.040,0.013,0.994,0.009,-0.006,-0.002,-0.002,0.000,0.000,0.000,0.000,0,2,0,1,7,255,1200,200,0,0,-89.599,0.598,-31.110
EX0521-092111,13,C08,prep,1741,1741,0,716229.091,0.685,-0.678,0.193,0.187,0,0,0,0,0,0,0,0,0,0.000,0,0,0.075,0.002,-0.020,-0.060,-0.040,0.014,0.994,0.009,-0.002,0.000,-0.002,0.000,0.000,0.000,0.000,0,2,0,1,7,255,1200,200,0,0,-89.599,0.598,-31.110
EX0521-092111,13,C08,prep,1741,1741,0,716234.091,0.685,-0.678,0.193,0.187,0,0,0,0,0,0,0,0,0,0.000,0,0,0.075,0.003,-0.020,-0.060,-0.040,0.013,0.994,0.010,-0.002,-0.002,0.002,0.000,0.000,0.000,0.000,0,2,0,1,7,255,1200,200,0,0,-89.599,0.598,-31.110
EX0521-092111,13,C08,prep,1771,1771,0,716239.092,0.685,-0.678,0.193,0.187,0,0,0,0,0,0,0,0,0,0.000,0,0,0.075,0.007,-0.020,-0.060,-0.040,0.013,0.994,0.010,-0.006,-0.004,0.002,0.000,0.000,0.000,0.000,0,2,0,1,7,255,1200,200,0,0,-89.599,0.598,-31.110
EX0521-092111,13,C08,prep,1771,1771,0,716244.091,0.685,-0.678,0.193,0.187,0,0,0,0,0,0,0,0,0,0.000,0,0,0.075,0.009,0.040,-0.060,0.020,0.012,0.995,0.009,-0.008,-0.004,0.002,0.000,0.000,0.000,0.000,0,2,0,1,7,255,1200,200,0,0,-89.599,0.598,-31.110
EX0521-092111,13,C08,prep,1803,1803,0,716249.092,0.685,-0.678,0.193,0.187,0,0,0,0,0,0,0,0,0,0.000,0,0,0.133,0.011,0.040,-0.120,-0.040,0.012,0.994,0.008,-0.008,0.008,-0.002,0.000,0.000,0.000,0.000,0,2,0,1,7,255,1200,200,0,0,-89.599,0.598,-31.110
EX0521-092111,13,C08,prep,1803,1803,0,716254.092,0.685,-0.678,0.193,0.187,0,0,0,0,0,0,0,0,0,0.000,0,0,0.128,0.010,-0.020,-0.120,-0.040,0.013,0.994,0.008,-0.006,0.008,-0.002,0.000,0.000,0.000,0.000,0,2,0,1,7,255,1200,200,0,0,-89.599,0.598,-31.110
EX0521-092111,13,C08,prep,1803,1803,0,716259.094,0.685,-0.678,0.193,0.187,0,0,0,0,0,0,0,0,0,0.000,0,0,0.075,0.008,0.040,-0.060,0.020,0.013,0.994,0.009,-0.002,0.008,-0.002,0.000,0.000,0.000,0.000,0,2,0,1,7,255,1200,200,0,0,-89.599,0.598,-31.110
EX0521-092111,13,C08,prep,1803,1803,0,716264.091,0.685,-0.678,0.193,0.187,0,0,0,0,0,0,0,0,0,0.000,0,0,0.075,0.003,-0.020,-0.060,-0.040,0.013,0.995,0.009,-0.002,0.002,-0.002,0.000,0.000,0.000,0.000,0,2,0,1,7,255,1200,200,0,0,-89.599,0.598,-31.110
EX0521-092111,13,C08,prep,1803,1803,0,716269.092,0.685,-0.678,0.193,0.187,0,0,0,0,0,0,0,0,0,0.000,0,0,0.133,0.006,0.040,-0.120,-0.040,0.013,0.995,0.009,-0.006,0.000,0.008,0.000,0.000,0.000,0.000,0,2,0,1,7,255,1200,200,0,0,-89.599,0.598,-31.110
EX0521-092111,13,C08,prep,1803,1803,0,716274.091,0.685,-0.678,0.193,0.187,0,0,0,0,0,0,0,0,0,0.000,0,0,0.075,0.006,-0.020,-0.060,-0.040,0.013,0.994,0.010,-0.006,0.000,0.008,0.000,0.000,0.000,0.000,0,2,0,1,7,255,1200,200,0,0,-89.599,0.598,-31.110
EX0521-092111,13,C08,prep,1804,1804,0,716279.091,0.685,-0.678,0.193,0.187,0,0,0,0,0,0,0,0,0,0.000,0,0,0.045,0.007,-0.020,0.000,-0.040,0.014,0.994,0.009,-0.004,-0.006,-0.002,0.000,0.000,0.000,0.000,0,2,0,1,7,255,1200,200,0,0,-89.599,0.598,-31.110
EX0521-092111,13,C08,prep,1804,1804,0,716284.092,0.685,-0.678,0.193,0.187,0,0,0,0,0,0,0,0,0,0.000,0,0,0.082,0.006,0.040,-0.060,-0.040,0.013,0.994,0.009,-0.002,-0.006,-0.002,0.000,0.000,0.000,0.000,0,2,0,1,7,255,1200,200,0,0,-89.599,0.598,-31.110
EX0521-092111,13,C08,prep,1804,1804,0,716289.091,0.685,-0.678,0.193,0.187,0,0,0,0,0,0,0,0,0,0.000,0,0,0.082,0.003,0.040,-0.060,-0.040,0.013,0.994,0.008,0.002,-0.002,-0.002,0.000,0.000,0.000,0.000,0,2,0,1,7,255,1200,200,0,0,-89.600,0.598,-31.110
EX0521-092111,13,C08,prep,1804,1804,0,716294.091,0.685,-0.678,0.193,0.187,0,0,0,0,0,0,0,0,0,0.000,0,0,0.161,0.002,0.100,-0.120,-0.040,0.014,0.994,0.009,0.002,0.000,-0.002,0.000,0.000,0.000,0.000,0,2,0,1,7,255,1200,200,0,0,-89.600,0.598,-31.110
EX0521-092111,13,C08,prep,1823,1823,0,716299.093,0.685,-0.678,0.193,0.187,0,0,0,0,0,0,0,0,0,0.000,0,0,0.082,0.004,0.040,-0.060,-0.040,0.014,0.994,0.009,0.004,0.000,-0.002,0.000,0.000,0.000,0.000,0,2,0,1,7,255,1200,200,0,0,-89.600,0.598,-31.110
EX0521-092111,13,C08,prep,1823,1823,0,716304.091,0.685,-0.678,0.193,0.187,0,0,0,0,0,0,0,0,0,0.000,0,0,0.075,0.004,-0.020,-0.060,-0.040,0.013,0.993,0.009,0.004,-0.002,-0.002,0.000,0.000,0.000,0.000,0,2,0,1,7,255,1200,200,0,0,-89.600,0.598,-31.110
EX0521-092111,13,C08,prep,1823,1823,0,716309.092,0.685,-0.678,0.193,0.187,0,0,0,0,0,0,0,0,0,0.000,0,0,0.075,0.003,-0.020,-0.060,-0.040,0.013,0.994,0.009,-0.002,-0.002,-0.002,0.000,0.000,0.000,0.000,0,2,0,1,7,255,1200,200,0,0,-89.600,0.598,-31.110
EX0521-092111,13,C08,prep,1823,1823,0,716314.092,0.685,-0.678,0.193,0.187,0,0,0,0,0,0,0,0,0,0.000,0,0,0.128,0.003,-0.020,-0.120,-0.040,0.014,0.995,0.009,-0.002,-0.002,-0.002,0.000,0.000,0.000,0.000,0,2,0,1,7,255,1200,200,0,0,-89.600,0.598,-31.110
EX0521-092111,13,C08,prep,1839,1839,0,716319.091,0.685,-0.678,0.193,0.187,0,0,0,0,0,0,0,0,0,0.000,0,0,0.057,0.004,0.040,0.000,-0.040,0.013,0.995,0.009,-0.004,0.000,0.008,0.000,0.000,0.000,0.000,0,2,0,1,7,255,1200,200,0,0,-89.600,0.598,-31.110
EX0521-092111,13,C08,prep,1839,1839,0,716324.092,0.685,-0.678,0.193,0.187,0,0,0,0,0,0,0,0,0,0.000,0,0,0.075,0.002,-0.020,-0.060,-0.040,0.014,0.995,0.009,0.002,0.000,0.008,0.000,0.000,0.000,0.000,0,2,0,1,7,255,1200,200,0,0,-89.600,0.598,-31.110
EX0521-092111,13,C08,prep,1840,1840,0,716329.092,0.685,-0.678,0.193,0.187,0,0,0,0,0,0,0,0,0,0.000,0,0,0.045,0.004,-0.020,0.000,-0.040,0.014,0.993,0.009,0.004,0.000,0.008,0.000,0.000,0.000,0.000,0,2,0,1,7,255,1200,200,0,0,-89.600,0.598,-31.110
EX0521-092111,13,C08,prep,1840,1840,0,716334.091,0.685,-0.678,0.193,0.187,0,0,0,0,0,0,0,0,0,0.000,0,0,0.075,0.004,-0.020,-0.060,-0.040,0.013,0.993,0.009,0.004,0.000,-0.008,0.000,0.000,0.000,0.000,0,2,0,1,7,255,1200,200,0,0,-89.600,0.598,-31.110
EX0521-092111,13,C08,prep,1855,1855,0,716339.091,0.685,-0.678,0.193,0.187,0,0,0,0,0,0,0,0,0,0.000,0,0,0.102,0.004,-0.080,-0.060,0.020,0.013,0.993,0.010,-0.004,0.000,-0.008,0.000,0.000,0.000,0.000,0,2,0,1,7,255,1200,200,0,0,-89.600,0.598,-31.110
EX0521-092111,13,C08,prep,1855,1855,0,716344.092,0.685,-0.678,0.193,0.187,0,0,0,0,0,0,0,0,0,0.000,0,0,0.075,0.007,-0.020,-0.060,-0.040,0.013,0.994,0.010,-0.004,-0.006,-0.006,0.000,0.000,0.000,0.000,0,2,0,1,7,255,1200,200,0,0,-89.600,0.598,-31.110
EX0521-092111,13,C08,prep,1887,1887,0,716349.091,0.685,-0.678,0.193,0.187,0,0,0,0,0,0,0,0,0,0.000,0,0,0.082,0.007,0.040,-0.060,-0.040,0.012,0.994,0.008,-0.004,-0.006,-0.002,0.000,0.000,0.000,0.000,0,2,0,1,7,255,1200,200,0,0,-89.600,0.598,-31.110
EX0521-092111,13,C08,prep,1887,1887,0,716354.092,0.685,-0.678,0.193,0.187,0,0,0,0,0,0,0,0,0,0.000,0,0,0.123,0.007,0.100,-0.060,-0.040,0.014,0.994,0.009,-0.004,-0.006,0.002,0.000,0.000,0.000,0.000,0,2,0,1,7,255,1200,200,0,0,-89.600,0.598,-31.110
EX0521-092111,13,C08,prep,1887,1887,0,716359.095,0.685,-0.678,0.193,0.187,0,0,0,0,0,0,0,0,0,0.000,0,0,0.082,0.007,0.040,-0.060,-0.040,0.013,0.994,0.010,-0.006,-0.004,0.002,0.000,0.000,0.000,0.000,0,2,0,1,7,255,1200,200,0,0,-89.600,0.598,-31.110
EX0521-092111,13,C08,prep,1887,1887,0,716364.091,0.685,-0.678,0.193,0.187,0,0,0,0,0,0,0,0,0,0.000,0,0,0.128,0.004,-0.020,-0.120,-0.040,0.013,0.993,0.009,0.000,-0.004,-0.002,0.000,0.000,0.000,0.000,0,2,0,1,7,255,1200,200,0,0,-89.600,0.598,-31.110
EX0521-092111,13,C08,prep,1887,1887,0,716369.092,0.685,-0.678,0.193,0.187,0,0,0,0,0,0,0,0,0,0.000,0,0,0.075,0.004,-0.020,-0.060,-0.040,0.015,0.993,0.009,0.000,-0.004,-0.008,0.000,0.000,0.000,0.000,0,2,0,1,7,255,1200,200,0,0,-89.600,0.598,-31.110
EX0521-092111,13,C08,prep,1887,1887,0,716374.092,0.685,-0.678,0.193,0.187,0,0,0,0,0,0,0,0,0,0.000,0,0,0.075,0.002,-0.020,-0.060,-0.040,0.013,0.996,0.008,0.000,0.002,-0.008,0.000,0.000,0.000,0.000,0,2,0,1,7,255,1200,200,0,0,-89.601,0.598,-31.110
EX0521-092111,13,C08,prep,1914,1914,0,716379.091,0.685,-0.678,0.193,0.187,0,0,0,0,0,0,0,0,0,0.000,0,0,0.128,0.002,0.040,-0.120,0.020,0.013,0.995,0.009,-0.002,0.000,0.008,0.000,0.000,0.000,0.000,0,2,0,1,7,255,1200,200,0,0,-89.601,0.598,-31.110
EX0521-092111,13,C08,prep,1914,1914,0,716384.092,0.685,-0.678,0.193,0.187,0,0,0,0,0,0,0,0,0,0.000,0,0,0.146,0.006,-0.020,-0.120,0.080,0.013,0.995,0.009,-0.006,0.000,0.012,0.000,0.000,0.000,0.000,0,2,0,1,7,255,1200,200,0,0,-89.601,0.598,-31.110
EX0521-092111,13,C08,prep,1915,1915,0,716389.092,0.685,-0.678,0.193,0.187,0,0,0,0,0,0,0,0,0,0.000,0,0,0.075,0.006,-0.020,-0.060,-0.040,0.013,0.994,0.008,-0.006,0.000,0.008,0.000,0.000,0.000,0.000,0,2,0,1,7,255,1200,200,0,0,-89.601,0.598,-31.110
EX0521-092111,13,C08,prep,1915,1915,0,716394.091,0.685,-0.678,0.193,0.187,0,0,0,0,0,0,0,0,0,0.000,0,0,0.154,0.006,-0.140,-0.060,0.020,0.013,0.994,0.008,0.002,0.006,0.002,0.000,0.000,0.000,0.000,0,2,0,1,7,255,1200,200,0,0,-89.601,0.598,-31.110
EX0521-092111,13,C08,prep,1916,1916,0,716399.092,0.685,-0.678,0.193,0.187,0,0,0,0,0,0,0,0,0,0.000,0,0,0.128,0.006,-0.020,-0.120,-0.040,0.014,0.994,0.009,0.002,0.006,-0.002,0.000,0.000,0.000,0.000,0,2,0,1,7,255,1200,200,0,0,-89.601,0.598,-31.110
EX0521-092111,13,C08,prep,1916,1916,0,716404.092,0.685,-0.678,0.193,0.187,0,0,0,0,0,0,0,0,0,0.000,0,0,0.057,0.003,0.040,0.000,-0.040,0.012,0.993,0.009,0.002,0.002,-0.002,0.000,0.000,0.000,0.000,0,2,0,1,7,255,1200,200,0,0,-89.601,0.597,-31.110
EX0521-092111,13,C08,prep,1916,1916,0,716409.091,0.685,-0.678,0.193,0.187,0,0,0,0,0,0,0,0,0,0.000,0,0,0.075,0.004,-0.020,-0.060,-0.040,0.014,0.994,0.008,0.004,0.002,-0.002,0.000,0.000,0.000,0.000,0,2,0,1,7,255,1200,200,0,0,-89.601,0.597,-31.110
EX0521-092111,13,C08,prep,1916,1916,0,716414.092,0.685,-0.678,0.193,0.187,0,0,0,0,0,0,0,0,0,0.000,0,0,0.108,0.006,-0.080,-0.060,-0.040,0.014,0.994,0.008,0.006,0.002,-0.002,0.000,0.000,0.000,0.000,0,2,0,1,7,255,1200,200,0,0,-89.601,0.597,-31.110
EX0521-092111,13,C08,prep,1936,1936,0,716419.092,0.685,-0.678,0.193,0.187,0,0,0,0,0,0,0,0,0,0.000,0,0,0.045,0.007,-0.020,0.000,-0.040,0.014,0.994,0.008,0.006,0.004,-0.002,0.000,0.000,0.000,0.000,0,2,0,1,7,255,1200,200,0,0,-89.601,0.597,-31.110
EX0521-092111,13,C08,prep,1936,1936,0,716424.091,0.685,-0.678,0.193,0.187,0,0,0,0,0,0,0,0,0,0.000,0,0,0.066,0.006,-0.020,-0.060,0.020,0.013,0.994,0.009,0.006,0.002,-0.002,0.000,0.000,0.000,0.000,0,2,0,1,7,255,1200,200,0,0,-89.601,0.597,-31.110
EX0521-092111,13,C08,prep,1937,1937,0,716429.092,0.685,-0.678,0.193,0.187,0,0,0,0,0,0,0,0,0,0.000,0,0,0.075,0.006,-0.020,-0.060,-0.040,0.015,0.995,0.009,0.006,-0.002,-0.002,0.000,0.000,0.000,0.000,0,2,0,1,7,255,1200,200,0,0,-89.601,0.597,-31.110
EX0521-092111,13,C08,prep,1937,1937,0,716434.092,0.685,-0.678,0.193,0.187,0,0,0,0,0,0,0,0,0,0.000,0,0,0.066,0.003,-0.020,-0.060,0.020,0.013,0.993,0.009,-0.002,-0.002,-0.002,0.000,0.000,0.000,0.000,0,2,0,1,7,255,1200,200,0,0,-89.601,0.597,-31.110
EX0521-092111,13,C08,prep,1951,1951,0,716439.091,0.685,-0.678,0.193,0.187,0,0,0,0,0,0,0,0,0,0.000,0,0,0.028,0.006,-0.020,0.000,0.020,0.013,0.994,0.009,-0.006,0.000,-0.002,0.000,0.000,0.000,0.000,0,2,0,1,7,255,1200,200,0,0,-89.601,0.597,-31.110
EX0521-092111,13,C08,prep,1951,1951,0,716444.092,0.685,-0.678,0.193,0.187,0,0,0,0,0,0,0,0,0,0.000,0,0,0.045,0.006,-0.020,0.000,-0.040,0.014,0.994,0.009,-0.006,0.000,-0.002,0.000,0.000,0.000,0.000,0,2,0,1,7,255,1200,200,0,0,-89.601,0.597,-31.110
EX0521-092111,13,C08,prep,1983,1983,0,716449.092,0.685,-0.678,0.193,0.187,0,0,0,0,0,0,0,0,0,0.000,0,0,0.066,0.004,-0.020,-0.060,0.020,0.014,0.996,0.010,0.000,-0.004,0.002,0.000,0.000,0.000,0.000,0,2,0,1,7,255,1200,200,0,0,-89.601,0.597,-31.110
EX0521-092111,13,C08,prep,1983,1983,0,716454.091,0.685,-0.678,0.193,0.187,0,0,0,0,0,0,0,0,0,0.000,0,0,0.133,0.004,0.040,-0.120,-0.040,0.014,0.994,0.008,0.002,-0.004,0.002,0.000,0.000,0.000,0.000,0,2,0,1,7,255,1200,200,0,0,-89.602,0.597,-31.110
EX0521-092111,13,C08,prep,1983,1983,0,716459.094,0.685,-0.678,0.193,0.187,0,0,0,0,0,0,0,0,0,0.000,0,0,0.082,0.003,0.040,-0.060,-0.040,0.013,0.995,0.008,0.002,0.002,0.006,0.000,0.000,0.000,0.000,0,2,0,1,7,255,1200,200,0,0,-89.602,0.597,-31.110
EX0521-092111,13,C08,prep,1983,1983,0,716464.092,0.685,-0.678,0.193,0.187,0,0,0,0,0,0,0,0,0,0.000,0,0,0.157,0.003,-0.020,-0.120,-0.100,0.014,0.993,0.010,0.002,0.002,0.002,0.000,0.000,0.000,0.000,0,2,0,1,7,255,1200,200,0,0,-89.602,0.597,-31.110
EX0521-092111,13,C08,prep,1983,1983,0,716469.091,0.685,-0.678,0.193,0.187,0,0,0,0,0,0,0,0,0,0.000,0,0,0.082,0.006,0.040,-0.060,-0.040,0.013,0.994,0.010,-0.004,-0.004,0.002,0.000,0.000,0.000,0.000,0,2,0,1,7,255,1200,200,0,0,-89.602,0.597,-31.110
EX0521-092111,13,C08,prep,1983,1983,0,716474.092,0.685,-0.678,0.193,0.187,0,0,0,0,0,0,0,0,0,0.000,0,0,0.045,0.009,-0.020,0.000,-0.040,0.012,0.994,0.009,-0.008,-0.004,-0.002,0.000,0.000,0.000,0.000,0,2,0,1,7,255,1200,200,0,0,-89.602,0.597,-31.110
EX0521-092111,13,C08,prep,2005,2005,0,716479.092,0.685,-0.678,0.193,0.187,0,0,0,0,0,0,0,0,0,0.000,0,0,0.075,0.008,-0.020,-0.060,-0.040,0.013,0.994,0.009,-0.008,0.002,-0.002,0.000,0.000,0.000,0.000,0,2,0,1,7,255,1200,200,0,0,-89.602,0.597,-31.110
EX0521-092111,13,C08,prep,2005,2005,0,716484.091,0.685,-0.678,0.193,0.187,0,0,0,0,0,0,0,0,0,0.000,0,0,0.075,0.002,-0.020,-0.060,-0.040,0.014,0.993,0.010,0.000,0.002,-0.002,0.000,0.000,0.000,0.000,0,2,0,1,7,255,1200,200,0,0,-89.602,0.597,-31.110
EX0521-092111,13,C08,prep,2006,2006,0,716489.092,0.685,-0.678,0.193,0.187,0,0,0,0,0,0,0,0,0,0.000,0,0,0.045,0.002,-0.020,0.000,-0.040,0.014,0.994,0.008,0.000,0.002,-0.002,0.000,0.000,0.000,0.000,0,2,0,1,7,255,1200,200,0,0,-89.602,0.597,-31.110
EX0521-092111,13,C08,prep,2006,2006,0,716494.092,0.685,-0.678,0.193,0.187,0,0,0,0,0,0,0,0,0,0.000,0,0,0.082,0.002,-0.080,0.000,0.020,0.012,0.992,0.010,0.000,-0.002,-0.008,0.000,0.000,0.000,0.000,0,2,0,1,7,255,1200,200,0,0,-89.602,0.597,-31.110
EX0521-092111,13,C08,prep,2006,2006,0,716499.092,0.685,-0.678,0.193,0.187,0,0,0,0,0,0,0,0,0,0.000,0,0,0.075,0.003,-0.020,-0.060,-0.040,0.014,0.994,0.009,0.002,-0.002,0.002,0.000,0.000,0.000,0.000,0,2,0,1,7,255,1200,200,0,0,-89.602,0.597,-31.110
EX0521-092111,13,C08,prep,2006,2006,0,716504.092,0.685,-0.678,0.193,0.187,0,0,0,0,0,0,0,0,0,0.000,0,0,0.075,0.004,-0.020,-0.060,-0.040,0.014,0.994,0.009,0.002,-0.004,-0.002,0.000,0.000,0.000,0.000,0,2,0,1,7,255,1200,200,0,0,-89.602,0.597,-31.110
EX0521-092111,13,C08,prep,2036,2036,0,716509.092,0.685,-0.678,0.193,0.187,0,0,0,0,0,0,0,0,0,0.000,0,0,0.075,0.004,-0.020,-0.060,-0.040,0.011,0.993,0.009,0.002,-0.004,-0.002,0.000,0.000,0.000,0.000,0,2,0,1,7,255,1200,200,0,0,-89.602,0.597,-31.110
EX0521-092111,13,C08,prep,2037,2037,0,716514.091,0.685,-0.678,0.193,0.187,0,0,0,0,0,0,0,0,0,0.000,0,0,0.066,0.003,-0.020,-0.060,0.020,0.013,0.994,0.009,-0.002,-0.002,-0.002,0.000,0.000,0.000,0.000,0,2,0,1,7,255,1200,200,0,0,-89.602,0.597,-31.110
EX0521-092111,13,C08,prep,2037,2037,0,716519.092,0.685,-0.678,0.193,0.187,0,0,0,0,0,0,0,0,0,0.000,0,0,0.108,0.002,-0.080,-0.060,-0.040,0.014,0.995,0.009,-0.002,0.000,-0.002,0.000,0.000,0.000,0.000,0,2,0,1,7,255,1200,200,0,0,-89.602,0.597,-31.110
EX0521-092111,13,C08,prep,2037,2037,0,716524.092,0.685,-0.678,0.193,0.187,0,0,0,0,0,0,0,0,0,0.000,0,0,0.075,0.004,-0.020,-0.060,-0.040,0.014,0.993,0.008,0.004,0.000,-0.002,0.000,0.000,0.000,0.000,0,2,0,1,7,255,1200,200,0,0,-89.602,0.597,-31.110
EX0521-092111,13,C08,prep,2037,2037,0,716529.091,0.685,-0.678,0.193,0.187,0,0,0,0,0,0,0,0,0,0.000,0,0,0.075,0.004,-0.020,-0.060,-0.040,0.013,0.993,0.009,0.004,0.002,-0.006,0.000,0.000,0.000,0.000,0,2,0,1,7,255,1200,200,0,0,-89.602,0.597,-31.110
EX0521-092111,13,C08,prep,2037,2037,0,716534.092,0.685,-0.678,0.193,0.187,0,0,0,0,0,0,0,0,0,0.000,0,0,0.075,0.004,-0.020,-0.060,-0.040,0.014,0.994,0.009,0.004,0.002,-0.006,0.000,0.000,0.000,0.000,0,2,0,1,7,255,1200,200,0,0,-89.602,0.597,-31.110
EX0521-092111,13,C08,prep,2073,2073,0,716539.092,0.685,-0.678,0.193,0.187,0,0,0,0,0,0,0,0,0,0.000,0,0,0.075,0.002,-0.020,-0.060,-0.040,0.014,0.995,0.009,0.002,0.000,0.002,0.000,0.000,0.000,0.000,0,2,0,1,7,255,1200,200,0,0,-89.603,0.597,-31.110
EX0521-092111,13,C08,prep,2073,2073,0,716544.091,0.685,-0.678,0.193,0.187,0,0,0,0,0,0,0,0,0,0.000,0,0,0.108,0.004,-0.080,-0.060,-0.040,0.014,0.994,0.008,0.004,0.000,0.002,0.000,0.000,0.000,0.000,0,2,0,1,7,255,1200,200,0,0,-89.603,0.597,-31.110
EX0521-092111,13,C08,prep,2097,2097,0,716549.092,0.685,-0.678,0.193,0.187,0,0,0,0,0,0,0,0,0,0.000,0,0,0.075,0.004,-0.020,-0.060,-0.040,0.014,0.993,0.010,0.002,-0.004,0.002,0.000,0.000,0.000,0.000,0,2,0,1,7,255,1200,200,0,0,-89.603,0.597,-31.110
EX0521-092111,13,C08,prep,2097,2097,0,716554.092,0.685,-0.678,0.193,0.187,0,0,0,0,0,0,0,0,0,0.000,0,0,0.066,0.004,-0.020,-0.060,0.020,0.013,0.994,0.008,0.002,0.004,0.002,0.000,0.000,0.000,0.000,0,2,0,1,7,255,1200,200,0,0,-89.603,0.597,-31.110
EX0521-092111,13,C08,prep,2097,2097,0,716559.095,0.685,-0.678,0.193,0.187,0,0,0,0,0,0,0,0,0,0.000,0,0,0.118,0.008,-0.020,-0.060,-0.100,0.014,0.993,0.010,0.000,-0.008,-0.006,0.000,0.000,0.000,0.000,0,2,0,1,7,255,1200,200,0,0,-89.603,0.597,-31.110
EX0521-092111,13,C08,prep,2097,2097,0,716564.092,0.685,-0.678,0.193,0.187,0,0,0,0,0,0,0,0,0,0.000,0,0,0.075,0.006,-0.020,-0.060,-0.040,0.013,0.994,0.008,0.000,0.006,-0.002,0.000,0.000,0.000,0.000,0,2,0,1,7,255,1200,200,0,0,-89.603,0.597,-31.110
EX0521-092111,13,C08,prep,2097,2097,0,716569.092,0.685,-0.678,0.193,0.187,0,0,0,0,0,0,0,0,0,0.000,0,0,0.123,0.003,0.100,-0.060,-0.040,0.013,0.994,0.009,-0.002,-0.002,-0.002,0.000,0.000,0.000,0.000,0,2,0,1,7,255,1200,200,0,0,-89.603,0.597,-31.110
EX0521-092111,13,C08,prep,2097,2097,0,716574.091,0.685,-0.678,0.193,0.187,0,0,0,0,0,0,0,0,0,0.000,0,0,0.082,0.003,0.040,-0.060,-0.040,0.013,0.993,0.010,-0.002,-0.002,-0.002,0.000,0.000,0.000,0.000,0,2,0,1,7,255,1200,200,0,0,-89.603,0.597,-31.110
EX0521-092111,13,C08,prep,2097,2097,0,716579.092,0.685,-0.678,0.193,0.187,0,0,0,0,0,0,0,0,0,0.000,0,0,0.123,0.004,0.100,-0.060,-0.040,0.013,0.995,0.009,-0.004,-0.002,-0.002,0.000,0.000,0.000,0.000,0,2,0,1,7,255,1200,200,0,0,-89.603,0.597,-31.110
EX0521-092111,13,C08,prep,2097,2097,0,716584.092,0.685,-0.678,0.193,0.187,0,0,0,0,0,0,0,0,0,0.000,0,0,0.082,0.004,0.040,-0.060,-0.040,0.013,0.995,0.009,-0.004,-0.002,0.008,0.000,0.000,0.000,0.000,0,2,0,1,7,255,1200,200,0,0,-89.603,0.597,-31.110
EX0521-092111,13,C08,prep,2098,2098,0,716589.091,0.685,-0.678,0.193,0.187,0,0,0,0,0,0,0,0,0,0.000,0,0,0.066,0.004,-0.020,-0.060,0.020,0.013,0.995,0.009,-0.004,0.000,0.008,0.000,0.000,0.000,0.000,0,2,0,1,7,255,1200,200,0,0,-89.603,0.597,-31.110
EX0521-092111,13,C08,prep,2098,2098,0,716594.092,0.685,-0.678,0.193,0.187,0,0,0,0,0,0,0,0,0,0.000,0,0,0.089,0.003,-0.080,0.000,-0.040,0.013,0.993,0.009,-0.002,-0.002,0.008,0.000,0.000,0.000,0.000,0,2,0,1,7,255,1200,200,0,0,-89.603,0.597,-31.110
EX0521-092111,13,C08,prep,2111,2111,0,716599.092,0.685,-0.678,0.193,0.187,0,0,0,0,0,0,0,0,0,0.000,0,0,0.075,0.003,-0.020,-0.060,-0.040,0.014,0.993,0.009,-0.002,-0.002,-0.006,0.000,0.000,0.000,0.000,0,2,0,1,7,255,1200,200,0,0,-89.603,0.597,-31.110
EX0521-092111,13,C08,prep,2111,2111,0,716604.091,0.685,-0.678,0.193,0.187,0,0,0,0,0,0,0,0,0,0.000,0,0,0.075,0.003,-0.020,-0.060,-0.040,0.014,0.992,0.009,0.002,-0.002,-0.006,0.000,0.000,0.000,0.000,0,2,0,1,7,255,1200,200,0,0,-89.603,0.597,-31.110
EX0521-092111,13,C08,prep,2133,2133,0,716609.092,0.685,-0.678,0.193,0.187,0,0,0,0,0,0,0,0,0,0.000,0,0,0.108,0.003,-0.080,-0.060,-0.040,0.013,0.993,0.009,0.002,-0.002,-0.006,0.000,0.000,0.000,0.000,0,2,0,1,7,255,1200,200,0,0,-89.603,0.597,-31.110
EX0521-092111,13,C08,prep,2133,2133,0,716614.092,0.685,-0.678,0.193,0.187,0,0,0,0,0,0,0,0,0,0.000,0,0,0.108,0.003,-0.080,-0.060,-0.040,0.013,0.994,0.009,-0.002,-0.002,-0.006,0.000,0.000,0.000,0.000,0,2,0,1,7,255,1200,200,0,0,-89.603,0.597,-31.110
EX0521-092111,13,C08,prep,2133,2133,0,716619.091,0.685,-0.678,0.193,0.187,0,0,0,0,0,0,0,0,0,0.000,0,0,0.082,0.003,-0.080,0.000,0.020,0.014,0.994,0.009,-0.002,-0.002,0.002,0.000,0.000,0.000,0.000,0,2,0,1,7,255,1200,200,0,0,-89.603,0.597,-31.110
EX0521-092111,13,C08,prep,2133,2133,0,716624.092,0.685,-0.678,0.193,0.187,0,0,0,0,0,0,0,0,0,0.000,0,0,0.066,0.004,-0.020,-0.060,0.020,0.014,0.994,0.009,0.004,-0.002,0.002,0.000,0.000,0.000,0.000,0,2,0,1,7,255,1200,200,0,0,-89.604,0.597,-31.110
EX0521-092111,13,C08,prep,2143,2143,0,716629.092,0.685,-0.678,0.193,0.187,0,0,0,0,0,0,0,0,0,0.000,0,0,0.082,0.006,0.040,-0.060,-0.040,0.014,0.994,0.009,0.006,-0.002,0.002,0.000,0.000,0.000,0.000,0,2,0,1,7,255,1200,200,0,0,-89.604,0.597,-31.110
EX0521-092111,13,C08,prep,2143,2143,0,716634.091,0.685,-0.678,0.193,0.187,0,0,0,0,0,0,0,0,0,0.000,0,0,0.082,0.004,0.040,-0.060,-0.040,0.013,0.994,0.009,0.004,-0.002,0.002,0.000,0.000,0.000,0.000,0,2,0,1,7,255,1200,200,0,0,-89.604,0.597,-31.110
EX0521-092111,13,C08,prep,2166,2166,0,716639.092,0.685,-0.678,0.193,0.187,0,0,0,0,0,0,0,0,0,0.000,0,0,0.045,0.003,-0.020,0.000,-0.040,0.013,0.993,0.009,-0.002,-0.002,-0.002,0.000,0.000,0.000,0.000,0,2,0,1,7,255,1200,200,0,0,-89.604,0.597,-31.110
EX0521-092111,13,C08,prep,2166,2166,0,716644.092,0.685,-0.678,0.193,0.187,0,0,0,0,0,0,0,0,0,0.000,0,0,0.123,0.003,-0.020,-0.120,0.020,0.013,0.993,0.009,-0.002,-0.002,-0.006,0.000,0.000,0.000,0.000,0,2,0,1,7,255,1200,200,0,0,-89.604,0.597,-31.110
EX0521-092111,13,C08,prep,2205,2205,0,716649.091,0.685,-0.678,0.193,0.187,0,0,0,0,0,0,0,0,0,0.000,0,0,0.082,0.002,0.040,-0.060,-0.040,0.014,0.993,0.008,-0.002,0.000,-0.012,0.000,0.000,0.000,0.000,0,2,0,1,7,255,1200,200,0,0,-89.604,0.597,-31.110
EX0521-092111,13,C08,prep,2205,2205,0,716654.092,0.685,-0.678,0.193,0.187,0,0,0,0,0,0,0,0,0,0.000,0,0,0.075,0.004,-0.020,-0.060,-0.040,0.013,0.994,0.008,0.002,0.004,-0.006,0.000,0.000,0.000,0.000,0,2,0,1,7,255,1200,200,0,0,-89.604,0.597,-31.110
EX0521-092111,13,C08,prep,2205,2205,0,716659.094,0.685,-0.678,0.193,0.187,0,0,0,0,0,0,0,0,0,0.000,0,0,0.146,0.004,-0.080,-0.120,0.020,0.012,0.994,0.009,0.002,0.004,0.002,0.000,0.000,0.000,0.000,0,2,0,1,7,255,1200,200,0,0,-89.604,0.597,-31.110
EX0521-092111,13,C08,prep,2205,2205,0,716664.091,0.685,-0.678,0.193,0.187,0,0,0,0,0,0,0,0,0,0.000,0,0,0.045,0.004,-0.020,0.000,-0.040,0.013,0.993,0.010,-0.004,0.002,0.002,0.000,0.000,0.000,0.000,0,2,0,1,7,255,1200,200,0,0,-89.604,0.597,-31.110
EX0521-092111,13,C08,prep,2205,2205,0,716669.092,0.685,-0.678,0.193,0.187,0,0,0,0,0,0,0,0,0,0.000,0,0,0.082,0.004,0.040,-0.060,-0.040,0.014,0.994,0.009,-0.004,-0.002,0.002,0.000,0.000,0.000,0.000,0,2,0,1,7,255,1200,200,0,0,-89.604,0.597,-31.110
EX0521-092111,13,C08,prep,2205,2205,0,716674.092,0.685,-0.678,0.193,0.187,0,0,0,0,0,0,0,0,0,0.000,0,0,0.082,0.004,0.040,-0.060,-0.040,0.014,0.994,0.009,0.002,-0.004,-0.002,0.000,0.000,0.000,0.000,0,2,0,1,7,255,1200,200,0,0,-89.604,0.597,-31.110
EX0521-092111,13,C08,prep,2206,2206,0,716679.091,0.685,-0.678,0.193,0.187,0,0,0,0,0,0,0,0,0,0.000,0,0,0.146,0.003,-0.080,-0.120,0.020,0.013,0.994,0.009,0.002,-0.002,0.004,0.000,0.000,0.000,0.000,0,2,0,1,7,255,1200,200,0,0,-89.604,0.597,-31.110
EX0521-092111,13,C08,prep,2206,2206,0,716684.092,0.685,-0.678,0.193,0.187,0,0,0,0,0,0,0,0,0,0.000,0,0,0.028,0.004,-0.020,0.000,0.020,0.013,0.994,0.010,0.000,-0.004,-0.002,0.000,0.000,0.000,0.000,0,2,0,1,7,255,1200,200,0,0,-89.604,0.597,-31.110
EX0521-092111,13,C08,prep,2208,2208,0,716689.092,0.685,-0.678,0.193,0.187,0,0,0,0,0,0,0,0,0,0.000,0,0,0.075,0.002,-0.020,-0.060,-0.040,0.013,0.993,0.008,0.000,0.002,-0.002,0.000,0.000,0.000,0.000,0,2,0,1,7,255,1200,200,0,0,-89.604,0.597,-31.110
EX0521-092111,13,C08,prep,2208,2208,0,716694.091,0.685,-0.678,0.193,0.187,0,0,0,0,0,0,0,0,0,0.000,0,0,0.108,0.004,-0.080,-0.060,-0.040,0.014,0.994,0.009,0.002,-0.004,-0.002,0.000,0.000,0.000,0.000,0,2,0,1,7,255,1200,200,0,0,-89.604,0.597,-31.110
EX0521-092111,13,C08,prep,2208,2208,0,716699.092,0.685,-0.678,0.193,0.187,0,0,0,0,0,0,0,0,0,0.000,0,0,0.066,0.004,-0.020,-0.060,0.020,0.013,0.994,0.009,0.002,0.004,0.004,0.000,0.000,0.000,0.000,0,2,0,1,7,255,1200,200,0,0,-89.604,0.597,-31.110
EX0521-092111,13,C08,prep,2208,2208,0,716704.092,0.685,-0.678,0.193,0.187,0,0,0,0,0,0,0,0,0,0.000,0,0,0.141,0.004,-0.080,-0.060,-0.100,0.014,0.995,0.008,0.002,0.004,0.004,0.000,0.000,0.000,0.000,0,2,0,1,7,255,1200,200,0,0,-89.604,0.597,-31.110
EX0521-092111,13,C08,prep,2238,2238,0,716709.091,0.685,-0.678,0.193,0.187,0,0,0,0,0,0,0,0,0,0.000,0,0,0.075,0.006,-0.020,-0.060,-0.040,0.013,0.992,0.009,-0.004,0.004,0.004,0.000,0.000,0.000,0.000,0,2,0,1,7,255,1200,200,0,0,-89.605,0.597,-31.110
EX0521-092111,13,C08,prep,2238,2238,0,716714.092,0.685,-0.678,0.193,0.187,0,0,0,0,0,0,0,0,0,0.000,0,0,0.075,0.006,-0.020,-0.060,-0.040,0.013,0.993,0.009,-0.004,0.004,-0.012,0.000,0.000,0.000,0.000,0,2,0,1,7,255,1200,200,0,0,-89.605,0.597,-31.110
EX0521-092111,13,C08,prep,2240,2240,0,716719.092,0.685,-0.678,0.193,0.187,0,0,0,0,0,0,0,0,0,0.000,0,0,0.082,0.006,0.040,-0.060,-0.040,0.014,0.995,0.008,-0.004,0.004,-0.012,0.000,0.000,0.000,0.000,0,2,0,1,7,255,1200,200,0,0,-89.605,0.597,-31.110
EX0521-092111,13,C08,prep,2240,2240,0,716724.091,0.685,-0.678,0.193,0.187,0,0,0,0,0,0,0,0,0,0.000,0,0,0.108,0.004,-0.080,-0.060,-0.040,0.013,0.994,0.008,0.002,0.004,0.004,0.000,0.000,0.000,0.000,0,2,0,1,7,255,1200,200,0,0,-89.605,0.597,-31.110
EX0521-092111,13,C08,prep,2241,2241,0,716729.092,0.685,-0.678,0.193,0.187,0,0,0,0,0,0,0,0,0,0.000,0,0,0.045,0.004,-0.020,0.000,-0.040,0.013,0.994,0.009,0.002,0.004,0.004,0.000,0.000,0.000,0.000,0,2,0,1,7,255,1200,200,0,0,-89.605,0.597,-31.110
EX0521-092111,13,C08,prep,2241,2241,0,716734.092,0.685,-0.678,0.193,0.187,0,0,0,0,0,0,0,0,0,0.000,0,0,0.102,0.006,-0.080,-0.060,0.020,0.012,0.994,0.009,0.000,0.006,0.004,0.000,0.000,0.000,0.000,0,2,0,1,7,255,1200,200,0,0,-89.605,0.597,-31.110
EX0521-092111,13,C08,prep,2255,2255,0,716739.091,0.685,-0.678,0.193,0.187,0,0,0,0,0,0,0,0,0,0.000,0,0,0.066,0.006,-0.020,-0.060,0.020,0.013,0.995,0.009,-0.004,0.004,0.004,0.000,0.000,0.000,0.000,0,2,0,1,7,255,1200,200,0,0,-89.605,0.597,-31.110
EX0521-092111,13,C08,prep,2255,2255,0,716744.092,0.685,-0.678,0.193,0.187,0,0,0,0,0,0,0,0,0,0.000,0,0,0.075,0.006,-0.020,-0.060,-0.040,0.014,0.994,0.010,-0.004,0.004,0.004,0.000,0.000,0.000,0.000,0,2,0,1,7,255,1200,200,0,0,-89.605,0.597,-31.110
EX0521-092111,13,C08,prep,2276,2276,0,716749.092,0.685,-0.678,0.193,0.187,0,0,0,0,0,0,0,0,0,0.000,0,0,0.075,0.000,-0.020,-0.060,-0.040,0.014,0.994,0.009,0.000,0.000,0.004,0.000,0.000,0.000,0.000,0,2,0,1,7,255,1200,200,0,0,-89.605,0.597,-31.110
EX0521-092111,13,C08,prep,2276,2276,0,716754.091,0.685,-0.678,0.193,0.187,0,0,0,0,0,0,0,0,0,0.000,0,0,0.066,0.000,-0.020,-0.060,0.020,0.013,0.994,0.009,0.000,0.000,0.004,0.000,0.000,0.000,0.000,0,2,0,1,7,255,1200,200,0,0,-89.605,0.597,-31.110
EX0521-092111,13,C08,prep,2277,2277,0,716759.094,0.685,-0.678,0.193,0.187,0,0,0,0,0,0,0,0,0,0.000,0,0,0.066,0.002,-0.020,-0.060,0.020,0.014,0.995,0.009,0.002,0.000,0.004,0.000,0.000,0.000,0.000,0,2,0,1,7,255,1200,200,0,0,-89.605,0.597,-31.110
EX0521-092111,13,C08,prep,2277,2277,0,716764.092,0.685,-0.678,0.193,0.187,0,0,0,0,0,0,0,0,0,0.000,0,0,0.066,0.006,-0.020,-0.060,0.020,0.012,0.995,0.009,-0.004,0.004,0.008,0.000,0.000,0.000,0.000,0,2,0,1,7,255,1200,200,0,0,-89.605,0.597,-31.110
EX0521-092111,13,C08,prep,2278,2278,0,716769.091,0.685,-0.678,0.193,0.187,0,0,0,0,0,0,0,0,0,0.000,0,0,0.108,0.006,-0.080,-0.060,-0.040,0.013,0.994,0.007,0.002,0.006,0.008,0.000,0.000,0.000,0.000,0,2,0,1,7,255,1200,200,0,0,-89.605,0.597,-31.110
EX0521-092111,13,C08,prep,2278,2278,0,716774.092,0.685,-0.678,0.193,0.187,0,0,0,0,0,0,0,0,0,0.000,0,0,0.108,0.008,-0.080,-0.060,-0.040,0.013,0.994,0.009,-0.006,0.006,-0.002,0.000,0.000,0.000,0.000,0,2,0,1,7,255,1200,200,0,0,-89.605,0.597,-31.110
EX0521-092111,13,C08,prep,2303,2303,0,716779.092,0.685,-0.678,0.193,0.187,0,0,0,0,0,0,0,0,0,0.000,0,0,0.082,0.008,-0.080,0.000,0.020,0.014,0.994,0.009,0.008,0.000,-0.002,0.000,0.000,0.000,0.000,0,2,0,1,7,255,1200,200,0,0,-89.605,0.597,-31.110
EX0521-092111,13,C08,prep,2303,2303,0,716784.091,0.685,-0.678,0.193,0.187,0,0,0,0,0,0,0,0,0,0.000,0,0,0.066,0.006,-0.020,-0.060,0.020,0.012,0.995,0.009,-0.006,0.000,0.002,0.000,0.000,0.000,0.000,0,2,0,1,7,255,1200,200,0,0,-89.605,0.597,-31.110
EX0521-092111,13,C08,prep,2303,2303,0,716789.092,0.685,-0.678,0.193,0.187,0,0,0,0,0,0,0,0,0,0.000,0,0,0.066,0.004,-0.020,-0.060,0.020,0.013,0.994,0.009,-0.004,0.002,0.002,0.000,0.000,0.000,0.000,0,2,0,1,7,255,1200,200,0,0,-89.606,0.597,-31.110
EX0521-092111,13,C08,prep,2303,2303,0,716794.092,0.685,-0.678,0.193,0.187,0,0,0,0,0,0,0,0,0,0.000,0,0,0.128,0.004,-0.020,-0.120,-0.040,0.014,0.993,0.009,-0.004,0.002,0.002,0.000,0.000,0.000,0.000,0,2,0,1,7,255,1200,200,0,0,-89.606,0.597,-31.110
EX0521-092111,13,C08,prep,2303,2303,0,716799.092,0.685,-0.678,0.193,0.187,0,0,0,0,0,0,0,0,0,0.000,0,0,0.075,0.006,-0.020,-0.060,-0.040,0.014,0.993,0.009,0.002,-0.006,-0.006,0.000,0.000,0.000,0.000,0,2,0,1,7,255,1200,200,0,0,-89.606,0.597,-31.110
EX0521-092111,13,C08,prep,2303,2303,0,716804.092,0.685,-0.678,0.193,0.187,0,0,0,0,0,0,0,0,0,0.000,0,0,0.123,0.006,0.100,-0.060,-0.040,0.013,0.994,0.009,0.002,-0.006,-0.006,0.000,0.000,0.000,0.000,0,2,0,1,7,255,1200,200,0,0,-89.606,0.597,-31.110
EX0521-092111,13,C08,prep,2319,2319,0,716809.092,0.685,-0.678,0.193,0.187,0,0,0,0,0,0,0,0,0,0.000,0,0,0.108,0.000,0.100,0.000,-0.040,0.013,0.993,0.009,0.000,0.000,-0.006,0.000,0.000,0.000,0.000,0,2,0,1,7,255,1200,200,0,0,-89.606,0.597,-31.110
EX0521-092111,13,C08,prep,2319,2319,0,716814.091,0.685,-0.678,0.193,0.187,0,0,0,0,0,0,0,0,0,0.000,0,0,0.234,0.006,0.160,-0.060,-0.160,0.013,0.994,0.009,-0.006,0.000,0.002,0.000,0.000,0.000,0.000,0,2,0,1,7,255,1200,200,0,0,-89.606,0.597,-31.110
EX0521-092111,13,C08,prep,2335,2335,0,716819.092,0.685,-0.678,0.193,0.187,0,0,0,0,0,0,0,0,0,0.000,0,0,0.075,0.006,-0.020,-0.060,-0.040,0.013,0.994,0.010,-0.006,0.000,-0.002,0.000,0.000,0.000,0.000,0,2,0,1,7,255,1200,200,0,0,-89.606,0.597,-31.110
EX0521-092111,13,C08,prep,2335,2335,0,716824.092,0.685,-0.678,0.193,0.187,0,0,0,0,0,0,0,0,0,0.000,0,0,0.057,0.006,0.040,0.000,-0.040,0.013,0.992,0.009,-0.006,0.000,-0.002,0.000,0.000,0.000,0.000,0,2,0,1,7,255,1200,200,0,0,-89.606,0.597,-31.110
EX0521-092111,13,C08,prep,2335,2335,0,716829.091,0.685,-0.678,0.193,0.187,0,0,0,0,0,0,0,0,0,0.000,0,0,0.141,0.006,0.100,0.000,-0.100,0.013,0.994,0.009,-0.006,0.000,-0.002,0.000,0.000,0.000,0.000,0,2,0,1,7,255,1200,200,0,0,-89.606,0.597,-31.110
EX0521-092111,13,C08,prep,2335,2335,0,716834.092,0.685,-0.678,0.193,0.187,0,0,0,0,0,0,0,0,0,0.000,0,0,0.108,0.006,0.040,0.000,-0.100,0.013,0.993,0.008,-0.004,0.004,-0.012,0.000,0.000,0.000,0.000,0,2,0,1,7,255,1200,200,0,0,-89.606,0.597,-31.110
EX0521-092111,13,C08,prep,2351,2351,0,716839.092,0.685,-0.678,0.193,0.187,0,0,0,0,0,0,0,0,0,0.000,0,0,0.028,0.004,-0.020,0.000,0.020,0.014,0.995,0.009,0.002,0.004,-0.002,0.000,0.000,0.000,0.000,0,2,0,1,7,255,1200,200,0,0,-89.606,0.597,-31.110
EX0521-092111,13,C08,prep,2351,2351,0,716844.091,0.685,-0.678,0.193,0.187,0,0,0,0,0,0,0,0,0,0.000,0,0,0.082,0.002,0.040,-0.060,-0.040,0.012,0.994,0.010,0.002,0.000,0.004,0.000,0.000,0.000,0.000,0,2,0,1,7,255,1200,200,0,0,-89.606,0.597,-31.110
EX0521-092111,13,C08,prep,2383,2383,0,716849.092,0.685,-0.678,0.193,0.187,0,0,0,0,0,0,0,0,0,0.000,0,0,0.045,0.004,-0.020,0.000,-0.040,0.013,0.993,0.009,-0.004,0.000,0.004,0.000,0.000,0.000,0.000,0,2,0,1,7,255,1200,200,0,0,-89.606,0.597,-31.110
EX0521-092111,13,C08,prep,2383,2383,0,716854.092,0.685,-0.678,0.193,0.187,0,0,0,0,0,0,0,0,0,0.000,0,0,0.133,0.006,0.040,-0.120,-0.040,0.013,0.994,0.008,-0.004,0.004,0.004,0.000,0.000,0.000,0.000,0,2,0,1,7,255,1200,200,0,0,-89.606,0.597,-31.110
EX0521-092111,13,C08,prep,2383,2383,0,716859.095,0.685,-0.678,0.193,0.187,0,0,0,0,0,0,0,0,0,0.000,0,0,0.133,0.004,0.040,-0.120,-0.040,0.014,0.994,0.009,0.002,0.004,-0.002,0.000,0.000,0.000,0.000,0,2,0,1,7,255,1200,200,0,0,-89.606,0.597,-31.110
EX0521-092111,13,C08,prep,2383,2383,0,716864.092,0.685,-0.678,0.193,0.187,0,0,0,0,0,0,0,0,0,0.000,0,0,0.082,0.004,0.040,-0.060,-0.040,0.013,0.993,0.009,0.002,0.004,-0.002,0.000,0.000,0.000,0.000,0,2,0,1,7,255,1200,200,0,0,-89.606,0.597,-31.110
EX0521-092111,13,C08,prep,2383,2383,0,716869.092,0.685,-0.678,0.193,0.187,0,0,0,0,0,0,0,0,0,0.000,0,0,0.082,0.004,0.040,-0.060,-0.040,0.013,0.994,0.008,0.002,0.004,-0.002,0.000,0.000,0.000,0.000,0,2,0,1,7,255,1200,200,0,0,-89.606,0.597,-31.110
EX0521-092111,13,C08,prep,2383,2383,0,716874.091,0.685,-0.678,0.193,0.187,0,0,0,0,0,0,0,0,0,0.000,0,0,0.082,0.007,0.040,-0.060,-0.040,0.012,0.993,0.009,-0.004,0.006,-0.006,0.000,0.000,0.000,0.000,0,2,0,1,7,255,1200,200,0,0,-89.607,0.597,-31.110
EX0521-092111,13,C08,prep,2415,2415,0,716879.092,0.685,-0.678,0.193,0.187,0,0,0,0,0,0,0,0,0,0.000,0,0,0.075,0.008,0.040,-0.060,0.020,0.013,0.994,0.009,-0.006,0.006,0.004,0.000,0.000,0.000,0.000,0,2,0,1,7,255,1200,200,0,0,-89.607,0.597,-31.110
EX0521-092111,13,C08,prep,2415,2415,0,716884.092,0.685,-0.678,0.193,0.187,0,0,0,0,0,0,0,0,0,0.000,0,0,0.082,0.006,0.040,-0.060,-0.040,0.013,0.995,0.010,-0.006,0.000,0.004,0.000,0.000,0.000,0.000,0,2,0,1,7,255,1200,200,0,0,-89.607,0.597,-31.110
EX0521-092111,13,C08,prep,2416,2416,0,716889.091,0.685,-0.678,0.193,0.187,0,0,0,0,0,0,0,0,0,0.000,0,0,0.045,0.006,0.040,0.000,0.020,0.014,0.995,0.009,-0.004,-0.004,0.008,0.000,0.000,0.000,0.000,0,2,0,1,7,255,1200,200,0,0,-89.607,0.597,-31.110
EX0521-092111,13,C08,prep,2416,2416,0,716894.092,0.685,-0.678,0.193,0.187,0,0,0,0,0,0,0,0,0,0.000,0,0,0.075,0.004,-0.020,-0.060,-0.040,0.013,0.995,0.009,-0.002,-0.004,0.008,0.000,0.000,0.000,0.000,0,2,0,1,7,255,1200,200,0,0,-89.607,0.597,-31.110
EX0521-092111,13,C08,prep,2417,2417,0,716899.093,0.685,-0.678,0.193,0.187,0,0,0,0,0,0,0,0,0,0.000,0,0,0.082,0.003,0.040,-0.060,-0.040,0.013,0.994,0.008,-0.002,-0.002,0.008,0.000,0.000,0.000,0.000,0,2,0,1,7,255,1200,200,0,0,-89.607,0.597,-31.110
EX0521-092111,13,C08,prep,2417,2417,0,716904.091,0.685,-0.678,0.193,0.187,0,0,0,0,0,0,0,0,0,0.000,0,0,0.057,0.003,0.040,0.000,-0.040,0.013,0.994,0.009,-0.002,0.002,0.002,0.000,0.000,0.000,0.000,0,2,0,1,7,255,1200,200,0,0,-89.607,0.597,-31.110
EX0521-092111,13,C08,prep,2417,2417,0,716909.092,0.685,-0.678,0.193,0.187,0,0,0,0,0,0,0,0,0,0.000,0,0,0.045,0.003,-0.020,0.000,-0.040,0.013,0.993,0.010,-0.002,0.002,0.002,0.000,0.000,0.000,0.000,0,2,0,1,7,255,1200,200,0,0,-89.607,0.597,-31.110
EX0521-092111,13,C08,prep,2417,2417,0,716914.092,0.685,-0.678,0.193,0.187,0,0,0,0,0,0,0,0,0,0.000,0,0,0.133,0.003,0.040,-0.120,-0.040,0.013,0.994,0.009,-0.002,-0.002,-0.002,0.000,0.000,0.000,0.000,0,2,0,1,7,255,1200,200,0,0,-89.607,0.597,-31.110
EX0521-092111,13,C08,prep,2436,2436,0,716919.091,0.685,-0.678,0.193,0.187,0,0,0,0,0,0,0,0,0,0.000,0,0,0.082,0.004,0.040,-0.060,-0.040,0.013,0.994,0.009,-0.004,-0.002,-0.002,0.000,0.000,0.000,0.000,0,2,0,1,7,255,1200,200,0,0,-89.607,0.597,-31.110
EX0521-092111,13,C08,prep,2436,2436,0,716924.092,0.685,-0.678,0.193,0.187,0,0,0,0,0,0,0,0,0,0.000,0,0,0.082,0.004,0.040,-0.060,-0.040,0.013,0.994,0.010,-0.004,-0.002,-0.002,0.000,0.000,0.000,0.000,0,2,0,1,7,255,1200,200,0,0,-89.607,0.597,-31.110
EX0521-092111,13,C08,prep,2447,2447,0,716929.092,0.685,-0.678,0.193,0.187,0,0,0,0,0,0,0,0,0,0.000,0,0,0.165,0.004,-0.080,-0.120,0.080,0.014,0.993,0.009,-0.004,-0.002,-0.002,0.000,0.000,0.000,0.000,0,2,0,1,7,255,1200,200,0,0,-89.607,0.597,-31.110
EX0521-092111,13,C08,prep,2447,2447,0,716934.091,0.685,-0.678,0.193,0.187,0,0,0,0,0,0,0,0,0,0.000,0,0,0.123,0.003,0.040,-0.060,-0.100,0.013,0.994,0.008,-0.002,-0.002,-0.002,0.000,0.000,0.000,0.000,0,2,0,1,7,255,1200,200,0,0,-89.607,0.597,-31.110
EX0521-092111,13,C08,prep,2447,2447,0,716939.092,0.685,-0.678,0.193,0.187,0,0,0,0,0,0,0,0,0,0.000,0,0,0.075,0.004,-0.020,-0.060,-0.040,0.014,0.994,0.009,0.004,-0.002,-0.002,0.000,0.000,0.000,0.000,0,2,0,1,7,255,1200,200,0,0,-89.607,0.597,-31.110
EX0521-092111,13,C08,prep,2447,2447,0,716944.092,0.685,-0.678,0.193,0.187,0,0,0,0,0,0,0,0,0,0.000,0,0,0.123,0.003,0.100,-0.060,-0.040,0.013,0.995,0.009,-0.002,-0.002,-0.002,0.000,0.000,0.000,0.000,0,2,0,1,7,255,1200,200,0,0,-89.607,0.597,-31.110
