experiment_id,condition_order_index,condition_id,condition_phase,condition_phase_elapsed_ms,condition_elapsed_ms,is_stimulation_on,t_ms,R_q0,R_q1,R_q2,R_q3,R_heel1,R_mid1,R_fore1,R_heel2,R_fore3,R_mid2,R_fore4,R_fore2,R_cadence,R_speed,R_steps,R_zupt,R_gyroNorm,R_accH,R_gyro_x,R_gyro_y,R_gyro_z,R_acc_x,R_acc_y,R_acc_z,R_nav_ax,R_nav_ay,R_nav_az,R_stepVel,R_stepVelj,R_stepDispRaw,R_stepDispZUPT,R_gaitEvent,R_motorMode,R_motorActive,R_motorAlignment,R_motorRegionMask,R_motorAmplitude,R_motorIntervalMs,R_motorDurationMs,R_motorPhaseMs,R_motorCycleMs,R_roll,R_pitch,R_yaw
EX0521-092111,15,C24,prep,38,38,0,799859.092,0.686,-0.676,0.194,0.187,0,0,0,0,0,0,0,0,0,0.000,0,0,3.615,0.009,-3.260,-0.100,1.560,0.015,0.988,0.011,0.008,0.004,-0.062,0.000,0.000,0.000,0.000,0,2,0,3,7,255,1440,200,0,0,-89.424,0.704,-31.224
EX0521-092111,15,C24,prep,38,38,0,799864.092,0.685,-0.677,0.194,0.187,0,0,0,0,0,0,0,0,0,0.000,0,0,3.256,0.009,2.920,-0.040,-1.440,0.012,1.011,0.009,0.008,0.004,-0.062,0.000,0.000,0.000,0.000,0,2,0,3,7,255,1440,200,0,0,-89.439,0.696,-31.224
EX0521-092111,15,C24,prep,38,38,0,799869.092,0.686,-0.676,0.194,0.187,0,0,0,0,0,0,0,0,0,0.000,0,0,2.200,0.003,-2.040,0.080,0.820,0.016,0.972,0.017,-0.002,0.002,-0.062,0.000,0.000,0.000,0.000,0,2,0,3,7,255,1440,200,0,0,-89.427,0.701,-31.224
EX0521-092111,15,C24,prep,38,38,0,799874.091,0.686,-0.676,0.194,0.187,0,0,0,0,0,0,0,0,0,0.000,0,0,0.484,0.036,0.400,-0.220,-0.160,0.012,1.017,0.007,-0.002,0.036,0.162,0.000,0.000,0.000,0.000,0,2,0,3,7,255,1440,200,0,0,-89.427,0.701,-31.224
EX0521-092111,15,C24,prep,38,38,0,799879.092,0.686,-0.676,0.194,0.187,0,0,0,0,0,0,0,0,0,0.000,0,0,0.864,0.042,0.660,0.200,-0.520,0.016,0.982,0.016,-0.006,-0.042,-0.120,0.000,0.000,0.000,0.000,0,2,0,3,7,255,1440,200,0,0,-89.428,0.701,-31.224
EX0521-092111,15,C24,prep,38,38,0,799884.091,0.686,-0.676,0.194,0.187,0,0,0,0,0,0,0,0,0,0.000,0,0,1.907,0.015,-1.600,-0.280,1.000,0.015,0.997,0.010,0.006,0.014,0.024,0.000,0.000,0.000,0.000,0,2,0,3,7,255,1440,200,0,0,-89.420,0.706,-31.224
EX0521-092111,15,C24,prep,47,47,0,799889.092,0.686,-0.676,0.194,0.187,0,0,0,0,0,0,0,0,0,0.000,0,0,2.000,0.023,1.760,0.140,-0.940,0.014,1.001,0.008,0.018,0.014,0.024,0.000,0.000,0.000,0.000,0,2,0,3,7,255,1440,200,0,0,-89.429,0.701,-31.224
EX0521-092111,15,C24,prep,47,47,0,799894.092,0.686,-0.676,0.194,0.187,0,0,0,0,0,0,0,0,0,0.000,0,0,1.290,0.023,-1.180,-0.040,0.520,0.015,0.980,0.017,0.018,0.014,0.024,0.000,0.000,0.000,0.000,0,2,0,3,7,255,1440,200,0,0,-89.421,0.701,-31.224
EX0521-092111,15,C24,prep,47,47,0,799899.091,0.686,-0.676,0.194,0.187,0,0,0,0,0,0,0,0,0,0.000,0,0,0.275,0.035,0.160,-0.220,-0.040,0.012,1.010,0.007,0.010,0.034,0.066,0.000,0.000,0.000,0.000,0,2,0,3,7,255,1440,200,0,0,-89.421,0.701,-31.224
EX0521-092111,15,C24,prep,47,47,0,799904.092,0.686,-0.676,0.194,0.187,0,0,0,0,0,0,0,0,0,0.000,0,0,1.166,0.040,0.960,0.320,-0.580,0.016,0.979,0.016,-0.004,-0.040,-0.132,0.000,0.000,0.000,0.000,0,2,0,3,7,255,1440,200,0,0,-89.425,0.698,-31.224
EX0521-092111,15,C24,prep,84,84,0,799909.092,0.686,-0.676,0.194,0.187,0,0,0,0,0,0,0,0,0,0.000,0,0,1.725,0.046,-1.540,-0.160,0.760,0.012,1.003,0.008,0.004,0.046,0.090,0.000,0.000,0.000,0.000,0,2,0,3,7,255,1440,200,0,0,-89.417,0.702,-31.224
EX0521-092111,15,C24,prep,84,84,0,799914.091,0.686,-0.676,0.194,0.187,0,0,0,0,0,0,0,0,0,0.000,0,0,1.016,0.009,0.900,-0.100,-0.460,0.015,0.991,0.011,0.004,0.008,-0.028,0.000,0.000,0.000,0.000,0,2,0,3,7,255,1440,200,0,0,-89.421,0.702,-31.224
EX0521-092111,15,C24,prep,85,85,0,799919.092,0.686,-0.676,0.194,0.187,0,0,0,0,0,0,0,0,0,0.000,0,0,0.216,0.009,-0.020,0.200,0.080,0.016,0.984,0.014,0.004,0.008,-0.028,0.000,0.000,0.000,0.000,0,2,0,3,7,255,1440,200,0,0,-89.421,0.702,-31.224
EX0521-092111,15,C24,prep,85,85,0,799924.093,0.686,-0.676,0.194,0.187,0,0,0,0,0,0,0,0,0,0.000,0,0,0.227,0.011,-0.200,-0.100,-0.040,0.011,1.011,0.005,0.008,0.008,-0.028,0.000,0.000,0.000,0.000,0,2,0,3,7,255,1440,200,0,0,-89.421,0.702,-31.224
EX0521-092111,15,C24,prep,85,85,0,799929.092,0.686,-0.676,0.194,0.187,0,0,0,0,0,0,0,0,0,0.000,0,0,0.543,0.022,-0.500,-0.160,0.140,0.016,0.980,0.018,0.004,-0.022,-0.094,0.000,0.000,0.000,0.000,0,2,0,3,7,255,1440,200,0,0,-89.415,0.702,-31.224
EX0521-092111,15,C24,prep,85,85,0,799934.092,0.686,-0.676,0.194,0.187,0,0,0,0,0,0,0,0,0,0.000,0,0,0.918,0.018,0.900,0.080,-0.160,0.015,0.997,0.010,0.008,0.016,0.026,0.000,0.000,0.000,0.000,0,2,0,3,7,255,1440,200,0,0,-89.419,0.702,-31.224
EX0521-092111,15,C24,prep,95,95,0,799939.091,0.686,-0.676,0.194,0.187,0,0,0,0,0,0,0,0,0,0.000,0,0,0.892,0.023,0.720,0.080,-0.520,0.014,1.003,0.005,0.016,0.016,0.026,0.000,0.000,0.000,0.000,0,2,0,3,7,255,1440,200,0,0,-89.423,0.702,-31.224
EX0521-092111,15,C24,prep,95,95,0,799944.092,0.686,-0.676,0.194,0.187,0,0,0,0,0,0,0,0,0,0.000,0,0,2.807,0.023,-2.640,-0.160,0.940,0.015,0.983,0.018,0.016,0.016,0.026,0.000,0.000,0.000,0.000,0,2,0,3,7,255,1440,200,0,0,-89.407,0.706,-31.224
EX0521-092111,15,C24,prep,115,115,0,799949.091,0.686,-0.676,0.194,0.187,0,0,0,0,0,0,0,0,0,0.000,0,0,1.913,0.016,1.820,-0.100,-0.580,0.015,0.999,0.014,-0.004,-0.016,0.044,0.000,0.000,0.000,0.000,0,2,0,3,7,255,1440,200,0,0,-89.416,0.704,-31.224
EX0521-092111,15,C24,prep,115,115,0,799954.091,0.686,-0.676,0.194,0.187,0,0,0,0,0,0,0,0,0,0.000,0,0,1.712,0.016,1.560,0.080,-0.700,0.015,0.995,0.006,-0.004,-0.016,0.004,0.000,0.000,0.000,0.000,0,2,0,3,7,255,1440,200,0,0,-89.424,0.700,-31.224
EX0521-092111,15,C24,prep,115,115,0,799959.093,0.686,-0.676,0.194,0.187,0,0,0,0,0,0,0,0,0,0.000,0,0,3.637,0.014,-3.440,-0.040,1.180,0.015,0.996,0.011,0.010,0.010,0.014,0.000,0.000,0.000,0.000,0,2,0,3,7,255,1440,200,0,0,-89.407,0.706,-31.224
EX0521-092111,15,C24,prep,115,115,0,799964.093,0.686,-0.676,0.194,0.187,0,0,0,0,0,0,0,0,0,0.000,0,0,1.400,0.014,1.320,0.080,-0.460,0.014,0.993,0.015,0.010,0.010,0.004,0.000,0.000,0.000,0.000,0,2,0,3,7,255,1440,200,0,0,-89.414,0.706,-31.224
EX0521-092111,15,C24,prep,127,127,0,799969.092,0.686,-0.676,0.194,0.187,0,0,0,0,0,0,0,0,0,0.000,0,0,1.165,0.014,1.140,-0.100,-0.220,0.016,0.989,0.008,0.010,0.010,-0.014,0.000,0.000,0.000,0.000,0,2,0,3,7,255,1440,200,0,0,-89.420,0.706,-31.224
EX0521-092111,15,C24,prep,127,127,0,799974.092,0.686,-0.676,0.194,0.187,0,0,0,0,0,0,0,0,0,0.000,0,0,0.771,0.027,-0.760,-0.100,0.080,0.013,1.006,0.008,0.012,0.024,-0.014,0.000,0.000,0.000,0.000,0,2,0,3,7,255,1440,200,0,0,-89.416,0.706,-31.224
EX0521-092111,15,C24,prep,127,127,0,799979.091,0.686,-0.676,0.194,0.187,0,0,0,0,0,0,0,0,0,0.000,0,0,0.566,0.027,-0.560,0.020,0.080,0.016,0.981,0.018,0.012,0.024,-0.048,0.000,0.000,0.000,0.000,0,2,0,3,7,255,1440,200,0,0,-89.409,0.706,-31.224
EX0521-092111,15,C24,prep,127,127,0,799984.092,0.686,-0.676,0.194,0.187,0,0,0,0,0,0,0,0,0,0.000,0,0,0.294,0.030,0.280,-0.040,0.080,0.014,1.001,0.009,0.010,0.028,0.072,0.000,0.000,0.000,0.000,0,2,0,3,7,255,1440,200,0,0,-89.409,0.706,-31.224
EX0521-092111,15,C24,prep,145,145,0,799989.091,0.686,-0.676,0.194,0.187,0,0,0,0,0,0,0,0,0,0.000,0,0,0.721,0.030,0.600,0.020,-0.400,0.014,0.998,0.008,0.010,0.028,0.034,0.000,0.000,0.000,0.000,0,2,0,3,7,255,1440,200,0,0,-89.412,0.706,-31.224
EX0521-092111,15,C24,prep,145,145,0,799994.092,0.686,-0.676,0.194,0.187,0,0,0,0,0,0,0,0,0,0.000,0,0,1.616,0.030,-1.480,-0.100,0.640,0.015,0.987,0.015,0.010,0.028,0.034,0.000,0.000,0.000,0.000,0,2,0,3,7,255,1440,200,0,0,-89.405,0.709,-31.224
EX0521-092111,15,C24,prep,177,177,0,799999.092,0.686,-0.676,0.194,0.187,0,0,0,0,0,0,0,0,0,0.000,0,0,1.422,0.013,1.320,-0.100,-0.520,0.013,0.999,0.012,-0.006,0.012,0.034,0.000,0.000,0.000,0.000,0,2,0,3,7,255,1440,200,0,0,-89.411,0.709,-31.224
EX0521-092111,15,C24,prep,177,177,0,800004.091,0.686,-0.676,0.194,0.187,0,0,0,0,0,0,0,0,0,0.000,0,0,0.368,0.013,0.340,-0.100,-0.100,0.014,0.990,0.008,-0.006,0.012,-0.038,0.000,0.000,0.000,0.000,0,2,0,3,7,255,1440,200,0,0,-89.411,0.709,-31.224
EX0521-092111,15,C24,prep,178,178,0,800009.092,0.686,-0.676,0.194,0.187,0,0,0,0,0,0,0,0,0,0.000,0,0,1.572,0.012,-1.480,-0.100,0.520,0.014,0.998,0.012,0.000,0.012,0.034,0.000,0.000,0.000,0.000,0,2,0,3,7,255,1440,200,0,0,-89.404,0.709,-31.224
EX0521-092111,15,C24,prep,178,178,0,800014.091,0.686,-0.676,0.194,0.187,0,0,0,0,0,0,0,0,0,0.000,0,0,1.177,0.006,1.080,0.080,-0.460,0.015,0.993,0.013,0.004,0.004,-0.014,0.000,0.000,0.000,0.000,0,2,0,3,7,255,1440,200,0,0,-89.409,0.709,-31.224
EX0521-092111,15,C24,prep,178,178,0,800019.092,0.686,-0.676,0.194,0.187,0,0,0,0,0,0,0,0,0,0.000,0,0,0.358,0.006,-0.320,0.020,0.160,0.014,0.992,0.009,0.004,0.004,-0.014,0.000,0.000,0.000,0.000,0,2,0,3,7,255,1440,200,0,0,-89.409,0.709,-31.224
EX0521-092111,15,C24,prep,178,178,0,800024.093,0.686,-0.676,0.194,0.187,0,0,0,0,0,0,0,0,0,0.000,0,0,0.511,0.004,-0.500,-0.040,0.100,0.014,1.000,0.012,0.004,0.002,-0.014,0.000,0.000,0.000,0.000,0,2,0,3,7,255,1440,200,0,0,-89.409,0.709,-31.224
EX0521-092111,15,C24,prep,230,230,0,800029.091,0.686,-0.676,0.194,0.187,0,0,0,0,0,0,0,0,0,0.000,0,0,0.262,0.002,0.220,-0.100,-0.100,0.016,0.988,0.015,0.000,0.002,-0.020,0.000,0.000,0.000,0.000,0,2,0,3,7,255,1440,200,0,0,-89.405,0.709,-31.224
EX0521-092111,15,C24,prep,230,230,0,800034.092,0.686,-0.676,0.194,0.187,0,0,0,0,0,0,0,0,0,0.000,0,0,0.744,0.002,0.720,-0.100,-0.160,0.014,0.998,0.009,0.000,0.002,0.038,0.000,0.000,0.000,0.000,0,2,0,3,7,255,1440,200,0,0,-89.409,0.709,-31.224
EX0521-092111,15,C24,prep,230,230,0,800039.092,0.686,-0.676,0.194,0.187,0,0,0,0,0,0,0,0,0,0.000,0,0,0.323,0.017,-0.320,-0.040,0.020,0.015,0.996,0.010,0.012,0.012,0.018,0.000,0.000,0.000,0.000,0,2,0,3,7,255,1440,200,0,0,-89.409,0.709,-31.224
EX0521-092111,15,C24,prep,230,230,0,800044.091,0.686,-0.676,0.194,0.187,0,0,0,0,0,0,0,0,0,0.000,0,0,0.889,0.017,-0.820,-0.040,0.340,0.015,0.988,0.015,0.012,0.012,0.018,0.000,0.000,0.000,0.000,0,2,0,3,7,255,1440,200,0,0,-89.405,0.709,-31.224
EX0521-092111,15,C24,prep,230,230,0,800049.092,0.686,-0.676,0.194,0.187,0,0,0,0,0,0,0,0,0,0.000,0,0,1.152,0.013,1.080,0.020,-0.400,0.014,1.000,0.010,0.004,0.012,0.018,0.000,0.000,0.000,0.000,0,2,0,3,7,255,1440,200,0,0,-89.410,0.709,-31.224
EX0521-092111,15,C24,prep,230,230,0,800054.091,0.686,-0.676,0.194,0.187,0,0,0,0,0,0,0,0,0,0.000,0,0,0.526,0.011,-0.500,-0.040,0.160,0.015,0.994,0.010,0.004,0.010,0.000,0.000,0.000,0.000,0.000,0,2,0,3,7,255,1440,200,0,0,-89.410,0.709,-31.224
EX0521-092111,15,C24,prep,230,230,0,800059.093,0.686,-0.676,0.194,0.187,0,0,0,0,0,0,0,0,0,0.000,0,0,0.603,0.011,-0.560,-0.100,0.200,0.014,0.995,0.013,0.004,0.010,0.004,0.000,0.000,0.000,0.000,0,2,0,3,7,255,1440,200,0,0,-89.410,0.709,-31.224
EX0521-092111,15,C24,prep,230,230,0,800064.092,0.686,-0.676,0.194,0.187,0,0,0,0,0,0,0,0,0,0.000,0,0,1.152,0.010,1.080,-0.040,-0.400,0.015,0.993,0.013,0.000,-0.010,0.000,0.000,0.000,0.000,0.000,0,2,0,3,7,255,1440,200,0,0,-89.416,0.709,-31.224
EX0521-092111,15,C24,prep,232,232,0,800069.093,0.686,-0.676,0.194,0.187,0,0,0,0,0,0,0,0,0,0.000,0,0,0.190,0.010,-0.140,-0.100,0.080,0.014,0.996,0.009,0.000,-0.010,0.004,0.000,0.000,0.000,0.000,0,2,0,3,7,255,1440,200,0,0,-89.416,0.709,-31.224
EX0521-092111,15,C24,prep,232,232,0,800074.093,0.686,-0.676,0.194,0.187,0,0,0,0,0,0,0,0,0,0.000,0,0,0.656,0.014,-0.640,-0.040,0.140,0.015,0.996,0.013,0.000,-0.014,0.018,0.000,0.000,0.000,0.000,0,2,0,3,7,255,1440,200,0,0,-89.413,0.709,-31.224
EX0521-092111,15,C24,prep,232,232,0,800079.091,0.686,-0.676,0.194,0.187,0,0,0,0,0,0,0,0,0,0.000,0,0,0.378,0.014,0.340,-0.040,-0.160,0.015,0.990,0.013,0.000,-0.014,0.018,0.000,0.000,0.000,0.000,0,2,0,3,7,255,1440,200,0,0,-89.413,0.709,-31.224
EX0521-092111,15,C24,prep,232,232,0,800084.092,0.686,-0.676,0.194,0.187,0,0,0,0,0,0,0,0,0,0.000,0,0,0.110,0.014,0.100,0.020,-0.040,0.014,0.998,0.009,0.000,-0.014,0.018,0.000,0.000,0.000,0.000,0,2,0,3,7,255,1440,200,0,0,-89.413,0.709,-31.224
EX0521-092111,15,C24,prep,255,255,0,800089.092,0.686,-0.676,0.194,0.187,0,0,0,0,0,0,0,0,0,0.000,0,0,0.663,0.004,-0.640,-0.100,0.140,0.015,0.993,0.012,0.002,-0.004,-0.014,0.000,0.000,0.000,0.000,0,2,0,3,7,255,1440,200,0,0,-89.409,0.709,-31.224
EX0521-092111,15,C24,prep,255,255,0,800094.091,0.686,-0.676,0.194,0.187,0,0,0,0,0,0,0,0,0,0.000,0,0,0.262,0.004,0.220,-0.100,-0.100,0.014,0.993,0.013,0.002,-0.004,-0.010,0.000,0.000,0.000,0.000,0,2,0,3,7,255,1440,200,0,0,-89.410,0.709,-31.224
EX0521-092111,15,C24,prep,255,255,0,800099.092,0.686,-0.676,0.194,0.187,0,0,0,0,0,0,0,0,0,0.000,0,0,0.811,0.004,0.780,-0.040,-0.220,0.015,0.998,0.009,0.002,-0.004,-0.010,0.000,0.000,0.000,0.000,0,2,0,3,7,255,1440,200,0,0,-89.413,0.709,-31.224
EX0521-092111,15,C24,prep,255,255,0,800104.092,0.686,-0.676,0.194,0.187,0,0,0,0,0,0,0,0,0,0.000,0,0,0.721,0.011,-0.700,-0.100,0.140,0.014,0.995,0.011,0.004,0.010,0.004,0.000,0.000,0.000,0.000,0,2,0,3,7,255,1440,200,0,0,-89.410,0.709,-31.224
EX0521-092111,15,C24,prep,287,287,0,800109.093,0.686,-0.676,0.194,0.187,0,0,0,0,0,0,0,0,0,0.000,0,0,0.275,0.014,-0.260,-0.040,0.080,0.016,0.993,0.012,0.010,0.010,0.004,0.000,0.000,0.000,0.000,0,2,0,3,7,255,1440,200,0,0,-89.410,0.709,-31.224
EX0521-092111,15,C24,prep,287,287,0,800114.092,0.686,-0.676,0.194,0.187,0,0,0,0,0,0,0,0,0,0.000,0,0,0.717,0.011,0.660,0.020,-0.280,0.013,0.994,0.011,0.004,0.010,-0.006,0.000,0.000,0.000,0.000,0,2,0,3,7,255,1440,200,0,0,-89.413,0.709,-31.224
EX0521-092111,15,C24,prep,287,287,0,800119.092,0.686,-0.676,0.194,0.187,0,0,0,0,0,0,0,0,0,0.000,0,0,0.521,0.012,-0.500,-0.040,0.140,0.014,0.995,0.010,0.006,0.010,-0.006,0.000,0.000,0.000,0.000,0,2,0,3,7,255,1440,200,0,0,-89.413,0.709,-31.224
EX0521-092111,15,C24,prep,287,287,0,800124.093,0.686,-0.676,0.194,0.187,0,0,0,0,0,0,0,0,0,0.000,0,0,0.205,0.010,-0.200,-0.040,0.020,0.015,0.995,0.013,0.000,0.010,0.004,0.000,0.000,0.000,0.000,0,2,0,3,7,255,1440,200,0,0,-89.413,0.709,-31.224
EX0521-092111,15,C24,prep,287,287,0,800129.092,0.686,-0.676,0.194,0.187,0,0,0,0,0,0,0,0,0,0.000,0,0,0.640,0.010,0.600,-0.040,-0.220,0.015,0.994,0.011,0.006,0.008,0.004,0.000,0.000,0.000,0.000,0,2,0,3,7,255,1440,200,0,0,-89.416,0.709,-31.224
EX0521-092111,15,C24,prep,287,287,0,800134.091,0.686,-0.676,0.194,0.187,0,0,0,0,0,0,0,0,0,0.000,0,0,0.115,0.011,0.040,-0.100,-0.040,0.014,0.997,0.010,0.008,0.008,0.004,0.000,0.000,0.000,0.000,0,2,0,3,7,255,1440,200,0,0,-89.416,0.709,-31.224
EX0521-092111,15,C24,prep,307,307,0,800139.092,0.686,-0.676,0.194,0.187,0,0,0,0,0,0,0,0,0,0.000,0,0,0.652,0.011,-0.620,0.020,0.200,0.015,0.993,0.014,0.008,0.008,0.000,0.000,0.000,0.000,0.000,0,2,0,3,7,255,1440,200,0,0,-89.413,0.709,-31.224
EX0521-092111,15,C24,prep,307,307,0,800144.091,0.686,-0.676,0.194,0.187,0,0,0,0,0,0,0,0,0,0.000,0,0,0.300,0.004,0.280,-0.040,-0.100,0.015,0.994,0.012,0.004,0.000,-0.006,0.000,0.000,0.000,0.000,0,2,0,3,7,255,1440,200,0,0,-89.413,0.709,-31.224
EX0521-092111,15,C24,prep,307,307,0,800149.092,0.686,-0.676,0.194,0.187,0,0,0,0,0,0,0,0,0,0.000,0,0,0.242,0.004,0.220,0.020,-0.100,0.014,0.997,0.009,0.004,0.000,-0.006,0.000,0.000,0.000,0.000,0,2,0,3,7,255,1440,200,0,0,-89.413,0.709,-31.224
EX0521-092111,15,C24,prep,307,307,0,800154.092,0.686,-0.676,0.194,0.187,0,0,0,0,0,0,0,0,0,0.000,0,0,0.659,0.004,-0.620,-0.100,0.200,0.015,0.993,0.012,0.004,0.000,-0.006,0.000,0.000,0.000,0.000,0,2,0,3,7,255,1440,200,0,0,-89.410,0.709,-31.224
EX0521-092111,15,C24,prep,307,307,0,800159.091,0.686,-0.676,0.194,0.187,0,0,0,0,0,0,0,0,0,0.000,0,0,0.245,0.004,0.220,-0.040,-0.100,0.015,0.994,0.012,0.000,-0.004,-0.006,0.000,0.000,0.000,0.000,0,2,0,3,7,255,1440,200,0,0,-89.410,0.709,-31.224
EX0521-092111,15,C24,prep,307,307,0,800164.093,0.686,-0.676,0.194,0.187,0,0,0,0,0,0,0,0,0,0.000,0,0,0.584,0.004,0.540,-0.040,-0.220,0.015,0.995,0.010,0.000,-0.004,-0.006,0.000,0.000,0.000,0.000,0,2,0,3,7,255,1440,200,0,0,-89.410,0.709,-31.224
EX0521-092111,15,C24,prep,319,319,0,800169.091,0.686,-0.676,0.194,0.187,0,0,0,0,0,0,0,0,0,0.000,0,0,0.586,0.014,-0.560,-0.100,0.140,0.016,0.996,0.011,0.014,-0.002,0.004,0.000,0.000,0.000,0.000,0,2,0,3,7,255,1440,200,0,0,-89.410,0.709,-31.224
EX0521-092111,15,C24,prep,319,319,0,800174.091,0.686,-0.676,0.194,0.187,0,0,0,0,0,0,0,0,0,0.000,0,0,0.151,0.014,-0.140,-0.040,-0.040,0.015,0.993,0.014,0.014,-0.002,0.004,0.000,0.000,0.000,0.000,0,2,0,3,7,255,1440,200,0,0,-89.411,0.709,-31.224
EX0521-092111,15,C24,prep,339,339,0,800179.092,0.686,-0.676,0.194,0.187,0,0,0,0,0,0,0,0,0,0.000,0,0,0.431,0.010,0.400,0.020,-0.160,0.015,0.995,0.011,0.010,-0.002,0.008,0.000,0.000,0.000,0.000,0,2,0,3,7,255,1440,200,0,0,-89.411,0.709,-31.224
EX0521-092111,15,C24,prep,339,339,0,800184.091,0.686,-0.676,0.194,0.187,0,0,0,0,0,0,0,0,0,0.000,0,0,0.332,0.006,-0.320,-0.040,0.080,0.013,0.997,0.011,-0.006,0.002,0.008,0.000,0.000,0.000,0.000,0,2,0,3,7,255,1440,200,0,0,-89.411,0.709,-31.224
EX0521-092111,15,C24,prep,340,340,0,800189.092,0.686,-0.676,0.194,0.187,0,0,0,0,0,0,0,0,0,0.000,0,0,0.147,0.008,-0.140,-0.040,0.020,0.014,0.993,0.013,-0.008,0.002,0.008,0.000,0.000,0.000,0.000,0,2,0,3,7,255,1440,200,0,0,-89.411,0.709,-31.224
EX0521-092111,15,C24,prep,340,340,0,800194.092,0.686,-0.676,0.194,0.187,0,0,0,0,0,0,0,0,0,0.000,0,0,0.378,0.016,0.340,-0.040,-0.160,0.014,0.994,0.010,-0.008,0.014,-0.002,0.000,0.000,0.000,0.000,0,2,0,3,7,255,1440,200,0,0,-89.411,0.709,-31.224
EX0521-092111,15,C24,prep,351,351,0,800199.091,0.686,-0.676,0.194,0.187,0,0,0,0,0,0,0,0,0,0.000,0,0,0.173,0.015,0.100,-0.100,-0.100,0.015,0.995,0.009,0.006,0.014,-0.002,0.000,0.000,0.000,0.000,0,2,0,3,7,255,1440,200,0,0,-89.411,0.709,-31.224
EX0521-092111,15,C24,prep,351,351,0,800204.092,0.686,-0.676,0.194,0.187,0,0,0,0,0,0,0,0,0,0.000,0,0,0.508,0.015,-0.500,-0.040,0.080,0.014,0.994,0.014,0.006,0.014,-0.002,0.000,0.000,0.000,0.000,0,2,0,3,7,255,1440,200,0,0,-89.411,0.709,-31.224
EX0521-092111,15,C24,prep,384,384,0,800209.091,0.686,-0.676,0.194,0.187,0,0,0,0,0,0,0,0,0,0.000,0,0,0.242,0.009,0.220,0.020,-0.100,0.015,0.994,0.012,0.004,-0.008,-0.006,0.000,0.000,0.000,0.000,0,2,0,3,7,255,1440,200,0,0,-89.411,0.709,-31.224
EX0521-092111,15,C24,prep,384,384,0,800214.092,0.686,-0.676,0.194,0.187,0,0,0,0,0,0,0,0,0,0.000,0,0,0.110,0.009,0.040,0.020,-0.100,0.014,0.995,0.010,0.004,-0.008,-0.006,0.000,0.000,0.000,0.000,0,2,0,3,7,255,1440,200,0,0,-89.411,0.709,-31.224
EX0521-092111,15,C24,prep,384,384,0,800219.092,0.686,-0.676,0.194,0.187,0,0,0,0,0,0,0,0,0,0.000,0,0,0.389,0.007,-0.380,0.020,0.080,0.014,0.994,0.011,0.004,0.006,0.000,0.000,0.000,0.000,0.000,0,2,0,3,7,255,1440,200,0,0,-89.411,0.709,-31.224
EX0521-092111,15,C24,prep,384,384,0,800224.093,0.686,-0.676,0.194,0.187,0,0,0,0,0,0,0,0,0,0.000,0,0,0.245,0.006,0.220,-0.040,-0.100,0.015,0.994,0.012,0.002,0.006,0.000,0.000,0.000,0.000,0.000,0,2,0,3,7,255,1440,200,0,0,-89.411,0.709,-31.224
EX0521-092111,15,C24,prep,384,384,0,800229.092,0.686,-0.676,0.194,0.187,0,0,0,0,0,0,0,0,0,0.000,0,0,0.424,0.004,0.400,-0.100,-0.100,0.015,0.995,0.011,0.002,0.004,0.000,0.000,0.000,0.000,0.000,0,2,0,3,7,255,1440,200,0,0,-89.411,0.709,-31.224
EX0521-092111,15,C24,prep,384,384,0,800234.091,0.686,-0.676,0.194,0.187,0,0,0,0,0,0,0,0,0,0.000,0,0,0.390,0.002,-0.380,-0.040,0.080,0.014,0.995,0.012,0.000,0.002,0.004,0.000,0.000,0.000,0.000,0,2,0,3,7,255,1440,200,0,0,-89.411,0.709,-31.224
EX0521-092111,15,C24,prep,399,399,0,800239.091,0.686,-0.676,0.194,0.187,0,0,0,0,0,0,0,0,0,0.000,0,0,0.060,0.002,-0.020,-0.040,-0.040,0.015,0.992,0.013,0.000,0.002,0.004,0.000,0.000,0.000,0.000,0,2,0,3,7,255,1440,200,0,0,-89.411,0.709,-31.224
EX0521-092111,15,C24,prep,399,399,0,800244.092,0.686,-0.676,0.194,0.187,0,0,0,0,0,0,0,0,0,0.000,0,0,0.242,0.002,0.220,0.020,-0.100,0.015,0.994,0.011,0.000,0.002,0.000,0.000,0.000,0.000,0.000,0,2,0,3,7,255,1440,200,0,0,-89.411,0.709,-31.224
EX0521-092111,15,C24,prep,399,399,0,800249.091,0.686,-0.676,0.194,0.187,0,0,0,0,0,0,0,0,0,0.000,0,0,0.166,0.007,-0.140,-0.040,0.080,0.014,0.995,0.011,0.004,0.006,0.000,0.000,0.000,0.000,0.000,0,2,0,3,7,255,1440,200,0,0,-89.411,0.709,-31.224
EX0521-092111,15,C24,prep,399,399,0,800254.092,0.686,-0.676,0.194,0.187,0,0,0,0,0,0,0,0,0,0.000,0,0,0.092,0.011,-0.080,-0.040,0.020,0.014,0.993,0.011,0.004,0.010,0.000,0.000,0.000,0.000,0.000,0,2,0,3,7,255,1440,200,0,0,-89.411,0.709,-31.224
EX0521-092111,15,C24,prep,419,419,0,800259.092,0.686,-0.676,0.194,0.187,0,0,0,0,0,0,0,0,0,0.000,0,0,0.368,0.011,0.340,-0.100,-0.100,0.015,0.993,0.010,0.004,0.010,-0.010,0.000,0.000,0.000,0.000,0,2,0,3,7,255,1440,200,0,0,-89.411,0.709,-31.224
EX0521-092111,15,C24,prep,419,419,0,800264.091,0.686,-0.676,0.194,0.187,0,0,0,0,0,0,0,0,0,0.000,0,0,0.104,0.013,-0.020,-0.100,0.020,0.015,0.994,0.011,0.008,0.010,-0.010,0.000,0.000,0.000,0.000,0,2,0,3,7,255,1440,200,0,0,-89.411,0.709,-31.224
EX0521-092111,15,C24,prep,420,420,0,800269.092,0.686,-0.676,0.194,0.187,0,0,0,0,0,0,0,0,0,0.000,0,0,0.352,0.011,-0.320,-0.040,0.140,0.014,0.993,0.012,0.008,0.008,-0.010,0.000,0.000,0.000,0.000,0,2,0,3,7,255,1440,200,0,0,-89.411,0.709,-31.224
EX0521-092111,15,C24,prep,420,420,0,800274.091,0.686,-0.676,0.194,0.187,0,0,0,0,0,0,0,0,0,0.000,0,0,0.245,0.003,0.220,-0.040,-0.100,0.014,0.994,0.012,-0.002,0.002,0.000,0.000,0.000,0.000,0.000,0,2,0,3,7,255,1440,200,0,0,-89.411,0.709,-31.224
EX0521-092111,15,C24,prep,431,431,0,800279.092,0.686,-0.676,0.194,0.187,0,0,0,0,0,0,0,0,0,0.000,0,0,0.035,0.003,-0.020,0.020,0.020,0.013,0.995,0.010,-0.002,0.002,0.000,0.000,0.000,0.000,0.000,0,2,0,3,7,255,1440,200,0,0,-89.411,0.709,-31.224
EX0521-092111,15,C24,prep,431,431,0,800284.092,0.686,-0.676,0.194,0.187,0,0,0,0,0,0,0,0,0,0.000,0,0,0.264,0.004,-0.260,-0.040,0.020,0.014,0.994,0.012,-0.002,0.004,0.000,0.000,0.000,0.000,0.000,0,2,0,3,7,255,1440,200,0,0,-89.411,0.709,-31.224
EX0521-092111,15,C24,prep,448,448,0,800289.091,0.686,-0.676,0.194,0.187,0,0,0,0,0,0,0,0,0,0.000,0,0,0.193,0.006,0.160,-0.040,-0.100,0.015,0.993,0.011,-0.002,0.006,0.000,0.000,0.000,0.000,0.000,0,2,0,3,7,255,1440,200,0,0,-89.411,0.709,-31.224
EX0521-092111,15,C24,prep,448,448,0,800294.092,0.686,-0.676,0.194,0.187,0,0,0,0,0,0,0,0,0,0.000,0,0,0.245,0.010,0.220,-0.040,-0.100,0.015,0.996,0.011,0.008,0.006,0.000,0.000,0.000,0.000,0.000,0,2,0,3,7,255,1440,200,0,0,-89.412,0.709,-31.224
EX0521-092111,15,C24,prep,483,483,0,800299.091,0.686,-0.676,0.194,0.187,0,0,0,0,0,0,0,0,0,0.000,0,0,0.237,0.010,-0.200,-0.100,0.080,0.016,0.994,0.011,0.008,0.006,0.000,0.000,0.000,0.000,0.000,0,2,0,3,7,255,1440,200,0,0,-89.412,0.709,-31.224
EX0521-092111,15,C24,prep,483,483,0,800304.091,0.686,-0.676,0.194,0.187,0,0,0,0,0,0,0,0,0,0.000,0,0,0.060,0.010,0.040,-0.040,0.020,0.016,0.993,0.012,0.010,0.002,0.000,0.000,0.000,0.000,0.000,0,2,0,3,7,255,1440,200,0,0,-89.412,0.709,-31.224
EX0521-092111,15,C24,prep,484,484,0,800309.092,0.686,-0.676,0.194,0.187,0,0,0,0,0,0,0,0,0,0.000,0,0,0.193,0.010,0.160,-0.040,-0.100,0.014,0.996,0.011,0.010,0.002,0.000,0.000,0.000,0.000,0.000,0,2,0,3,7,255,1440,200,0,0,-89.412,0.709,-31.224
EX0521-092111,15,C24,prep,484,484,0,800314.091,0.686,-0.676,0.194,0.187,0,0,0,0,0,0,0,0,0,0.000,0,0,0.205,0.008,-0.200,-0.040,0.020,0.014,0.994,0.011,0.000,0.008,0.000,0.000,0.000,0.000,0.000,0,2,0,3,7,255,1440,200,0,0,-89.412,0.709,-31.224
EX0521-092111,15,C24,prep,485,485,0,800319.093,0.686,-0.676,0.194,0.187,0,0,0,0,0,0,0,0,0,0.000,0,0,0.060,0.008,-0.020,-0.040,-0.040,0.014,0.994,0.012,-0.002,0.008,0.000,0.000,0.000,0.000,0.000,0,2,0,3,7,255,1440,200,0,0,-89.412,0.709,-31.224
EX0521-092111,15,C24,prep,485,485,0,800324.093,0.686,-0.676,0.194,0.187,0,0,0,0,0,0,0,0,0,0.000,0,0,0.245,0.004,0.220,-0.040,-0.100,0.014,0.995,0.011,0.000,0.004,0.000,0.000,0.000,0.000,0.000,0,2,0,3,7,255,1440,200,0,0,-89.412,0.709,-31.224
EX0521-092111,15,C24,prep,516,516,0,800329.091,0.686,-0.676,0.194,0.187,0,0,0,0,0,0,0,0,0,0.000,0,0,0.060,0.004,-0.020,-0.040,-0.040,0.015,0.995,0.010,0.000,0.004,0.004,0.000,0.000,0.000,0.000,0,2,0,3,7,255,1440,200,0,0,-89.412,0.709,-31.224
EX0521-092111,15,C24,prep,516,516,0,800334.092,0.686,-0.676,0.194,0.187,0,0,0,0,0,0,0,0,0,0.000,0,0,0.147,0.004,-0.140,-0.040,0.020,0.015,0.993,0.012,0.002,0.004,0.004,0.000,0.000,0.000,0.000,0,2,0,3,7,255,1440,200,0,0,-89.412,0.709,-31.224
EX0521-092111,15,C24,prep,516,516,0,800339.091,0.686,-0.676,0.194,0.187,0,0,0,0,0,0,0,0,0,0.000,0,0,0.166,0.003,0.160,0.020,-0.040,0.014,0.994,0.012,0.002,-0.002,0.000,0.000,0.000,0.000,0.000,0,2,0,3,7,255,1440,200,0,0,-89.412,0.709,-31.224
EX0521-092111,15,C24,prep,516,516,0,800344.092,0.686,-0.676,0.194,0.187,0,0,0,0,0,0,0,0,0,0.000,0,0,0.049,0.003,-0.020,-0.040,0.020,0.014,0.994,0.010,0.002,-0.002,0.000,0.000,0.000,0.000,0.000,0,2,0,3,7,255,1440,200,0,0,-89.412,0.709,-31.224
EX0521-092111,15,C24,prep,516,516,0,800349.092,0.686,-0.676,0.194,0.187,0,0,0,0,0,0,0,0,0,0.000,0,0,0.205,0.006,-0.200,-0.040,0.020,0.015,0.994,0.013,-0.004,-0.004,0.000,0.000,0.000,0.000,0.000,0,2,0,3,7,255,1440,200,0,0,-89.412,0.709,-31.224
EX0521-092111,15,C24,prep,516,516,0,800354.091,0.686,-0.676,0.194,0.187,0,0,0,0,0,0,0,0,0,0.000,0,0,0.115,0.002,0.100,-0.040,-0.040,0.015,0.994,0.011,0.002,0.000,-0.006,0.000,0.000,0.000,0.000,0,2,0,3,7,255,1440,200,0,0,-89.412,0.709,-31.224
EX0521-092111,15,C24,prep,518,518,0,800359.093,0.686,-0.676,0.194,0.187,0,0,0,0,0,0,0,0,0,0.000,0,0,0.115,0.008,0.100,-0.040,-0.040,0.015,0.996,0.011,0.008,0.000,-0.006,0.000,0.000,0.000,0.000,0,2,0,3,7,255,1440,200,0,0,-89.412,0.709,-31.224
EX0521-092111,15,C24,prep,518,518,0,800364.093,0.686,-0.676,0.194,0.187,0,0,0,0,0,0,0,0,0,0.000,0,0,0.173,0.008,-0.140,-0.100,0.020,0.015,0.994,0.012,0.008,0.000,-0.006,0.000,0.000,0.000,0.000,0,2,0,3,7,255,1440,200,0,0,-89.412,0.709,-31.224
EX0521-092111,15,C24,prep,519,519,0,800369.092,0.686,-0.676,0.194,0.187,0,0,0,0,0,0,0,0,0,0.000,0,0,0.060,0.004,0.040,-0.040,0.020,0.014,0.993,0.011,0.000,0.004,-0.006,0.000,0.000,0.000,0.000,0,2,0,3,7,255,1440,200,0,0,-89.412,0.709,-31.224
EX0521-092111,15,C24,prep,519,519,0,800374.092,0.686,-0.676,0.194,0.187,0,0,0,0,0,0,0,0,0,0.000,0,0,0.170,0.004,0.160,-0.040,-0.040,0.013,0.994,0.012,0.000,0.004,-0.006,0.000,0.000,0.000,0.000,0,2,0,3,7,255,1440,200,0,0,-89.412,0.709,-31.224
EX0521-092111,15,C24,prep,527,527,0,800379.091,0.686,-0.676,0.194,0.187,0,0,0,0,0,0,0,0,0,0.000,0,0,0.085,0.012,-0.080,0.020,0.020,0.013,0.994,0.012,-0.010,0.006,-0.006,0.000,0.000,0.000,0.000,0,2,0,3,7,255,1440,200,0,0,-89.412,0.709,-31.224
EX0521-092111,15,C24,prep,527,527,0,800384.092,0.686,-0.676,0.194,0.187,0,0,0,0,0,0,0,0,0,0.000,0,0,0.049,0.012,-0.020,0.020,-0.040,0.016,0.994,0.012,-0.010,0.006,0.000,0.000,0.000,0.000,0.000,0,2,0,3,7,255,1440,200,0,0,-89.412,0.709,-31.224
EX0521-092111,15,C24,prep,545,545,0,800389.092,0.686,-0.676,0.194,0.187,0,0,0,0,0,0,0,0,0,0.000,0,0,0.115,0.012,0.100,-0.040,-0.040,0.016,0.993,0.011,0.012,-0.002,0.000,0.000,0.000,0.000,0.000,0,2,0,3,7,255,1440,200,0,0,-89.412,0.709,-31.224
EX0521-092111,15,C24,prep,545,545,0,800394.091,0.686,-0.676,0.194,0.187,0,0,0,0,0,0,0,0,0,0.000,0,0,0.110,0.012,-0.020,-0.100,-0.040,0.014,0.994,0.012,0.012,-0.002,0.000,0.000,0.000,0.000,0.000,0,2,0,3,7,255,1440,200,0,0,-89.412,0.709,-31.224
EX0521-092111,15,C24,prep,559,559,0,800399.092,0.686,-0.676,0.194,0.187,0,0,0,0,0,0,0,0,0,0.000,0,0,0.147,0.004,-0.140,-0.040,0.020,0.014,0.994,0.012,-0.004,-0.002,0.000,0.000,0.000,0.000,0.000,0,2,0,3,7,255,1440,200,0,0,-89.412,0.709,-31.224
EX0521-092111,15,C24,prep,559,559,0,800404.091,0.686,-0.676,0.194,0.187,0,0,0,0,0,0,0,0,0,0.000,0,0,0.110,0.006,0.100,0.020,-0.040,0.015,0.995,0.011,-0.004,0.004,0.000,0.000,0.000,0.000,0.000,0,2,0,3,7,255,1440,200,0,0,-89.412,0.709,-31.224
EX0521-092111,15,C24,prep,579,579,0,800409.092,0.686,-0.676,0.194,0.187,0,0,0,0,0,0,0,0,0,0.000,0,0,0.092,0.007,-0.080,0.020,-0.040,0.014,0.994,0.010,0.006,0.004,0.000,0.000,0.000,0.000,0.000,0,2,0,3,7,255,1440,200,0,0,-89.412,0.709,-31.224
EX0521-092111,15,C24,prep,579,579,0,800414.092,0.686,-0.676,0.194,0.187,0,0,0,0,0,0,0,0,0,0.000,0,0,0.147,0.008,-0.140,-0.040,0.020,0.014,0.993,0.011,0.006,0.006,0.000,0.000,0.000,0.000,0.000,0,2,0,3,7,255,1440,200,0,0,-89.412,0.709,-31.224
EX0521-092111,15,C24,prep,580,580,0,800419.092,0.686,-0.676,0.194,0.187,0,0,0,0,0,0,0,0,0,0.000,0,0,0.110,0.011,0.100,-0.040,0.020,0.013,0.993,0.011,-0.004,0.010,-0.010,0.000,0.000,0.000,0.000,0,2,0,3,7,255,1440,200,0,0,-89.413,0.709,-31.224
EX0521-092111,15,C24,prep,580,580,0,800424.093,0.686,-0.676,0.194,0.187,0,0,0,0,0,0,0,0,0,0.000,0,0,0.115,0.012,0.100,-0.040,-0.040,0.013,0.994,0.011,-0.006,0.010,-0.010,0.000,0.000,0.000,0.000,0,2,0,3,7,255,1440,200,0,0,-89.413,0.709,-31.224
EX0521-092111,15,C24,prep,581,581,0,800429.091,0.686,-0.676,0.194,0.187,0,0,0,0,0,0,0,0,0,0.000,0,0,0.092,0.012,-0.080,-0.040,0.020,0.014,0.994,0.011,-0.006,0.010,0.000,0.000,0.000,0.000,0.000,0,2,0,3,7,255,1440,200,0,0,-89.413,0.709,-31.224
EX0521-092111,15,C24,prep,581,581,0,800434.091,0.686,-0.676,0.194,0.187,0,0,0,0,0,0,0,0,0,0.000,0,0,0.110,0.008,0.040,-0.100,0.020,0.016,0.994,0.011,0.002,0.008,0.000,0.000,0.000,0.000,0.000,0,2,0,3,7,255,1440,200,0,0,-89.413,0.709,-31.224
EX0521-092111,15,C24,prep,591,591,0,800439.092,0.686,-0.676,0.194,0.187,0,0,0,0,0,0,0,0,0,0.000,0,0,0.069,0.003,0.040,-0.040,-0.040,0.015,0.994,0.012,0.002,-0.002,0.000,0.000,0.000,0.000,0.000,0,2,0,3,7,255,1440,200,0,0,-89.413,0.709,-31.224
EX0521-092111,15,C24,prep,591,591,0,800444.091,0.686,-0.676,0.194,0.187,0,0,0,0,0,0,0,0,0,0.000,0,0,0.092,0.004,-0.080,-0.040,0.020,0.015,0.993,0.011,0.004,-0.002,-0.004,0.000,0.000,0.000,0.000,0,2,0,3,7,255,1440,200,0,0,-89.413,0.709,-31.224
EX0521-092111,15,C24,prep,613,613,0,800449.092,0.686,-0.676,0.194,0.187,0,0,0,0,0,0,0,0,0,0.000,0,0,0.110,0.003,-0.020,-0.100,-0.040,0.014,0.993,0.012,0.002,-0.002,-0.010,0.000,0.000,0.000,0.000,0,2,0,3,7,255,1440,200,0,0,-89.413,0.709,-31.224
EX0521-092111,15,C24,prep,613,613,0,800454.092,0.686,-0.676,0.194,0.187,0,0,0,0,0,0,0,0,0,0.000,0,0,0.147,0.006,0.100,-0.100,-0.040,0.015,0.995,0.012,0.004,-0.004,-0.010,0.000,0.000,0.000,0.000,0,2,0,3,7,255,1440,200,0,0,-89.413,0.709,-31.224
EX0521-092111,15,C24,prep,613,613,0,800459.092,0.686,-0.676,0.194,0.187,0,0,0,0,0,0,0,0,0,0.000,0,0,0.115,0.007,0.040,-0.100,-0.040,0.015,0.994,0.011,0.006,-0.004,0.000,0.000,0.000,0.000,0.000,0,2,0,3,7,255,1440,200,0,0,-89.413,0.709,-31.224
EX0521-092111,15,C24,prep,613,613,0,800464.092,0.686,-0.676,0.194,0.187,0,0,0,0,0,0,0,0,0,0.000,0,0,0.098,0.006,-0.080,-0.040,-0.040,0.015,0.994,0.011,0.006,0.000,0.000,0.000,0.000,0.000,0.000,0,2,0,3,7,255,1440,200,0,0,-89.413,0.709,-31.224
EX0521-092111,15,C24,prep,614,614,0,800469.091,0.686,-0.676,0.194,0.187,0,0,0,0,0,0,0,0,0,0.000,0,0,0.069,0.006,0.040,-0.040,-0.040,0.015,0.994,0.012,0.006,0.000,0.000,0.000,0.000,0.000,0.000,0,2,0,3,7,255,1440,200,0,0,-89.413,0.709,-31.224
EX0521-092111,15,C24,prep,614,614,0,800474.092,0.686,-0.676,0.194,0.187,0,0,0,0,0,0,0,0,0,0.000,0,0,0.098,0.006,-0.080,-0.040,-0.040,0.014,0.995,0.011,0.006,0.000,0.000,0.000,0.000,0.000,0.000,0,2,0,3,7,255,1440,200,0,0,-89.413,0.709,-31.224
EX0521-092111,15,C24,prep,650,650,0,800479.092,0.686,-0.676,0.194,0.187,0,0,0,0,0,0,0,0,0,0.000,0,0,0.098,0.002,-0.080,-0.040,-0.040,0.014,0.993,0.012,-0.002,0.000,0.000,0.000,0.000,0.000,0.000,0,2,0,3,7,255,1440,200,0,0,-89.413,0.709,-31.224
EX0521-092111,15,C24,prep,650,650,0,800484.091,0.686,-0.676,0.194,0.187,0,0,0,0,0,0,0,0,0,0.000,0,0,0.115,0.007,0.100,-0.040,-0.040,0.014,0.995,0.011,-0.004,0.006,0.004,0.000,0.000,0.000,0.000,0,2,0,3,7,255,1440,200,0,0,-89.413,0.709,-31.224
EX0521-092111,15,C24,prep,650,650,0,800489.092,0.686,-0.676,0.194,0.187,0,0,0,0,0,0,0,0,0,0.000,0,0,0.069,0.003,0.040,-0.040,-0.040,0.015,0.994,0.011,-0.002,0.002,-0.004,0.000,0.000,0.000,0.000,0,2,0,3,7,255,1440,200,0,0,-89.413,0.709,-31.224
EX0521-092111,15,C24,prep,650,650,0,800494.091,0.686,-0.676,0.194,0.187,0,0,0,0,0,0,0,0,0,0.000,0,0,0.098,0.004,-0.080,-0.040,-0.040,0.014,0.994,0.012,-0.004,0.002,0.000,0.000,0.000,0.000,0.000,0,2,0,3,7,255,1440,200,0,0,-89.413,0.709,-31.224
EX0521-092111,15,C24,prep,651,651,0,800499.092,0.686,-0.676,0.194,0.187,0,0,0,0,0,0,0,0,0,0.000,0,0,0.069,0.006,0.040,-0.040,-0.040,0.015,0.993,0.012,0.004,-0.004,-0.004,0.000,0.000,0.000,0.000,0,2,0,3,7,255,1440,200,0,0,-89.413,0.709,-31.224
EX0521-092111,15,C24,prep,651,651,0,800504.092,0.686,-0.676,0.194,0.187,0,0,0,0,0,0,0,0,0,0.000,0,0,0.110,0.004,-0.020,-0.100,-0.040,0.014,0.995,0.011,-0.002,-0.004,0.000,0.000,0.000,0.000,0.000,0,2,0,3,7,255,1440,200,0,0,-89.413,0.709,-31.224
EX0521-092111,15,C24,prep,684,684,0,800509.091,0.686,-0.676,0.194,0.187,0,0,0,0,0,0,0,0,0,0.000,0,0,0.098,0.011,-0.080,-0.040,-0.040,0.014,0.994,0.010,0.004,0.010,0.000,0.000,0.000,0.000,0.000,0,2,0,3,7,255,1440,200,0,0,-89.413,0.709,-31.224
EX0521-092111,15,C24,prep,684,684,0,800514.092,0.686,-0.676,0.194,0.187,0,0,0,0,0,0,0,0,0,0.000,0,0,0.060,0.010,-0.020,-0.040,-0.040,0.013,0.995,0.012,-0.002,0.010,0.004,0.000,0.000,0.000,0.000,0,2,0,3,7,255,1440,200,0,0,-89.413,0.709,-31.224
EX0521-092111,15,C24,prep,685,685,0,800519.093,0.686,-0.676,0.194,0.187,0,0,0,0,0,0,0,0,0,0.000,0,0,0.069,0.012,0.040,-0.040,-0.040,0.014,0.993,0.010,0.000,0.012,0.000,0.000,0.000,0.000,0.000,0,2,0,3,7,255,1440,200,0,0,-89.413,0.710,-31.224
EX0521-092111,15,C24,prep,685,685,0,800524.093,0.686,-0.676,0.194,0.187,0,0,0,0,0,0,0,0,0,0.000,0,0,0.060,0.004,-0.020,-0.040,-0.040,0.014,0.994,0.012,-0.004,0.000,-0.004,0.000,0.000,0.000,0.000,0,2,0,3,7,255,1440,200,0,0,-89.413,0.710,-31.224
EX0521-092111,15,C24,prep,685,685,0,800529.092,0.686,-0.676,0.194,0.187,0,0,0,0,0,0,0,0,0,0.000,0,0,0.092,0.002,-0.080,-0.040,0.020,0.015,0.994,0.011,0.000,0.002,-0.004,0.000,0.000,0.000,0.000,0,2,0,3,7,255,1440,200,0,0,-89.413,0.710,-31.224
EX0521-092111,15,C24,prep,686,686,0,800534.091,0.686,-0.676,0.194,0.187,0,0,0,0,0,0,0,0,0,0.000,0,0,0.069,0.002,0.040,-0.040,-0.040,0.014,0.995,0.011,0.000,0.002,0.000,0.000,0.000,0.000,0.000,0,2,0,3,7,255,1440,200,0,0,-89.413,0.710,-31.224
EX0521-092111,15,C24,prep,718,718,0,800539.092,0.686,-0.676,0.194,0.187,0,0,0,0,0,0,0,0,0,0.000,0,0,0.049,0.004,-0.020,-0.040,0.020,0.014,0.994,0.011,0.002,0.004,0.000,0.000,0.000,0.000,0.000,0,2,0,3,7,255,1440,200,0,0,-89.414,0.710,-31.224
EX0521-092111,15,C24,prep,718,718,0,800544.092,0.686,-0.676,0.194,0.187,0,0,0,0,0,0,0,0,0,0.000,0,0,0.134,0.004,-0.080,-0.100,-0.040,0.015,0.994,0.012,0.002,0.004,-0.004,0.000,0.000,0.000,0.000,0,2,0,3,7,255,1440,200,0,0,-89.414,0.710,-31.224
EX0521-092111,15,C24,prep,718,718,0,800549.091,0.686,-0.676,0.194,0.187,0,0,0,0,0,0,0,0,0,0.000,0,0,0.069,0.004,0.040,-0.040,-0.040,0.014,0.993,0.011,0.002,0.004,-0.004,0.000,0.000,0.000,0.000,0,2,0,3,7,255,1440,200,0,0,-89.414,0.710,-31.224
EX0521-092111,15,C24,prep,718,718,0,800554.092,0.686,-0.676,0.194,0.187,0,0,0,0,0,0,0,0,0,0.000,0,0,0.115,0.004,0.040,-0.100,-0.040,0.014,0.995,0.011,0.000,0.004,-0.004,0.000,0.000,0.000,0.000,0,2,0,3,7,255,1440,200,0,0,-89.414,0.710,-31.224
EX0521-092111,15,C24,prep,729,729,0,800559.092,0.686,-0.676,0.194,0.187,0,0,0,0,0,0,0,0,0,0.000,0,0,0.060,0.004,-0.020,-0.040,-0.040,0.014,0.993,0.011,0.000,0.004,-0.010,0.000,0.000,0.000,0.000,0,2,0,3,7,255,1440,200,0,0,-89.414,0.710,-31.224
EX0521-092111,15,C24,prep,729,729,0,800564.093,0.686,-0.676,0.194,0.187,0,0,0,0,0,0,0,0,0,0.000,0,0,0.060,0.004,-0.020,-0.040,-0.040,0.015,0.995,0.012,0.000,0.004,0.006,0.000,0.000,0.000,0.000,0,2,0,3,7,255,1440,200,0,0,-89.414,0.710,-31.224
EX0521-092111,15,C24,prep,729,729,0,800569.092,0.686,-0.676,0.194,0.187,0,0,0,0,0,0,0,0,0,0.000,0,0,0.060,0.004,-0.020,-0.040,-0.040,0.014,0.995,0.011,0.002,0.004,0.006,0.000,0.000,0.000,0.000,0,2,0,3,7,255,1440,200,0,0,-89.414,0.710,-31.224
EX0521-092111,15,C24,prep,729,729,0,800574.091,0.686,-0.676,0.194,0.187,0,0,0,0,0,0,0,0,0,0.000,0,0,0.092,0.008,-0.080,0.020,-0.040,0.014,0.994,0.010,0.002,0.008,0.006,0.000,0.000,0.000,0.000,0,2,0,3,7,255,1440,200,0,0,-89.414,0.710,-31.224
EX0521-092111,15,C24,prep,730,730,0,800579.092,0.686,-0.676,0.194,0.187,0,0,0,0,0,0,0,0,0,0.000,0,0,0.060,0.008,-0.020,-0.040,-0.040,0.015,0.994,0.011,0.002,0.008,0.000,0.000,0.000,0.000,0.000,0,2,0,3,7,255,1440,200,0,0,-89.414,0.710,-31.224
EX0521-092111,15,C24,prep,730,730,0,800584.092,0.686,-0.676,0.194,0.187,0,0,0,0,0,0,0,0,0,0.000,0,0,0.060,0.002,0.040,0.020,-0.040,0.014,0.994,0.012,0.000,0.002,0.000,0.000,0.000,0.000,0.000,0,2,0,3,7,255,1440,200,0,0,-89.414,0.710,-31.224
EX0521-092111,15,C24,prep,746,746,0,800589.091,0.686,-0.676,0.194,0.187,0,0,0,0,0,0,0,0,0,0.000,0,0,0.049,0.004,-0.020,0.020,-0.040,0.015,0.994,0.011,0.004,0.000,0.000,0.000,0.000,0.000,0.000,0,2,0,3,7,255,1440,200,0,0,-89.414,0.710,-31.224
EX0521-092111,15,C24,prep,746,746,0,800594.092,0.686,-0.676,0.194,0.187,0,0,0,0,0,0,0,0,0,0.000,0,0,0.060,0.002,-0.020,-0.040,-0.040,0.014,0.993,0.012,-0.002,0.000,0.000,0.000,0.000,0.000,0.000,0,2,0,3,7,255,1440,200,0,0,-89.414,0.710,-31.224
EX0521-092111,15,C24,prep,784,784,0,800599.091,0.686,-0.676,0.194,0.187,0,0,0,0,0,0,0,0,0,0.000,0,0,0.069,0.003,0.040,-0.040,-0.040,0.014,0.994,0.012,-0.002,-0.002,0.000,0.000,0.000,0.000,0.000,0,2,0,3,7,255,1440,200,0,0,-89.414,0.710,-31.224
EX0521-092111,15,C24,prep,784,784,0,800604.092,0.686,-0.676,0.194,0.187,0,0,0,0,0,0,0,0,0,0.000,0,0,0.060,0.003,-0.020,-0.040,-0.040,0.014,0.993,0.011,-0.002,-0.002,-0.010,0.000,0.000,0.000,0.000,0,2,0,3,7,255,1440,200,0,0,-89.414,0.710,-31.224
EX0521-092111,15,C24,prep,784,784,0,800609.092,0.686,-0.676,0.194,0.187,0,0,0,0,0,0,0,0,0,0.000,0,0,0.092,0.012,-0.080,-0.040,0.020,0.013,0.994,0.011,-0.006,0.010,-0.004,0.000,0.000,0.000,0.000,0,2,0,3,7,255,1440,200,0,0,-89.414,0.710,-31.224
EX0521-092111,15,C24,prep,784,784,0,800614.091,0.686,-0.676,0.194,0.187,0,0,0,0,0,0,0,0,0,0.000,0,0,0.060,0.010,-0.020,-0.040,-0.040,0.015,0.993,0.011,-0.002,0.010,-0.010,0.000,0.000,0.000,0.000,0,2,0,3,7,255,1440,200,0,0,-89.414,0.710,-31.224
EX0521-092111,15,C24,prep,784,784,0,800619.092,0.686,-0.676,0.194,0.187,0,0,0,0,0,0,0,0,0,0.000,0,0,0.069,0.012,0.040,-0.040,-0.040,0.014,0.994,0.010,0.000,0.012,-0.004,0.000,0.000,0.000,0.000,0,2,0,3,7,255,1440,200,0,0,-89.414,0.710,-31.224
EX0521-092111,15,C24,prep,784,784,0,800624.093,0.686,-0.676,0.194,0.187,0,0,0,0,0,0,0,0,0,0.000,0,0,0.060,0.000,-0.020,-0.040,-0.040,0.013,0.994,0.012,0.000,0.000,-0.004,0.000,0.000,0.000,0.000,0,2,0,3,7,255,1440,200,0,0,-89.414,0.710,-31.224
EX0521-092111,15,C24,prep,799,799,0,800629.092,0.686,-0.676,0.194,0.187,0,0,0,0,0,0,0,0,0,0.000,0,0,0.060,0.010,0.040,0.020,-0.040,0.014,0.993,0.011,-0.002,0.010,-0.004,0.000,0.000,0.000,0.000,0,2,0,3,7,255,1440,200,0,0,-89.414,0.710,-31.224
EX0521-092111,15,C24,prep,799,799,0,800634.092,0.686,-0.676,0.194,0.187,0,0,0,0,0,0,0,0,0,0.000,0,0,0.069,0.010,0.040,-0.040,-0.040,0.014,0.994,0.011,-0.002,0.010,-0.004,0.000,0.000,0.000,0.000,0,2,0,3,7,255,1440,200,0,0,-89.414,0.710,-31.224
EX0521-092111,15,C24,prep,799,799,0,800639.091,0.686,-0.676,0.194,0.187,0,0,0,0,0,0,0,0,0,0.000,0,0,0.098,0.010,-0.080,-0.040,-0.040,0.014,0.995,0.012,-0.002,0.010,0.000,0.000,0.000,0.000,0.000,0,2,0,3,7,255,1440,200,0,0,-89.414,0.710,-31.224
EX0521-092111,15,C24,prep,799,799,0,800644.092,0.686,-0.676,0.194,0.187,0,0,0,0,0,0,0,0,0,0.000,0,0,0.104,0.010,-0.020,-0.100,0.020,0.013,0.994,0.011,-0.002,0.010,0.000,0.000,0.000,0.000,0.000,0,2,0,3,7,255,1440,200,0,0,-89.414,0.710,-31.224
EX0521-092111,15,C24,prep,799,799,0,800649.091,0.686,-0.676,0.194,0.187,0,0,0,0,0,0,0,0,0,0.000,0,0,0.060,0.007,0.040,0.020,-0.040,0.014,0.994,0.011,-0.004,0.006,0.000,0.000,0.000,0.000,0.000,0,2,0,3,7,255,1440,200,0,0,-89.414,0.710,-31.224
EX0521-092111,15,C24,prep,799,799,0,800654.092,0.686,-0.676,0.194,0.187,0,0,0,0,0,0,0,0,0,0.000,0,0,0.098,0.011,-0.080,-0.040,-0.040,0.014,0.994,0.010,-0.004,0.010,-0.004,0.000,0.000,0.000,0.000,0,2,0,3,7,255,1440,200,0,0,-89.414,0.710,-31.224
EX0521-092111,15,C24,prep,817,817,0,800659.092,0.686,-0.676,0.194,0.187,0,0,0,0,0,0,0,0,0,0.000,0,0,0.060,0.008,-0.020,-0.040,-0.040,0.015,0.994,0.011,0.006,0.006,0.000,0.000,0.000,0.000,0.000,0,2,0,3,7,255,1440,200,0,0,-89.415,0.710,-31.224
EX0521-092111,15,C24,prep,817,817,0,800664.091,0.686,-0.676,0.194,0.187,0,0,0,0,0,0,0,0,0,0.000,0,0,0.060,0.008,0.040,0.020,-0.040,0.015,0.995,0.011,0.008,-0.002,0.002,0.000,0.000,0.000,0.000,0,2,0,3,7,255,1440,200,0,0,-89.415,0.710,-31.224
EX0521-092111,15,C24,prep,818,818,0,800669.092,0.686,-0.676,0.194,0.187,0,0,0,0,0,0,0,0,0,0.000,0,0,0.049,0.008,0.040,0.020,0.020,0.014,0.994,0.012,0.008,-0.002,0.002,0.000,0.000,0.000,0.000,0,2,0,3,7,255,1440,200,0,0,-89.415,0.710,-31.224
EX0521-092111,15,C24,prep,818,818,0,800674.092,0.686,-0.676,0.194,0.187,0,0,0,0,0,0,0,0,0,0.000,0,0,0.060,0.006,-0.020,-0.040,-0.040,0.014,0.994,0.012,-0.006,-0.002,0.000,0.000,0.000,0.000,0.000,0,2,0,3,7,255,1440,200,0,0,-89.415,0.710,-31.224
EX0521-092111,15,C24,prep,831,831,0,800679.091,0.686,-0.676,0.194,0.187,0,0,0,0,0,0,0,0,0,0.000,0,0,0.069,0.006,0.040,-0.040,-0.040,0.014,0.995,0.010,-0.006,0.000,0.000,0.000,0.000,0.000,0.000,0,2,0,3,7,255,1440,200,0,0,-89.415,0.710,-31.224
EX0521-092111,15,C24,prep,831,831,0,800684.092,0.686,-0.676,0.194,0.187,0,0,0,0,0,0,0,0,0,0.000,0,0,0.049,0.006,-0.020,0.020,-0.040,0.014,0.994,0.011,-0.004,0.004,-0.004,0.000,0.000,0.000,0.000,0,2,0,3,7,255,1440,200,0,0,-89.415,0.710,-31.224
EX0521-092111,15,C24,prep,863,863,0,800689.091,0.686,-0.676,0.194,0.187,0,0,0,0,0,0,0,0,0,0.000,0,0,0.110,0.011,-0.020,-0.040,-0.100,0.014,0.994,0.010,0.004,0.010,0.000,0.000,0.000,0.000,0.000,0,2,0,3,7,255,1440,200,0,0,-89.415,0.710,-31.224
EX0521-092111,15,C24,prep,863,863,0,800694.092,0.686,-0.676,0.194,0.187,0,0,0,0,0,0,0,0,0,0.000,0,0,0.115,0.006,0.040,-0.100,-0.040,0.015,0.993,0.012,0.004,0.004,-0.004,0.000,0.000,0.000,0.000,0,2,0,3,7,255,1440,200,0,0,-89.415,0.710,-31.224
EX0521-092111,15,C24,prep,863,863,0,800699.092,0.686,-0.676,0.194,0.187,0,0,0,0,0,0,0,0,0,0.000,0,0,0.060,0.004,-0.020,-0.040,-0.040,0.015,0.994,0.011,0.004,0.000,0.000,0.000,0.000,0.000,0.000,0,2,0,3,7,255,1440,200,0,0,-89.415,0.710,-31.224
EX0521-092111,15,C24,prep,863,863,0,800704.091,0.686,-0.676,0.194,0.187,0,0,0,0,0,0,0,0,0,0.000,0,0,0.060,0.011,-0.020,-0.040,-0.040,0.014,0.994,0.013,0.004,-0.010,-0.004,0.000,0.000,0.000,0.000,0,2,0,3,7,255,1440,200,0,0,-89.415,0.710,-31.224
EX0521-092111,15,C24,prep,882,882,0,800709.092,0.686,-0.676,0.194,0.187,0,0,0,0,0,0,0,0,0,0.000,0,0,0.049,0.004,-0.020,0.020,-0.040,0.015,0.993,0.011,0.004,0.000,-0.004,0.000,0.000,0.000,0.000,0,2,0,3,7,255,1440,200,0,0,-89.415,0.710,-31.224
EX0521-092111,15,C24,prep,882,882,0,800714.091,0.686,-0.676,0.194,0.187,0,0,0,0,0,0,0,0,0,0.000,0,0,0.060,0.002,-0.020,-0.040,-0.040,0.014,0.993,0.011,0.000,0.002,-0.008,0.000,0.000,0.000,0.000,0,2,0,3,7,255,1440,200,0,0,-89.415,0.710,-31.224
EX0521-092111,15,C24,prep,883,883,0,800719.092,0.686,-0.676,0.194,0.187,0,0,0,0,0,0,0,0,0,0.000,0,0,0.110,0.002,-0.020,-0.100,-0.040,0.014,0.994,0.011,0.000,0.002,-0.008,0.000,0.000,0.000,0.000,0,2,0,3,7,255,1440,200,0,0,-89.415,0.710,-31.224
EX0521-092111,15,C24,prep,883,883,0,800724.093,0.686,-0.676,0.194,0.187,0,0,0,0,0,0,0,0,0,0.000,0,0,0.110,0.003,-0.020,-0.100,-0.040,0.014,0.994,0.012,-0.002,0.002,0.002,0.000,0.000,0.000,0.000,0,2,0,3,7,255,1440,200,0,0,-89.415,0.710,-31.224
EX0521-092111,15,C24,prep,884,884,0,800729.091,0.686,-0.676,0.194,0.187,0,0,0,0,0,0,0,0,0,0.000,0,0,0.060,0.003,0.040,-0.040,0.020,0.015,0.994,0.011,-0.002,-0.002,0.002,0.000,0.000,0.000,0.000,0,2,0,3,7,255,1440,200,0,0,-89.415,0.710,-31.224
EX0521-092111,15,C24,prep,884,884,0,800734.092,0.686,-0.676,0.194,0.187,0,0,0,0,0,0,0,0,0,0.000,0,0,0.035,0.008,-0.020,0.020,0.020,0.015,0.994,0.011,0.008,-0.002,-0.004,0.000,0.000,0.000,0.000,0,2,0,3,7,255,1440,200,0,0,-89.415,0.710,-31.224
EX0521-092111,15,C24,prep,895,895,0,800739.092,0.686,-0.676,0.194,0.187,0,0,0,0,0,0,0,0,0,0.000,0,0,0.049,0.008,-0.020,0.020,-0.040,0.014,0.993,0.011,0.008,0.002,-0.004,0.000,0.000,0.000,0.000,0,2,0,3,7,255,1440,200,0,0,-89.415,0.710,-31.224
EX0521-092111,15,C24,prep,895,895,0,800744.091,0.686,-0.676,0.194,0.187,0,0,0,0,0,0,0,0,0,0.000,0,0,0.069,0.003,0.040,-0.040,-0.040,0.014,0.995,0.012,-0.002,0.002,-0.004,0.000,0.000,0.000,0.000,0,2,0,3,7,255,1440,200,0,0,-89.415,0.710,-31.224
EX0521-092111,15,C24,prep,918,918,0,800749.092,0.686,-0.676,0.194,0.187,0,0,0,0,0,0,0,0,0,0.000,0,0,0.060,0.003,-0.020,-0.040,-0.040,0.014,0.994,0.011,-0.002,0.002,0.002,0.000,0.000,0.000,0.000,0,2,0,3,7,255,1440,200,0,0,-89.415,0.710,-31.224
EX0521-092111,15,C24,prep,918,918,0,800754.091,0.686,-0.676,0.194,0.187,0,0,0,0,0,0,0,0,0,0.000,0,0,0.060,0.004,0.040,-0.040,0.020,0.016,0.994,0.011,0.000,-0.004,0.002,0.000,0.000,0.000,0.000,0,2,0,3,7,255,1440,200,0,0,-89.415,0.710,-31.224
EX0521-092111,15,C24,prep,918,918,0,800759.093,0.686,-0.676,0.194,0.187,0,0,0,0,0,0,0,0,0,0.000,0,0,0.069,0.002,0.040,-0.040,-0.040,0.014,0.993,0.012,0.000,-0.002,0.002,0.000,0.000,0.000,0.000,0,2,0,3,7,255,1440,200,0,0,-89.415,0.710,-31.224
EX0521-092111,15,C24,prep,918,918,0,800764.093,0.686,-0.676,0.194,0.187,0,0,0,0,0,0,0,0,0,0.000,0,0,0.069,0.008,0.040,-0.040,-0.040,0.015,0.993,0.012,-0.002,-0.008,-0.012,0.000,0.000,0.000,0.000,0,2,0,3,7,255,1440,200,0,0,-89.415,0.710,-31.224
EX0521-092111,15,C24,prep,919,919,0,800769.091,0.686,-0.676,0.194,0.187,0,0,0,0,0,0,0,0,0,0.000,0,0,0.060,0.004,-0.020,-0.040,-0.040,0.015,0.994,0.012,-0.002,-0.004,-0.012,0.000,0.000,0.000,0.000,0,2,0,3,7,255,1440,200,0,0,-89.415,0.710,-31.224
EX0521-092111,15,C24,prep,919,919,0,800774.092,0.686,-0.676,0.194,0.187,0,0,0,0,0,0,0,0,0,0.000,0,0,0.069,0.004,0.040,-0.040,-0.040,0.014,0.994,0.011,0.002,-0.004,-0.004,0.000,0.000,0.000,0.000,0,2,0,3,7,255,1440,200,0,0,-89.415,0.710,-31.224
EX0521-092111,15,C24,prep,952,952,0,800779.091,0.686,-0.676,0.194,0.187,0,0,0,0,0,0,0,0,0,0.000,0,0,0.069,0.002,0.040,-0.040,-0.040,0.015,0.994,0.011,0.002,0.000,-0.004,0.000,0.000,0.000,0.000,0,2,0,3,7,255,1440,200,0,0,-89.415,0.710,-31.224
EX0521-092111,15,C24,prep,952,952,0,800784.092,0.686,-0.676,0.194,0.187,0,0,0,0,0,0,0,0,0,0.000,0,0,0.092,0.002,-0.080,-0.040,0.020,0.014,0.993,0.012,0.002,0.000,-0.004,0.000,0.000,0.000,0.000,0,2,0,3,7,255,1440,200,0,0,-89.416,0.710,-31.224
EX0521-092111,15,C24,prep,952,952,0,800789.092,0.686,-0.676,0.194,0.187,0,0,0,0,0,0,0,0,0,0.000,0,0,0.098,0.004,-0.080,-0.040,-0.040,0.016,0.993,0.012,0.004,-0.002,-0.008,0.000,0.000,0.000,0.000,0,2,0,3,7,255,1440,200,0,0,-89.416,0.710,-31.224
EX0521-092111,15,C24,prep,952,952,0,800794.091,0.686,-0.676,0.194,0.187,0,0,0,0,0,0,0,0,0,0.000,0,0,0.069,0.010,0.040,-0.040,-0.040,0.015,0.994,0.011,0.010,-0.002,-0.008,0.000,0.000,0.000,0.000,0,2,0,3,7,255,1440,200,0,0,-89.416,0.710,-31.224
EX0521-092111,15,C24,prep,953,953,0,800799.092,0.686,-0.676,0.194,0.187,0,0,0,0,0,0,0,0,0,0.000,0,0,0.060,0.014,-0.020,-0.040,-0.040,0.016,0.994,0.012,0.010,-0.010,0.002,0.000,0.000,0.000,0.000,0,2,0,3,7,255,1440,200,0,0,-89.416,0.710,-31.224
EX0521-092111,15,C24,prep,953,953,0,800804.091,0.686,-0.676,0.194,0.187,0,0,0,0,0,0,0,0,0,0.000,0,0,0.060,0.010,-0.020,-0.040,-0.040,0.015,0.993,0.010,0.010,0.002,0.002,0.000,0.000,0.000,0.000,0,2,0,3,7,255,1440,200,0,0,-89.416,0.710,-31.224
EX0521-092111,15,C24,prep,991,991,0,800809.092,0.686,-0.676,0.194,0.187,0,0,0,0,0,0,0,0,0,0.000,0,0,0.060,0.011,-0.020,-0.040,-0.040,0.014,0.994,0.011,0.010,0.004,0.002,0.000,0.000,0.000,0.000,0,2,0,3,7,255,1440,200,0,0,-89.416,0.710,-31.224
EX0521-092111,15,C24,prep,991,991,0,800814.092,0.686,-0.676,0.194,0.187,0,0,0,0,0,0,0,0,0,0.000,0,0,0.110,0.006,-0.020,-0.100,-0.040,0.015,0.995,0.011,0.004,0.004,0.002,0.000,0.000,0.000,0.000,0,2,0,3,7,255,1440,200,0,0,-89.416,0.710,-31.224
EX0521-092111,15,C24,prep,991,991,0,800819.092,0.686,-0.676,0.194,0.187,0,0,0,0,0,0,0,0,0,0.000,0,0,0.115,0.000,0.040,-0.100,-0.040,0.015,0.994,0.012,0.000,0.000,0.002,0.000,0.000,0.000,0.000,0,2,0,3,7,255,1440,200,0,0,-89.416,0.710,-31.224
EX0521-092111,15,C24,prep,991,991,0,800824.093,0.686,-0.676,0.194,0.187,0,0,0,0,0,0,0,0,0,0.000,0,0,0.110,0.002,-0.020,-0.040,-0.100,0.014,0.994,0.012,0.000,-0.002,0.002,0.000,0.000,0.000,0.000,0,2,0,3,7,255,1440,200,0,0,-89.416,0.710,-31.224
EX0521-092111,15,C24,prep,991,991,0,800829.092,0.686,-0.676,0.194,0.187,0,0,0,0,0,0,0,0,0,0.000,0,0,0.049,0.004,-0.020,0.020,-0.040,0.013,0.994,0.012,-0.004,-0.002,-0.004,0.000,0.000,0.000,0.000,0,2,0,3,7,255,1440,200,0,0,-89.416,0.710,-31.224
EX0521-092111,15,C24,prep,991,991,0,800834.091,0.686,-0.676,0.194,0.187,0,0,0,0,0,0,0,0,0,0.000,0,0,0.049,0.004,-0.020,0.020,-0.040,0.014,0.995,0.011,-0.004,0.002,-0.004,0.000,0.000,0.000,0.000,0,2,0,3,7,255,1440,200,0,0,-89.416,0.710,-31.224
EX0521-092111,15,C24,prep,1018,1018,0,800839.092,0.686,-0.676,0.194,0.187,0,0,0,0,0,0,0,0,0,0.000,0,0,0.060,0.002,-0.020,-0.040,-0.040,0.015,0.993,0.011,0.000,0.002,-0.004,0.000,0.000,0.000,0.000,0,2,0,3,7,255,1440,200,0,0,-89.416,0.710,-31.224
EX0521-092111,15,C24,prep,1018,1018,0,800844.091,0.686,-0.676,0.194,0.187,0,0,0,0,0,0,0,0,0,0.000,0,0,0.069,0.008,0.040,-0.040,-0.040,0.016,0.995,0.011,0.008,-0.002,0.006,0.000,0.000,0.000,0.000,0,2,0,3,7,255,1440,200,0,0,-89.416,0.710,-31.224
EX0521-092111,15,C24,prep,1018,1018,0,800849.092,0.686,-0.676,0.194,0.187,0,0,0,0,0,0,0,0,0,0.000,0,0,0.115,0.008,0.040,-0.100,-0.040,0.015,0.994,0.011,0.008,-0.002,-0.002,0.000,0.000,0.000,0.000,0,2,0,3,7,255,1440,200,0,0,-89.416,0.710,-31.224
EX0521-092111,15,C24,prep,1018,1018,0,800854.092,0.686,-0.676,0.194,0.187,0,0,0,0,0,0,0,0,0,0.000,0,0,0.069,0.009,0.040,-0.040,-0.040,0.014,0.995,0.012,0.008,-0.004,0.012,0.000,0.000,0.000,0.000,0,2,0,3,7,255,1440,200,0,0,-89.416,0.710,-31.224
EX0521-092111,15,C24,prep,1019,1019,0,800859.092,0.686,-0.676,0.194,0.187,0,0,0,0,0,0,0,0,0,0.000,0,0,0.060,0.004,-0.020,-0.040,-0.040,0.014,0.994,0.012,-0.004,-0.002,0.002,0.000,0.000,0.000,0.000,0,2,0,3,7,255,1440,200,0,0,-89.416,0.710,-31.224
EX0521-092111,15,C24,prep,1019,1019,0,800864.092,0.686,-0.676,0.194,0.187,0,0,0,0,0,0,0,0,0,0.000,0,0,0.110,0.004,-0.020,-0.100,-0.040,0.014,0.993,0.011,-0.004,-0.002,0.002,0.000,0.000,0.000,0.000,0,2,0,3,7,255,1440,200,0,0,-89.416,0.710,-31.224
EX0521-092111,15,C24,prep,1019,1019,0,800869.091,0.686,-0.676,0.194,0.187,0,0,0,0,0,0,0,0,0,0.000,0,0,0.069,0.004,0.040,-0.040,-0.040,0.015,0.993,0.012,-0.004,-0.002,-0.008,0.000,0.000,0.000,0.000,0,2,0,3,7,255,1440,200,0,0,-89.416,0.710,-31.224
EX0521-092111,15,C24,prep,1019,1019,0,800874.091,0.686,-0.676,0.194,0.187,0,0,0,0,0,0,0,0,0,0.000,0,0,0.110,0.004,-0.020,-0.100,-0.040,0.015,0.994,0.011,-0.002,0.004,-0.008,0.000,0.000,0.000,0.000,0,2,0,3,7,255,1440,200,0,0,-89.416,0.710,-31.224
EX0521-092111,15,C24,prep,1046,1046,0,800879.092,0.686,-0.676,0.194,0.187,0,0,0,0,0,0,0,0,0,0.000,0,0,0.060,0.002,-0.020,-0.040,-0.040,0.014,0.994,0.011,0.000,0.002,-0.004,0.000,0.000,0.000,0.000,0,2,0,3,7,255,1440,200,0,0,-89.416,0.710,-31.224
EX0521-092111,15,C24,prep,1046,1046,0,800884.091,0.686,-0.676,0.194,0.187,0,0,0,0,0,0,0,0,0,0.000,0,0,0.060,0.004,-0.020,-0.040,-0.040,0.014,0.994,0.011,0.002,0.004,-0.004,0.000,0.000,0.000,0.000,0,2,0,3,7,255,1440,200,0,0,-89.416,0.710,-31.224
EX0521-092111,15,C24,prep,1046,1046,0,800889.092,0.686,-0.676,0.194,0.187,0,0,0,0,0,0,0,0,0,0.000,0,0,0.060,0.002,0.040,-0.040,0.020,0.014,0.993,0.012,0.000,0.002,-0.004,0.000,0.000,0.000,0.000,0,2,0,3,7,255,1440,200,0,0,-89.416,0.710,-31.224
EX0521-092111,15,C24,prep,1046,1046,0,800894.092,0.686,-0.676,0.194,0.187,0,0,0,0,0,0,0,0,0,0.000,0,0,0.060,0.002,0.040,-0.040,0.020,0.015,0.994,0.011,0.002,0.000,-0.004,0.000,0.000,0.000,0.000,0,2,0,3,7,255,1440,200,0,0,-89.416,0.710,-31.224
EX0521-092111,15,C24,prep,1080,1080,0,800899.091,0.686,-0.676,0.194,0.187,0,0,0,0,0,0,0,0,0,0.000,0,0,0.049,0.004,-0.020,-0.040,0.020,0.015,0.994,0.011,0.004,-0.002,0.002,0.000,0.000,0.000,0.000,0,2,0,3,7,255,1440,200,0,0,-89.416,0.710,-31.224
EX0521-092111,15,C24,prep,1080,1080,0,800904.092,0.686,-0.676,0.194,0.187,0,0,0,0,0,0,0,0,0,0.000,0,0,0.049,0.004,-0.020,-0.040,0.020,0.014,0.993,0.012,0.004,-0.002,0.002,0.000,0.000,0.000,0.000,0,2,0,3,7,255,1440,200,0,0,-89.417,0.710,-31.224
EX0521-092111,15,C24,prep,1081,1081,0,800909.091,0.686,-0.676,0.194,0.187,0,0,0,0,0,0,0,0,0,0.000,0,0,0.060,0.004,-0.020,-0.040,-0.040,0.015,0.993,0.011,0.004,-0.002,-0.008,0.000,0.000,0.000,0.000,0,2,0,3,7,255,1440,200,0,0,-89.417,0.710,-31.224
EX0521-092111,15,C24,prep,1081,1081,0,800914.092,0.686,-0.676,0.194,0.187,0,0,0,0,0,0,0,0,0,0.000,0,0,0.069,0.004,0.040,-0.040,-0.040,0.015,0.994,0.011,0.004,0.000,-0.008,0.000,0.000,0.000,0.000,0,2,0,3,7,255,1440,200,0,0,-89.417,0.710,-31.224
EX0521-092111,15,C24,prep,1082,1082,0,800919.092,0.686,-0.676,0.194,0.187,0,0,0,0,0,0,0,0,0,0.000,0,0,0.115,0.006,0.040,-0.100,-0.040,0.013,0.994,0.012,0.004,0.004,-0.002,0.000,0.000,0.000,0.000,0,2,0,3,7,255,1440,200,0,0,-89.417,0.710,-31.224
EX0521-092111,15,C24,prep,1082,1082,0,800924.093,0.686,-0.676,0.194,0.187,0,0,0,0,0,0,0,0,0,0.000,0,0,0.060,0.004,-0.020,-0.040,-0.040,0.014,0.995,0.011,0.000,0.004,-0.002,0.000,0.000,0.000,0.000,0,2,0,3,7,255,1440,200,0,0,-89.417,0.710,-31.224
EX0521-092111,15,C24,prep,1116,1116,0,800929.092,0.686,-0.676,0.194,0.187,0,0,0,0,0,0,0,0,0,0.000,0,0,0.060,0.002,-0.020,-0.040,-0.040,0.016,0.995,0.011,0.000,0.002,0.006,0.000,0.000,0.000,0.000,0,2,0,3,7,255,1440,200,0,0,-89.417,0.710,-31.224
EX0521-092111,15,C24,prep,1116,1116,0,800934.091,0.686,-0.676,0.194,0.187,0,0,0,0,0,0,0,0,0,0.000,0,0,0.104,0.000,-0.020,-0.100,0.020,0.014,0.993,0.012,0.000,0.000,0.006,0.000,0.000,0.000,0.000,0,2,0,3,7,255,1440,200,0,0,-89.417,0.710,-31.224
EX0521-092111,15,C24,prep,1116,1116,0,800939.092,0.686,-0.676,0.194,0.187,0,0,0,0,0,0,0,0,0,0.000,0,0,0.060,0.004,-0.020,-0.040,-0.040,0.013,0.994,0.011,-0.004,0.000,-0.002,0.000,0.000,0.000,0.000,0,2,0,3,7,255,1440,200,0,0,-89.417,0.710,-31.224
EX0521-092111,15,C24,prep,1116,1116,0,800944.092,0.686,-0.676,0.194,0.187,0,0,0,0,0,0,0,0,0,0.000,0,0,0.060,0.004,-0.020,-0.040,-0.040,0.015,0.994,0.011,-0.004,-0.002,-0.002,0.000,0.000,0.000,0.000,0,2,0,3,7,255,1440,200,0,0,-89.417,0.710,-31.224
EX0521-092111,15,C24,prep,1116,1116,0,800949.091,0.686,-0.676,0.194,0.187,0,0,0,0,0,0,0,0,0,0.000,0,0,0.049,0.006,-0.020,0.020,-0.040,0.014,0.994,0.012,-0.006,-0.002,-0.002,0.000,0.000,0.000,0.000,0,2,0,3,7,255,1440,200,0,0,-89.417,0.710,-31.224
EX0521-092111,15,C24,prep,1116,1116,0,800954.092,0.686,-0.676,0.194,0.187,0,0,0,0,0,0,0,0,0,0.000,0,0,0.060,0.008,0.040,-0.040,0.020,0.014,0.994,0.012,-0.008,-0.002,-0.002,0.000,0.000,0.000,0.000,0,2,0,3,7,255,1440,200,0,0,-89.417,0.710,-31.224
EX0521-092111,15,C24,prep,1116,1116,0,800959.092,0.686,-0.676,0.194,0.187,0,0,0,0,0,0,0,0,0,0.000,0,0,0.069,0.008,0.040,-0.040,-0.040,0.015,0.994,0.011,-0.008,0.000,0.002,0.000,0.000,0.000,0.000,0,2,0,3,7,255,1440,200,0,0,-89.417,0.710,-31.224
EX0521-092111,15,C24,prep,1116,1116,0,800964.093,0.686,-0.676,0.194,0.187,0,0,0,0,0,0,0,0,0,0.000,0,0,0.060,0.007,-0.020,-0.040,-0.040,0.015,0.993,0.010,0.006,0.004,0.002,0.000,0.000,0.000,0.000,0,2,0,3,7,255,1440,200,0,0,-89.417,0.710,-31.224
EX0521-092111,15,C24,prep,1119,1119,0,800969.092,0.686,-0.676,0.194,0.187,0,0,0,0,0,0,0,0,0,0.000,0,0,0.060,0.007,-0.020,-0.040,-0.040,0.015,0.994,0.011,0.006,0.004,-0.002,0.000,0.000,0.000,0.000,0,2,0,3,7,255,1440,200,0,0,-89.417,0.710,-31.224
EX0521-092111,15,C24,prep,1119,1119,0,800974.091,0.686,-0.676,0.194,0.187,0,0,0,0,0,0,0,0,0,0.000,0,0,0.049,0.004,-0.020,0.020,-0.040,0.015,0.994,0.011,0.004,0.000,-0.002,0.000,0.000,0.000,0.000,0,2,0,3,7,255,1440,200,0,0,-89.417,0.710,-31.224
EX0521-092111,15,C24,prep,1143,1143,0,800979.092,0.686,-0.676,0.194,0.187,0,0,0,0,0,0,0,0,0,0.000,0,0,0.060,0.004,0.040,-0.040,0.020,0.015,0.994,0.011,0.004,0.000,-0.002,0.000,0.000,0.000,0.000,0,2,0,3,7,255,1440,200,0,0,-89.417,0.710,-31.224
EX0521-092111,15,C24,prep,1143,1143,0,800984.092,0.686,-0.676,0.194,0.187,0,0,0,0,0,0,0,0,0,0.000,0,0,0.060,0.004,-0.020,-0.040,-0.040,0.014,0.994,0.011,0.004,0.000,0.002,0.000,0.000,0.000,0.000,0,2,0,3,7,255,1440,200,0,0,-89.417,0.710,-31.224
EX0521-092111,15,C24,prep,1143,1143,0,800989.091,0.686,-0.676,0.194,0.187,0,0,0,0,0,0,0,0,0,0.000,0,0,0.060,0.004,-0.020,-0.040,-0.040,0.015,0.994,0.012,0.004,-0.002,-0.002,0.000,0.000,0.000,0.000,0,2,0,3,7,255,1440,200,0,0,-89.417,0.710,-31.224
EX0521-092111,15,C24,prep,1143,1143,0,800994.092,0.686,-0.676,0.194,0.187,0,0,0,0,0,0,0,0,0,0.000,0,0,0.110,0.003,0.040,-0.100,0.020,0.014,0.994,0.011,-0.002,0.002,0.002,0.000,0.000,0.000,0.000,0,2,0,3,7,255,1440,200,0,0,-89.417,0.710,-31.224
EX0521-092111,15,C24,prep,1151,1151,0,800999.091,0.686,-0.676,0.194,0.187,0,0,0,0,0,0,0,0,0,0.000,0,0,0.060,0.003,0.040,-0.040,0.020,0.014,0.995,0.011,-0.002,0.002,0.002,0.000,0.000,0.000,0.000,0,2,0,3,7,255,1440,200,0,0,-89.417,0.710,-31.224
EX0521-092111,15,C24,prep,1151,1151,0,801004.092,0.686,-0.676,0.194,0.187,0,0,0,0,0,0,0,0,0,0.000,0,0,0.069,0.003,0.040,-0.040,-0.040,0.014,0.994,0.011,-0.002,0.002,0.002,0.000,0.000,0.000,0.000,0,2,0,3,7,255,1440,200,0,0,-89.417,0.710,-31.224
EX0521-092111,15,C24,prep,1183,1183,0,801009.092,0.686,-0.676,0.194,0.187,0,0,0,0,0,0,0,0,0,0.000,0,0,0.069,0.004,0.040,-0.040,-0.040,0.014,0.994,0.012,-0.004,0.002,0.002,0.000,0.000,0.000,0.000,0,2,0,3,7,255,1440,200,0,0,-89.417,0.710,-31.224
EX0521-092111,15,C24,prep,1183,1183,0,801014.091,0.686,-0.676,0.194,0.187,0,0,0,0,0,0,0,0,0,0.000,0,0,0.069,0.004,0.040,-0.040,-0.040,0.015,0.993,0.013,-0.004,-0.002,-0.002,0.000,0.000,0.000,0.000,0,2,0,3,7,255,1440,200,0,0,-89.417,0.710,-31.224
EX0521-092111,15,C24,prep,1183,1183,0,801019.092,0.686,-0.676,0.194,0.187,0,0,0,0,0,0,0,0,0,0.000,0,0,0.060,0.006,-0.020,-0.040,-0.040,0.015,0.994,0.012,-0.004,-0.004,-0.002,0.000,0.000,0.000,0.000,0,2,0,3,7,255,1440,200,0,0,-89.417,0.710,-31.224
EX0521-092111,15,C24,prep,1183,1183,0,801024.093,0.686,-0.676,0.194,0.187,0,0,0,0,0,0,0,0,0,0.000,0,0,0.049,0.004,-0.020,0.020,-0.040,0.015,0.994,0.010,0.000,-0.004,-0.002,0.000,0.000,0.000,0.000,0,2,0,3,7,255,1440,200,0,0,-89.418,0.710,-31.224
EX0521-092111,15,C24,prep,1183,1183,0,801029.092,0.686,-0.676,0.194,0.187,0,0,0,0,0,0,0,0,0,0.000,0,0,0.069,0.007,0.040,-0.040,-0.040,0.015,0.995,0.011,0.006,0.004,-0.002,0.000,0.000,0.000,0.000,0,2,0,3,7,255,1440,200,0,0,-89.418,0.710,-31.224
EX0521-092111,15,C24,prep,1183,1183,0,801034.092,0.686,-0.676,0.194,0.187,0,0,0,0,0,0,0,0,0,0.000,0,0,0.110,0.010,-0.020,-0.040,-0.100,0.014,0.995,0.011,0.006,0.008,0.006,0.000,0.000,0.000,0.000,0,2,0,3,7,255,1440,200,0,0,-89.418,0.710,-31.224
EX0521-092111,15,C24,prep,1199,1199,0,801039.091,0.686,-0.676,0.194,0.187,0,0,0,0,0,0,0,0,0,0.000,0,0,0.069,0.006,0.040,-0.040,-0.040,0.015,0.995,0.012,0.004,0.004,0.006,0.000,0.000,0.000,0.000,0,2,0,3,7,255,1440,200,0,0,-89.418,0.710,-31.224
EX0521-092111,15,C24,prep,1199,1199,0,801044.092,0.686,-0.676,0.194,0.187,0,0,0,0,0,0,0,0,0,0.000,0,0,0.049,0.008,-0.020,-0.040,0.020,0.013,0.994,0.011,-0.002,0.008,0.006,0.000,0.000,0.000,0.000,0,2,0,3,7,255,1440,200,0,0,-89.418,0.710,-31.224
EX0521-092111,15,C24,prep,1199,1199,0,801049.092,0.686,-0.676,0.194,0.187,0,0,0,0,0,0,0,0,0,0.000,0,0,0.115,0.008,0.040,-0.040,-0.100,0.014,0.993,0.012,-0.008,0.000,-0.004,0.000,0.000,0.000,0.000,0,2,0,3,7,255,1440,200,0,0,-89.418,0.710,-31.224
EX0521-092111,15,C24,prep,1199,1199,0,801054.091,0.686,-0.676,0.194,0.187,0,0,0,0,0,0,0,0,0,0.000,0,0,0.110,0.010,-0.020,-0.040,-0.100,0.013,0.995,0.012,-0.010,0.002,-0.004,0.000,0.000,0.000,0.000,0,2,0,3,7,255,1440,200,0,0,-89.418,0.710,-31.224
EX0521-092111,15,C24,prep,1224,1224,0,801059.092,0.686,-0.676,0.194,0.187,0,0,0,0,0,0,0,0,0,0.000,0,0,0.060,0.008,-0.020,-0.040,-0.040,0.014,0.993,0.011,-0.008,0.002,-0.008,0.000,0.000,0.000,0.000,0,2,0,3,7,255,1440,200,0,0,-89.418,0.710,-31.224
EX0521-092111,15,C24,prep,1224,1224,0,801064.091,0.686,-0.676,0.194,0.187,0,0,0,0,0,0,0,0,0,0.000,0,0,0.049,0.008,-0.020,0.020,-0.040,0.014,0.993,0.012,-0.008,0.002,-0.012,0.000,0.000,0.000,0.000,0,2,0,3,7,255,1440,200,0,0,-89.418,0.710,-31.224
EX0521-092111,15,C24,prep,1225,1225,0,801069.093,0.686,-0.676,0.194,0.187,0,0,0,0,0,0,0,0,0,0.000,0,0,0.115,0.002,0.100,-0.040,-0.040,0.014,0.993,0.011,0.000,0.002,-0.012,0.000,0.000,0.000,0.000,0,2,0,3,7,255,1440,200,0,0,-89.418,0.710,-31.224
EX0521-092111,15,C24,prep,1225,1225,0,801074.093,0.686,-0.676,0.194,0.187,0,0,0,0,0,0,0,0,0,0.000,0,0,0.110,0.008,-0.020,-0.100,-0.040,0.013,0.994,0.012,-0.008,0.002,-0.012,0.000,0.000,0.000,0.000,0,2,0,3,7,255,1440,200,0,0,-89.418,0.710,-31.224
EX0521-092111,15,C24,prep,1231,1231,0,801079.091,0.686,-0.676,0.194,0.187,0,0,0,0,0,0,0,0,0,0.000,0,0,0.060,0.002,-0.020,-0.040,-0.040,0.014,0.993,0.011,0.000,0.002,-0.008,0.000,0.000,0.000,0.000,0,2,0,3,7,255,1440,200,0,0,-89.418,0.710,-31.224
EX0521-092111,15,C24,prep,1231,1231,0,801084.092,0.686,-0.676,0.194,0.187,0,0,0,0,0,0,0,0,0,0.000,0,0,0.069,0.003,0.040,-0.040,-0.040,0.015,0.994,0.011,0.002,0.002,-0.002,0.000,0.000,0.000,0.000,0,2,0,3,7,255,1440,200,0,0,-89.418,0.710,-31.224
EX0521-092111,15,C24,prep,1247,1247,0,801089.091,0.686,-0.676,0.194,0.187,0,0,0,0,0,0,0,0,0,0.000,0,0,0.069,0.002,0.040,-0.040,-0.040,0.015,0.993,0.012,0.002,0.000,-0.008,0.000,0.000,0.000,0.000,0,2,0,3,7,255,1440,200,0,0,-89.418,0.710,-31.224
EX0521-092111,15,C24,prep,1247,1247,0,801094.092,0.686,-0.676,0.194,0.187,0,0,0,0,0,0,0,0,0,0.000,0,0,0.049,0.000,0.040,0.020,0.020,0.013,0.993,0.011,0.000,0.000,-0.008,0.000,0.000,0.000,0.000,0,2,0,3,7,255,1440,200,0,0,-89.418,0.710,-31.224
EX0521-092111,15,C24,prep,1247,1247,0,801099.092,0.686,-0.676,0.194,0.187,0,0,0,0,0,0,0,0,0,0.000,0,0,0.060,0.004,-0.020,-0.040,-0.040,0.015,0.993,0.012,-0.002,-0.004,-0.008,0.000,0.000,0.000,0.000,0,2,0,3,7,255,1440,200,0,0,-89.418,0.710,-31.224
EX0521-092111,15,C24,prep,1247,1247,0,801104.091,0.686,-0.676,0.194,0.187,0,0,0,0,0,0,0,0,0,0.000,0,0,0.104,0.006,-0.020,-0.100,0.020,0.014,0.993,0.011,-0.002,0.006,-0.008,0.000,0.000,0.000,0.000,0,2,0,3,7,255,1440,200,0,0,-89.418,0.710,-31.224
EX0521-092111,15,C24,prep,1279,1279,0,801109.092,0.686,-0.676,0.194,0.187,0,0,0,0,0,0,0,0,0,0.000,0,0,0.060,0.006,0.040,-0.040,0.020,0.014,0.993,0.011,0.002,0.006,-0.006,0.000,0.000,0.000,0.000,0,2,0,3,7,255,1440,200,0,0,-89.418,0.710,-31.224
EX0521-092111,15,C24,prep,1279,1279,0,801114.091,0.686,-0.676,0.194,0.187,0,0,0,0,0,0,0,0,0,0.000,0,0,0.060,0.006,0.040,-0.040,0.020,0.015,0.993,0.012,0.002,0.006,-0.006,0.000,0.000,0.000,0.000,0,2,0,3,7,255,1440,200,0,0,-89.418,0.710,-31.224
EX0521-092111,15,C24,prep,1279,1279,0,801119.092,0.686,-0.676,0.194,0.187,0,0,0,0,0,0,0,0,0,0.000,0,0,0.049,0.004,-0.020,-0.040,0.020,0.015,0.994,0.012,0.000,-0.004,-0.006,0.000,0.000,0.000,0.000,0,2,0,3,7,255,1440,200,0,0,-89.418,0.710,-31.224
EX0521-092111,15,C24,prep,1279,1279,0,801124.093,0.686,-0.676,0.194,0.187,0,0,0,0,0,0,0,0,0,0.000,0,0,0.060,0.004,0.040,0.020,-0.040,0.014,0.993,0.012,0.000,-0.004,-0.006,0.000,0.000,0.000,0.000,0,2,0,3,7,255,1440,200,0,0,-89.418,0.710,-31.224
EX0521-092111,15,C24,prep,1279,1279,0,801129.091,0.686,-0.676,0.194,0.187,0,0,0,0,0,0,0,0,0,0.000,0,0,0.069,0.004,0.040,-0.040,-0.040,0.015,0.993,0.012,0.000,-0.004,-0.006,0.000,0.000,0.000,0.000,0,2,0,3,7,255,1440,200,0,0,-89.418,0.710,-31.224
EX0521-092111,15,C24,prep,1279,1279,0,801134.092,0.686,-0.676,0.194,0.187,0,0,0,0,0,0,0,0,0,0.000,0,0,0.098,0.006,-0.080,-0.040,-0.040,0.014,0.994,0.012,-0.004,-0.004,-0.006,0.000,0.000,0.000,0.000,0,2,0,3,7,255,1440,200,0,0,-89.418,0.710,-31.224
EX0521-092111,15,C24,prep,1315,1315,0,801139.092,0.686,-0.676,0.194,0.187,0,0,0,0,0,0,0,0,0,0.000,0,0,0.049,0.004,-0.020,0.020,-0.040,0.015,0.994,0.012,0.000,-0.004,-0.002,0.000,0.000,0.000,0.000,0,2,0,3,7,255,1440,200,0,0,-89.418,0.710,-31.224
EX0521-092111,15,C24,prep,1315,1315,0,801144.091,0.686,-0.676,0.194,0.187,0,0,0,0,0,0,0,0,0,0.000,0,0,0.049,0.004,-0.020,0.020,-0.040,0.015,0.993,0.011,0.002,-0.004,-0.002,0.000,0.000,0.000,0.000,0,2,0,3,7,255,1440,200,0,0,-89.418,0.710,-31.224
EX0521-092111,15,C24,prep,1315,1315,0,801149.092,0.686,-0.676,0.194,0.187,0,0,0,0,0,0,0,0,0,0.000,0,0,0.060,0.004,-0.020,-0.040,-0.040,0.014,0.993,0.012,0.002,-0.004,-0.006,0.000,0.000,0.000,0.000,0,2,0,3,7,255,1440,200,0,0,-89.419,0.710,-31.224
EX0521-092111,15,C24,prep,1315,1315,0,801154.091,0.686,-0.676,0.194,0.187,0,0,0,0,0,0,0,0,0,0.000,0,0,0.060,0.004,-0.020,-0.040,-0.040,0.015,0.994,0.011,0.004,-0.002,-0.006,0.000,0.000,0.000,0.000,0,2,0,3,7,255,1440,200,0,0,-89.419,0.710,-31.224
EX0521-092111,15,C24,prep,1315,1315,0,801159.092,0.686,-0.676,0.194,0.187,0,0,0,0,0,0,0,0,0,0.000,0,0,0.060,0.004,-0.020,-0.040,-0.040,0.013,0.995,0.011,-0.004,0.000,0.004,0.000,0.000,0.000,0.000,0,2,0,3,7,255,1440,200,0,0,-89.419,0.710,-31.224
EX0521-092111,15,C24,prep,1315,1315,0,801164.093,0.686,-0.676,0.194,0.187,0,0,0,0,0,0,0,0,0,0.000,0,0,0.069,0.004,0.040,-0.040,-0.040,0.016,0.994,0.012,0.004,0.000,0.004,0.000,0.000,0.000,0.000,0,2,0,3,7,255,1440,200,0,0,-89.419,0.710,-31.224
EX0521-092111,15,C24,prep,1327,1327,0,801169.091,0.686,-0.676,0.194,0.187,0,0,0,0,0,0,0,0,0,0.000,0,0,0.060,0.006,0.040,0.020,-0.040,0.014,0.994,0.011,-0.004,0.004,0.004,0.000,0.000,0.000,0.000,0,2,0,3,7,255,1440,200,0,0,-89.419,0.710,-31.224
EX0521-092111,15,C24,prep,1327,1327,0,801174.092,0.686,-0.676,0.194,0.187,0,0,0,0,0,0,0,0,0,0.000,0,0,0.134,0.004,-0.080,-0.100,-0.040,0.014,0.994,0.010,0.000,0.004,0.004,0.000,0.000,0.000,0.000,0,2,0,3,7,255,1440,200,0,0,-89.419,0.710,-31.224
EX0521-092111,15,C24,prep,1327,1327,0,801179.091,0.686,-0.676,0.194,0.187,0,0,0,0,0,0,0,0,0,0.000,0,0,0.049,0.008,-0.020,-0.040,0.020,0.014,0.994,0.011,-0.002,0.008,0.002,0.000,0.000,0.000,0.000,0,2,0,3,7,255,1440,200,0,0,-89.419,0.710,-31.224
EX0521-092111,15,C24,prep,1327,1327,0,801184.092,0.686,-0.676,0.194,0.187,0,0,0,0,0,0,0,0,0,0.000,0,0,0.049,0.008,-0.020,0.020,-0.040,0.013,0.995,0.011,-0.002,0.008,0.002,0.000,0.000,0.000,0.000,0,2,0,3,7,255,1440,200,0,0,-89.419,0.710,-31.224
EX0521-092111,15,C24,prep,1348,1348,0,801189.092,0.686,-0.676,0.194,0.187,0,0,0,0,0,0,0,0,0,0.000,0,0,0.035,0.007,-0.020,0.020,0.020,0.014,0.994,0.012,-0.004,0.006,0.002,0.000,0.000,0.000,0.000,0,2,0,3,7,255,1440,200,0,0,-89.419,0.710,-31.224
EX0521-092111,15,C24,prep,1348,1348,0,801194.091,0.686,-0.676,0.194,0.187,0,0,0,0,0,0,0,0,0,0.000,0,0,0.049,0.004,-0.020,0.020,-0.040,0.015,0.993,0.011,-0.004,-0.002,0.002,0.000,0.000,0.000,0.000,0,2,0,3,7,255,1440,200,0,0,-89.419,0.710,-31.224
EX0521-092111,15,C24,prep,1383,1383,0,801199.092,0.686,-0.676,0.194,0.187,0,0,0,0,0,0,0,0,0,0.000,0,0,0.060,0.004,-0.020,-0.040,-0.040,0.013,0.994,0.011,-0.004,-0.002,-0.002,0.000,0.000,0.000,0.000,0,2,0,3,7,255,1440,200,0,0,-89.419,0.710,-31.224
EX0521-092111,15,C24,prep,1383,1383,0,801204.091,0.686,-0.676,0.194,0.187,0,0,0,0,0,0,0,0,0,0.000,0,0,0.049,0.004,-0.020,0.020,-0.040,0.015,0.994,0.012,0.002,-0.004,-0.002,0.000,0.000,0.000,0.000,0,2,0,3,7,255,1440,200,0,0,-89.419,0.710,-31.224
EX0521-092111,15,C24,prep,1384,1384,0,801209.092,0.686,-0.676,0.194,0.187,0,0,0,0,0,0,0,0,0,0.000,0,0,0.060,0.004,-0.020,-0.040,-0.040,0.015,0.992,0.012,0.002,-0.004,-0.002,0.000,0.000,0.000,0.000,0,2,0,3,7,255,1440,200,0,0,-89.419,0.710,-31.224
EX0521-092111,15,C24,prep,1384,1384,0,801214.092,0.686,-0.676,0.194,0.187,0,0,0,0,0,0,0,0,0,0.000,0,0,0.049,0.004,-0.020,0.020,-0.040,0.015,0.993,0.012,0.002,-0.004,-0.006,0.000,0.000,0.000,0.000,0,2,0,3,7,255,1440,200,0,0,-89.419,0.710,-31.224
EX0521-092111,15,C24,prep,1384,1384,0,801219.093,0.686,-0.676,0.194,0.187,0,0,0,0,0,0,0,0,0,0.000,0,0,0.060,0.004,-0.020,-0.040,-0.040,0.014,0.994,0.011,0.002,-0.004,-0.006,0.000,0.000,0.000,0.000,0,2,0,3,7,255,1440,200,0,0,-89.419,0.710,-31.224
EX0521-092111,15,C24,prep,1384,1384,0,801224.093,0.686,-0.676,0.194,0.187,0,0,0,0,0,0,0,0,0,0.000,0,0,0.060,0.002,-0.020,-0.040,-0.040,0.014,0.994,0.011,0.000,0.002,0.004,0.000,0.000,0.000,0.000,0,2,0,3,7,255,1440,200,0,0,-89.419,0.710,-31.224
EX0521-092111,15,C24,prep,1411,1411,0,801229.092,0.686,-0.676,0.194,0.187,0,0,0,0,0,0,0,0,0,0.000,0,0,0.060,0.003,-0.020,-0.040,-0.040,0.014,0.994,0.013,-0.002,0.002,0.004,0.000,0.000,0.000,0.000,0,2,0,3,7,255,1440,200,0,0,-89.419,0.710,-31.224
EX0521-092111,15,C24,prep,1411,1411,0,801234.091,0.686,-0.676,0.194,0.187,0,0,0,0,0,0,0,0,0,0.000,0,0,0.092,0.004,-0.080,-0.040,0.020,0.014,0.994,0.011,-0.004,0.002,0.004,0.000,0.000,0.000,0.000,0,2,0,3,7,255,1440,200,0,0,-89.419,0.710,-31.224
EX0521-092111,15,C24,prep,1411,1411,0,801239.092,0.686,-0.676,0.194,0.187,0,0,0,0,0,0,0,0,0,0.000,0,0,0.060,0.009,-0.020,-0.040,-0.040,0.015,0.995,0.012,-0.004,-0.008,0.004,0.000,0.000,0.000,0.000,0,2,0,3,7,255,1440,200,0,0,-89.419,0.710,-31.224
EX0521-092111,15,C24,prep,1411,1411,0,801244.091,0.686,-0.676,0.194,0.187,0,0,0,0,0,0,0,0,0,0.000,0,0,0.060,0.013,0.040,-0.040,0.020,0.015,0.994,0.013,-0.004,-0.012,0.004,0.000,0.000,0.000,0.000,0,2,0,3,7,255,1440,200,0,0,-89.419,0.710,-31.224
EX0521-092111,15,C24,prep,1411,1411,0,801249.092,0.686,-0.676,0.194,0.187,0,0,0,0,0,0,0,0,0,0.000,0,0,0.092,0.013,-0.080,0.020,-0.040,0.014,0.993,0.012,-0.004,-0.012,-0.002,0.000,0.000,0.000,0.000,0,2,0,3,7,255,1440,200,0,0,-89.419,0.710,-31.224
EX0521-092111,15,C24,prep,1411,1411,0,801254.092,0.686,-0.676,0.194,0.187,0,0,0,0,0,0,0,0,0,0.000,0,0,0.060,0.004,-0.020,-0.040,-0.040,0.015,0.994,0.010,-0.004,0.000,-0.002,0.000,0.000,0.000,0.000,0,2,0,3,7,255,1440,200,0,0,-89.419,0.710,-31.224
EX0521-092111,15,C24,prep,1412,1412,0,801259.092,0.686,-0.676,0.194,0.187,0,0,0,0,0,0,0,0,0,0.000,0,0,0.085,0.002,-0.080,0.020,0.020,0.015,0.993,0.012,0.002,0.000,-0.006,0.000,0.000,0.000,0.000,0,2,0,3,7,255,1440,200,0,0,-89.419,0.710,-31.224
EX0521-092111,15,C24,prep,1412,1412,0,801264.092,0.686,-0.676,0.194,0.187,0,0,0,0,0,0,0,0,0,0.000,0,0,0.069,0.012,0.040,-0.040,-0.040,0.015,0.993,0.012,0.002,-0.012,-0.006,0.000,0.000,0.000,0.000,0,2,0,3,7,255,1440,200,0,0,-89.419,0.710,-31.224
EX0521-092111,15,C24,prep,1423,1423,0,801269.091,0.686,-0.676,0.194,0.187,0,0,0,0,0,0,0,0,0,0.000,0,0,0.110,0.012,-0.020,-0.040,-0.100,0.013,0.995,0.011,0.002,-0.012,-0.006,0.000,0.000,0.000,0.000,0,2,0,3,7,255,1440,200,0,0,-89.420,0.710,-31.224
EX0521-092111,15,C24,prep,1423,1423,0,801274.092,0.686,-0.676,0.194,0.187,0,0,0,0,0,0,0,0,0,0.000,0,0,0.069,0.004,0.040,-0.040,-0.040,0.015,0.994,0.011,0.002,0.004,-0.002,0.000,0.000,0.000,0.000,0,2,0,3,7,255,1440,200,0,0,-89.420,0.710,-31.224
EX0521-092111,15,C24,prep,1423,1423,0,801279.092,0.686,-0.676,0.194,0.187,0,0,0,0,0,0,0,0,0,0.000,0,0,0.060,0.007,-0.020,-0.040,-0.040,0.015,0.994,0.011,0.006,0.004,0.004,0.000,0.000,0.000,0.000,0,2,0,3,7,255,1440,200,0,0,-89.420,0.710,-31.224
EX0521-092111,15,C24,prep,1424,1424,0,801284.091,0.686,-0.676,0.194,0.187,0,0,0,0,0,0,0,0,0,0.000,0,0,0.060,0.007,-0.020,-0.040,-0.040,0.014,0.994,0.011,0.006,0.004,0.004,0.000,0.000,0.000,0.000,0,2,0,3,7,255,1440,200,0,0,-89.420,0.710,-31.224
EX0521-092111,15,C24,prep,1445,1445,0,801289.092,0.686,-0.676,0.194,0.187,0,0,0,0,0,0,0,0,0,0.000,0,0,0.060,0.004,-0.020,-0.040,-0.040,0.014,0.995,0.012,-0.002,0.004,0.004,0.000,0.000,0.000,0.000,0,2,0,3,7,255,1440,200,0,0,-89.420,0.710,-31.224
EX0521-092111,15,C24,prep,1445,1445,0,801294.091,0.686,-0.676,0.194,0.187,0,0,0,0,0,0,0,0,0,0.000,0,0,0.069,0.002,0.040,-0.040,-0.040,0.015,0.994,0.011,-0.002,0.000,0.004,0.000,0.000,0.000,0.000,0,2,0,3,7,255,1440,200,0,0,-89.420,0.710,-31.224
EX0521-092111,15,C24,prep,1455,1455,0,801299.092,0.686,-0.676,0.194,0.187,0,0,0,0,0,0,0,0,0,0.000,0,0,0.060,0.004,-0.020,-0.040,-0.040,0.014,0.994,0.012,-0.004,0.000,0.004,0.000,0.000,0.000,0.000,0,2,0,3,7,255,1440,200,0,0,-89.420,0.710,-31.224
EX0521-092111,15,C24,prep,1455,1455,0,801304.092,0.686,-0.676,0.194,0.187,0,0,0,0,0,0,0,0,0,0.000,0,0,0.060,0.000,-0.020,-0.040,-0.040,0.014,0.994,0.011,0.000,0.000,0.004,0.000,0.000,0.000,0.000,0,2,0,3,7,255,1440,200,0,0,-89.420,0.710,-31.224
EX0521-092111,15,C24,prep,1482,1482,0,801309.091,0.686,-0.676,0.194,0.187,0,0,0,0,0,0,0,0,0,0.000,0,0,0.060,0.002,-0.020,-0.040,-0.040,0.014,0.994,0.010,0.000,0.002,0.002,0.000,0.000,0.000,0.000,0,2,0,3,7,255,1440,200,0,0,-89.420,0.710,-31.224
EX0521-092111,15,C24,prep,1482,1482,0,801314.092,0.686,-0.676,0.194,0.187,0,0,0,0,0,0,0,0,0,0.000,0,0,0.060,0.002,-0.020,-0.040,-0.040,0.014,0.994,0.012,0.000,0.002,0.002,0.000,0.000,0.000,0.000,0,2,0,3,7,255,1440,200,0,0,-89.420,0.710,-31.224
EX0521-092111,15,C24,prep,1483,1483,0,801319.092,0.686,-0.676,0.194,0.187,0,0,0,0,0,0,0,0,0,0.000,0,0,0.049,0.004,-0.020,-0.040,0.020,0.015,0.995,0.011,0.004,0.000,0.002,0.000,0.000,0.000,0.000,0,2,0,3,7,255,1440,200,0,0,-89.420,0.710,-31.224
EX0521-092111,15,C24,prep,1483,1483,0,801324.093,0.686,-0.676,0.194,0.187,0,0,0,0,0,0,0,0,0,0.000,0,0,0.049,0.008,-0.020,-0.040,0.020,0.013,0.993,0.012,-0.008,0.000,0.002,0.000,0.000,0.000,0.000,0,2,0,3,7,255,1440,200,0,0,-89.420,0.710,-31.224
EX0521-092111,15,C24,prep,1484,1484,0,801329.092,0.686,-0.676,0.194,0.187,0,0,0,0,0,0,0,0,0,0.000,0,0,0.098,0.004,-0.080,-0.040,-0.040,0.016,0.995,0.012,0.004,0.000,0.008,0.000,0.000,0.000,0.000,0,2,0,3,7,255,1440,200,0,0,-89.420,0.710,-31.224
EX0521-092111,15,C24,prep,1484,1484,0,801334.091,0.686,-0.676,0.194,0.187,0,0,0,0,0,0,0,0,0,0.000,0,0,0.060,0.014,-0.020,-0.040,-0.040,0.013,0.995,0.012,-0.014,-0.002,0.008,0.000,0.000,0.000,0.000,0,2,0,3,7,255,1440,200,0,0,-89.420,0.710,-31.224
EX0521-092111,15,C24,prep,1518,1518,0,801339.092,0.686,-0.676,0.194,0.187,0,0,0,0,0,0,0,0,0,0.000,0,0,0.060,0.002,0.040,-0.040,0.020,0.014,0.994,0.011,0.000,-0.002,0.008,0.000,0.000,0.000,0.000,0,2,0,3,7,255,1440,200,0,0,-89.420,0.710,-31.224
EX0521-092111,15,C24,prep,1518,1518,0,801344.092,0.686,-0.676,0.194,0.187,0,0,0,0,0,0,0,0,0,0.000,0,0,0.060,0.003,0.040,-0.040,0.020,0.014,0.994,0.011,-0.002,0.002,0.002,0.000,0.000,0.000,0.000,0,2,0,3,7,255,1440,200,0,0,-89.420,0.710,-31.224
EX0521-092111,15,C24,prep,1518,1518,0,801349.091,0.686,-0.676,0.194,0.187,0,0,0,0,0,0,0,0,0,0.000,0,0,0.060,0.002,-0.020,-0.040,-0.040,0.014,0.994,0.011,0.000,0.002,-0.002,0.000,0.000,0.000,0.000,0,2,0,3,7,255,1440,200,0,0,-89.420,0.710,-31.224
EX0521-092111,15,C24,prep,1518,1518,0,801354.092,0.686,-0.676,0.194,0.187,0,0,0,0,0,0,0,0,0,0.000,0,0,0.049,0.003,-0.020,0.020,-0.040,0.014,0.994,0.012,-0.002,0.002,-0.002,0.000,0.000,0.000,0.000,0,2,0,3,7,255,1440,200,0,0,-89.420,0.710,-31.224
EX0521-092111,15,C24,prep,1518,1518,0,801359.092,0.686,-0.676,0.194,0.187,0,0,0,0,0,0,0,0,0,0.000,0,0,0.049,0.008,-0.020,-0.040,0.020,0.013,0.993,0.011,-0.008,0.002,-0.002,0.000,0.000,0.000,0.000,0,2,0,3,7,255,1440,200,0,0,-89.420,0.710,-31.224
EX0521-092111,15,C24,prep,1518,1518,0,801364.093,0.686,-0.676,0.194,0.187,0,0,0,0,0,0,0,0,0,0.000,0,0,0.060,0.008,-0.020,-0.040,-0.040,0.015,0.994,0.011,-0.008,0.000,-0.002,0.000,0.000,0.000,0.000,0,2,0,3,7,255,1440,200,0,0,-89.420,0.710,-31.224
EX0521-092111,15,C24,prep,1518,1518,0,801369.092,0.686,-0.676,0.194,0.187,0,0,0,0,0,0,0,0,0,0.000,0,0,0.069,0.008,0.040,-0.040,-0.040,0.014,0.993,0.012,-0.008,0.000,-0.006,0.000,0.000,0.000,0.000,0,2,0,3,7,255,1440,200,0,0,-89.420,0.710,-31.224
EX0521-092111,15,C24,prep,1518,1518,0,801374.091,0.686,-0.676,0.194,0.187,0,0,0,0,0,0,0,0,0,0.000,0,0,0.060,0.011,-0.020,-0.040,-0.040,0.014,0.994,0.012,-0.010,-0.004,-0.002,0.000,0.000,0.000,0.000,0,2,0,3,7,255,1440,200,0,0,-89.420,0.710,-31.224
EX0521-092111,15,C24,prep,1541,1541,0,801379.092,0.686,-0.676,0.194,0.187,0,0,0,0,0,0,0,0,0,0.000,0,0,0.110,0.011,-0.020,-0.100,-0.040,0.015,0.995,0.012,-0.010,-0.004,-0.002,0.000,0.000,0.000,0.000,0,2,0,3,7,255,1440,200,0,0,-89.420,0.710,-31.224
EX0521-092111,15,C24,prep,1541,1541,0,801384.091,0.686,-0.676,0.194,0.187,0,0,0,0,0,0,0,0,0,0.000,0,0,0.104,0.007,-0.020,-0.100,0.020,0.014,0.994,0.012,-0.006,-0.004,-0.002,0.000,0.000,0.000,0.000,0,2,0,3,7,255,1440,200,0,0,-89.420,0.710,-31.224
EX0521-092111,15,C24,prep,1541,1541,0,801389.092,0.686,-0.676,0.194,0.187,0,0,0,0,0,0,0,0,0,0.000,0,0,0.049,0.004,-0.020,0.020,-0.040,0.015,0.994,0.011,0.002,-0.004,-0.002,0.000,0.000,0.000,0.000,0,2,0,3,7,255,1440,200,0,0,-89.421,0.710,-31.224
EX0521-092111,15,C24,prep,1541,1541,0,801394.092,0.686,-0.676,0.194,0.187,0,0,0,0,0,0,0,0,0,0.000,0,0,0.060,0.004,-0.020,-0.040,-0.040,0.015,0.994,0.011,0.004,0.000,-0.002,0.000,0.000,0.000,0.000,0,2,0,3,7,255,1440,200,0,0,-89.421,0.710,-31.224
EX0521-092111,15,C24,prep,1551,1551,0,801399.091,0.686,-0.676,0.194,0.187,0,0,0,0,0,0,0,0,0,0.000,0,0,0.060,0.004,-0.020,-0.040,-0.040,0.014,0.993,0.010,0.004,0.000,-0.002,0.000,0.000,0.000,0.000,0,2,0,3,7,255,1440,200,0,0,-89.421,0.710,-31.224
EX0521-092111,15,C24,prep,1551,1551,0,801404.092,0.686,-0.676,0.194,0.187,0,0,0,0,0,0,0,0,0,0.000,0,0,0.060,0.011,-0.020,-0.040,-0.040,0.014,0.993,0.010,0.004,0.010,-0.006,0.000,0.000,0.000,0.000,0,2,0,3,7,255,1440,200,0,0,-89.421,0.710,-31.224
EX0521-092111,15,C24,prep,1583,1583,0,801409.092,0.686,-0.676,0.194,0.187,0,0,0,0,0,0,0,0,0,0.000,0,0,0.049,0.011,-0.020,-0.040,0.020,0.014,0.993,0.011,0.004,0.010,-0.006,0.000,0.000,0.000,0.000,0,2,0,3,7,255,1440,200,0,0,-89.421,0.710,-31.224
EX0521-092111,15,C24,prep,1583,1583,0,801414.091,0.686,-0.676,0.194,0.187,0,0,0,0,0,0,0,0,0,0.000,0,0,0.098,0.006,-0.080,-0.040,-0.040,0.014,0.995,0.011,-0.004,0.004,-0.006,0.000,0.000,0.000,0.000,0,2,0,3,7,255,1440,200,0,0,-89.421,0.710,-31.224
EX0521-092111,15,C24,prep,1583,1583,0,801419.092,0.686,-0.676,0.194,0.187,0,0,0,0,0,0,0,0,0,0.000,0,0,0.060,0.006,-0.020,-0.040,-0.040,0.014,0.993,0.011,-0.004,0.004,-0.006,0.000,0.000,0.000,0.000,0,2,0,3,7,255,1440,200,0,0,-89.421,0.710,-31.224
EX0521-092111,15,C24,prep,1583,1583,0,801424.093,0.686,-0.676,0.194,0.187,0,0,0,0,0,0,0,0,0,0.000,0,0,0.060,0.006,-0.020,-0.040,-0.040,0.014,0.994,0.012,-0.004,0.004,-0.002,0.000,0.000,0.000,0.000,0,2,0,3,7,255,1440,200,0,0,-89.421,0.710,-31.224
EX0521-092111,15,C24,prep,1583,1583,0,801429.092,0.686,-0.676,0.194,0.187,0,0,0,0,0,0,0,0,0,0.000,0,0,0.060,0.004,0.040,-0.040,0.020,0.016,0.993,0.012,-0.002,-0.004,-0.006,0.000,0.000,0.000,0.000,0,2,0,3,7,255,1440,200,0,0,-89.421,0.710,-31.224
EX0521-092111,15,C24,prep,1583,1583,0,801434.092,0.686,-0.676,0.194,0.187,0,0,0,0,0,0,0,0,0,0.000,0,0,0.060,0.013,0.040,0.020,-0.040,0.015,0.993,0.010,0.012,-0.004,-0.006,0.000,0.000,0.000,0.000,0,2,0,3,7,255,1440,200,0,0,-89.421,0.710,-31.224
EX0521-092111,15,C24,prep,1599,1599,0,801439.091,0.686,-0.676,0.194,0.187,0,0,0,0,0,0,0,0,0,0.000,0,0,0.110,0.012,-0.020,-0.100,-0.040,0.015,0.994,0.011,0.012,-0.002,-0.006,0.000,0.000,0.000,0.000,0,2,0,3,7,255,1440,200,0,0,-89.421,0.710,-31.224
EX0521-092111,15,C24,prep,1599,1599,0,801444.092,0.686,-0.676,0.194,0.187,0,0,0,0,0,0,0,0,0,0.000,0,0,0.098,0.004,-0.080,-0.040,-0.040,0.014,0.994,0.012,0.004,0.000,-0.002,0.000,0.000,0.000,0.000,0,2,0,3,7,255,1440,200,0,0,-89.421,0.710,-31.224
EX0521-092111,15,C24,prep,1599,1599,0,801449.091,0.686,-0.676,0.194,0.187,0,0,0,0,0,0,0,0,0,0.000,0,0,0.060,0.006,0.040,0.020,-0.040,0.014,0.995,0.012,-0.006,-0.002,0.004,0.000,0.000,0.000,0.000,0,2,0,3,7,255,1440,200,0,0,-89.421,0.710,-31.224
EX0521-092111,15,C24,prep,1599,1599,0,801454.092,0.686,-0.676,0.194,0.187,0,0,0,0,0,0,0,0,0,0.000,0,0,0.060,0.008,-0.020,-0.040,-0.040,0.015,0.993,0.012,-0.006,-0.006,0.004,0.000,0.000,0.000,0.000,0,2,0,3,7,255,1440,200,0,0,-89.421,0.710,-31.224
EX0521-092111,15,C24,prep,1615,1615,0,801459.092,0.686,-0.676,0.194,0.187,0,0,0,0,0,0,0,0,0,0.000,0,0,0.060,0.006,-0.020,-0.040,-0.040,0.015,0.994,0.012,0.002,-0.006,0.004,0.000,0.000,0.000,0.000,0,2,0,3,7,255,1440,200,0,0,-89.421,0.710,-31.224
EX0521-092111,15,C24,prep,1615,1615,0,801464.091,0.686,-0.676,0.194,0.187,0,0,0,0,0,0,0,0,0,0.000,0,0,0.049,0.004,-0.020,-0.040,0.020,0.014,0.993,0.012,0.002,-0.004,-0.006,0.000,0.000,0.000,0.000,0,2,0,3,7,255,1440,200,0,0,-89.421,0.710,-31.224
EX0521-092111,15,C24,prep,1631,1631,0,801469.092,0.686,-0.676,0.194,0.187,0,0,0,0,0,0,0,0,0,0.000,0,0,0.060,0.004,-0.020,-0.040,-0.040,0.015,0.993,0.012,0.002,-0.004,-0.006,0.000,0.000,0.000,0.000,0,2,0,3,7,255,1440,200,0,0,-89.421,0.710,-31.224
EX0521-092111,15,C24,prep,1631,1631,0,801474.091,0.686,-0.676,0.194,0.187,0,0,0,0,0,0,0,0,0,0.000,0,0,0.049,0.002,-0.020,0.020,-0.040,0.014,0.993,0.011,-0.002,0.000,-0.006,0.000,0.000,0.000,0.000,0,2,0,3,7,255,1440,200,0,0,-89.421,0.710,-31.224
EX0521-092111,15,C24,prep,1631,1631,0,801479.092,0.686,-0.676,0.194,0.187,0,0,0,0,0,0,0,0,0,0.000,0,0,0.060,0.004,-0.020,-0.040,-0.040,0.015,0.994,0.011,0.002,-0.004,-0.006,0.000,0.000,0.000,0.000,0,2,0,3,7,255,1440,200,0,0,-89.421,0.710,-31.224
EX0521-092111,15,C24,prep,1631,1631,0,801484.092,0.686,-0.676,0.194,0.187,0,0,0,0,0,0,0,0,0,0.000,0,0,0.110,0.004,-0.020,-0.040,-0.100,0.015,0.994,0.011,0.004,0.000,-0.002,0.000,0.000,0.000,0.000,0,2,0,3,7,255,1440,200,0,0,-89.421,0.710,-31.224
EX0521-092111,15,C24,prep,1647,1647,0,801489.091,0.686,-0.676,0.194,0.187,0,0,0,0,0,0,0,0,0,0.000,0,0,0.060,0.004,-0.020,-0.040,-0.040,0.015,0.993,0.011,0.004,0.000,-0.002,0.000,0.000,0.000,0.000,0,2,0,3,7,255,1440,200,0,0,-89.421,0.710,-31.224
EX0521-092111,15,C24,prep,1647,1647,0,801494.092,0.686,-0.676,0.194,0.187,0,0,0,0,0,0,0,0,0,0.000,0,0,0.092,0.004,-0.080,0.020,-0.040,0.014,0.995,0.012,0.004,0.000,0.004,0.000,0.000,0.000,0.000,0,2,0,3,7,255,1440,200,0,0,-89.421,0.710,-31.224
EX0521-092111,15,C24,prep,1683,1683,0,801499.091,0.686,-0.676,0.194,0.187,0,0,0,0,0,0,0,0,0,0.000,0,0,0.060,0.004,-0.020,-0.040,-0.040,0.015,0.996,0.011,0.004,0.000,0.012,0.000,0.000,0.000,0.000,0,2,0,3,7,255,1440,200,0,0,-89.421,0.710,-31.224
EX0521-092111,15,C24,prep,1683,1683,0,801504.092,0.686,-0.676,0.194,0.187,0,0,0,0,0,0,0,0,0,0.000,0,0,0.110,0.004,0.040,-0.100,0.020,0.015,0.994,0.012,-0.002,-0.004,0.012,0.000,0.000,0.000,0.000,0,2,0,3,7,255,1440,200,0,0,-89.421,0.710,-31.224
EX0521-092111,15,C24,prep,1684,1684,0,801509.092,0.686,-0.676,0.194,0.187,0,0,0,0,0,0,0,0,0,0.000,0,0,0.069,0.003,0.040,-0.040,-0.040,0.013,0.992,0.012,-0.002,-0.002,0.004,0.000,0.000,0.000,0.000,0,2,0,3,7,255,1440,200,0,0,-89.421,0.710,-31.224
EX0521-092111,15,C24,prep,1684,1684,0,801514.091,0.686,-0.676,0.194,0.187,0,0,0,0,0,0,0,0,0,0.000,0,0,0.060,0.008,-0.020,-0.040,-0.040,0.015,0.994,0.012,-0.002,-0.008,-0.002,0.000,0.000,0.000,0.000,0,2,0,3,7,255,1440,200,0,0,-89.422,0.710,-31.224
EX0521-092111,15,C24,prep,1684,1684,0,801519.092,0.686,-0.676,0.194,0.187,0,0,0,0,0,0,0,0,0,0.000,0,0,0.060,0.003,-0.020,-0.040,-0.040,0.014,0.992,0.011,-0.002,-0.002,-0.016,0.000,0.000,0.000,0.000,0,2,0,3,7,255,1440,200,0,0,-89.422,0.710,-31.224
EX0521-092111,15,C24,prep,1684,1684,0,801524.093,0.686,-0.676,0.194,0.187,0,0,0,0,0,0,0,0,0,0.000,0,0,0.060,0.002,-0.020,-0.040,-0.040,0.014,0.995,0.011,0.000,0.002,-0.002,0.000,0.000,0.000,0.000,0,2,0,3,7,255,1440,200,0,0,-89.422,0.710,-31.224
EX0521-092111,15,C24,prep,1696,1696,0,801529.091,0.686,-0.676,0.194,0.187,0,0,0,0,0,0,0,0,0,0.000,0,0,0.060,0.004,-0.020,-0.040,-0.040,0.014,0.995,0.011,-0.002,0.004,0.008,0.000,0.000,0.000,0.000,0,2,0,3,7,255,1440,200,0,0,-89.422,0.710,-31.224
EX0521-092111,15,C24,prep,1696,1696,0,801534.092,0.686,-0.676,0.194,0.187,0,0,0,0,0,0,0,0,0,0.000,0,0,0.049,0.002,-0.020,-0.040,0.020,0.014,0.995,0.011,0.000,0.002,0.008,0.000,0.000,0.000,0.000,0,2,0,3,7,255,1440,200,0,0,-89.422,0.710,-31.224
EX0521-092111,15,C24,prep,1696,1696,0,801539.091,0.686,-0.676,0.194,0.187,0,0,0,0,0,0,0,0,0,0.000,0,0,0.060,0.002,-0.020,-0.040,-0.040,0.015,0.993,0.011,0.000,0.002,0.008,0.000,0.000,0.000,0.000,0,2,0,3,7,255,1440,200,0,0,-89.422,0.710,-31.224
EX0521-092111,15,C24,prep,1696,1696,0,801544.092,0.686,-0.676,0.194,0.187,0,0,0,0,0,0,0,0,0,0.000,0,0,0.134,0.002,-0.080,-0.100,-0.040,0.015,0.994,0.012,0.002,0.000,-0.002,0.000,0.000,0.000,0.000,0,2,0,3,7,255,1440,200,0,0,-89.422,0.710,-31.224
EX0521-092111,15,C24,prep,1696,1696,0,801549.092,0.686,-0.676,0.194,0.187,0,0,0,0,0,0,0,0,0,0.000,0,0,0.060,0.004,-0.020,-0.040,-0.040,0.015,0.993,0.012,0.002,-0.004,-0.006,0.000,0.000,0.000,0.000,0,2,0,3,7,255,1440,200,0,0,-89.422,0.710,-31.224
EX0521-092111,15,C24,prep,1696,1696,0,801554.091,0.686,-0.676,0.194,0.187,0,0,0,0,0,0,0,0,0,0.000,0,0,0.060,0.004,-0.020,-0.040,-0.040,0.015,0.995,0.011,0.002,-0.004,-0.002,0.000,0.000,0.000,0.000,0,2,0,3,7,255,1440,200,0,0,-89.422,0.710,-31.224
EX0521-092111,15,C24,prep,1725,1725,0,801559.092,0.686,-0.676,0.194,0.187,0,0,0,0,0,0,0,0,0,0.000,0,0,0.049,0.003,-0.020,-0.040,0.020,0.014,0.994,0.011,0.002,0.002,0.004,0.000,0.000,0.000,0.000,0,2,0,3,7,255,1440,200,0,0,-89.422,0.710,-31.224
EX0521-092111,15,C24,prep,1725,1725,0,801564.093,0.686,-0.676,0.194,0.187,0,0,0,0,0,0,0,0,0,0.000,0,0,0.069,0.002,0.040,-0.040,-0.040,0.014,0.993,0.011,0.000,0.002,0.004,0.000,0.000,0.000,0.000,0,2,0,3,7,255,1440,200,0,0,-89.422,0.710,-31.224
EX0521-092111,15,C24,prep,1727,1727,0,801569.092,0.686,-0.676,0.194,0.187,0,0,0,0,0,0,0,0,0,0.000,0,0,0.060,0.002,-0.020,-0.040,-0.040,0.014,0.996,0.011,0.000,0.002,0.004,0.000,0.000,0.000,0.000,0,2,0,3,7,255,1440,200,0,0,-89.422,0.710,-31.224
EX0521-092111,15,C24,prep,1727,1727,0,801574.092,0.686,-0.676,0.194,0.187,0,0,0,0,0,0,0,0,0,0.000,0,0,0.104,0.002,-0.020,0.020,-0.100,0.015,0.992,0.011,0.000,0.002,-0.006,0.000,0.000,0.000,0.000,0,2,0,3,7,255,1440,200,0,0,-89.422,0.710,-31.224
EX0521-092111,15,C24,prep,1727,1727,0,801579.091,0.686,-0.676,0.194,0.187,0,0,0,0,0,0,0,0,0,0.000,0,0,0.060,0.007,-0.020,-0.040,-0.040,0.015,0.994,0.011,0.006,0.004,-0.002,0.000,0.000,0.000,0.000,0,2,0,3,7,255,1440,200,0,0,-89.422,0.710,-31.224
EX0521-092111,15,C24,prep,1727,1727,0,801584.092,0.686,-0.676,0.194,0.187,0,0,0,0,0,0,0,0,0,0.000,0,0,0.060,0.006,-0.020,-0.040,-0.040,0.014,0.994,0.011,0.006,0.002,-0.002,0.000,0.000,0.000,0.000,0,2,0,3,7,255,1440,200,0,0,-89.422,0.710,-31.224
EX0521-092111,15,C24,prep,1751,1751,0,801589.091,0.686,-0.676,0.194,0.187,0,0,0,0,0,0,0,0,0,0.000,0,0,0.035,0.004,-0.020,0.020,0.020,0.014,0.996,0.011,0.002,0.004,-0.002,0.000,0.000,0.000,0.000,0,2,0,3,7,255,1440,200,0,0,-89.422,0.710,-31.224
EX0521-092111,15,C24,prep,1751,1751,0,801594.092,0.686,-0.676,0.194,0.187,0,0,0,0,0,0,0,0,0,0.000,0,0,0.060,0.003,-0.020,-0.040,-0.040,0.015,0.994,0.012,0.002,0.002,0.004,0.000,0.000,0.000,0.000,0,2,0,3,7,255,1440,200,0,0,-89.422,0.710,-31.224
EX0521-092111,15,C24,prep,1752,1752,0,801599.092,0.686,-0.676,0.194,0.187,0,0,0,0,0,0,0,0,0,0.000,0,0,0.060,0.010,-0.020,-0.040,-0.040,0.016,0.995,0.012,0.002,-0.010,0.012,0.000,0.000,0.000,0.000,0,2,0,3,7,255,1440,200,0,0,-89.422,0.710,-31.224
EX0521-092111,15,C24,prep,1752,1752,0,801604.091,0.686,-0.676,0.194,0.187,0,0,0,0,0,0,0,0,0,0.000,0,0,0.060,0.010,-0.020,-0.040,-0.040,0.014,0.992,0.013,0.002,-0.010,0.004,0.000,0.000,0.000,0.000,0,2,0,3,7,255,1440,200,0,0,-89.422,0.710,-31.224
EX0521-092111,15,C24,prep,1791,1791,0,801609.092,0.686,-0.676,0.194,0.187,0,0,0,0,0,0,0,0,0,0.000,0,0,0.049,0.012,-0.020,0.020,-0.040,0.015,0.995,0.011,0.006,-0.010,0.008,0.000,0.000,0.000,0.000,0,2,0,3,7,255,1440,200,0,0,-89.422,0.710,-31.224
EX0521-092111,15,C24,prep,1791,1791,0,801614.091,0.686,-0.676,0.194,0.187,0,0,0,0,0,0,0,0,0,0.000,0,0,0.098,0.006,-0.080,-0.040,-0.040,0.014,0.994,0.011,-0.004,0.004,-0.002,0.000,0.000,0.000,0.000,0,2,0,3,7,255,1440,200,0,0,-89.422,0.710,-31.224
EX0521-092111,15,C24,prep,1791,1791,0,801619.093,0.686,-0.676,0.194,0.187,0,0,0,0,0,0,0,0,0,0.000,0,0,0.110,0.004,-0.020,-0.100,-0.040,0.015,0.994,0.012,0.000,0.004,-0.002,0.000,0.000,0.000,0.000,0,2,0,3,7,255,1440,200,0,0,-89.422,0.710,-31.224
EX0521-092111,15,C24,prep,1791,1791,0,801624.093,0.686,-0.676,0.194,0.187,0,0,0,0,0,0,0,0,0,0.000,0,0,0.060,0.002,-0.020,-0.040,-0.040,0.014,0.994,0.011,0.000,0.002,-0.002,0.000,0.000,0.000,0.000,0,2,0,3,7,255,1440,200,0,0,-89.422,0.710,-31.224
EX0521-092111,15,C24,prep,1791,1791,0,801629.091,0.686,-0.676,0.194,0.187,0,0,0,0,0,0,0,0,0,0.000,0,0,0.060,0.004,-0.020,-0.040,-0.040,0.015,0.994,0.012,0.000,-0.004,-0.002,0.000,0.000,0.000,0.000,0,2,0,3,7,255,1440,200,0,0,-89.422,0.710,-31.224
EX0521-092111,15,C24,prep,1791,1791,0,801634.092,0.686,-0.676,0.194,0.187,0,0,0,0,0,0,0,0,0,0.000,0,0,0.060,0.003,0.040,0.020,-0.040,0.014,0.994,0.011,-0.002,0.002,-0.002,0.000,0.000,0.000,0.000,0,2,0,3,7,255,1440,200,0,0,-89.423,0.710,-31.224
EX0521-092111,15,C24,prep,1791,1791,0,801639.092,0.686,-0.676,0.194,0.187,0,0,0,0,0,0,0,0,0,0.000,0,0,0.060,0.008,-0.020,-0.040,-0.040,0.015,0.993,0.012,-0.002,-0.008,-0.002,0.000,0.000,0.000,0.000,0,2,0,3,7,255,1440,200,0,0,-89.423,0.710,-31.224
EX0521-092111,15,C24,prep,1791,1791,0,801644.091,0.686,-0.676,0.194,0.187,0,0,0,0,0,0,0,0,0,0.000,0,0,0.110,0.008,-0.020,-0.100,-0.040,0.016,0.996,0.012,-0.002,-0.008,-0.002,0.000,0.000,0.000,0.000,0,2,0,3,7,255,1440,200,0,0,-89.423,0.710,-31.224
EX0521-092111,15,C24,prep,1811,1811,0,801649.092,0.686,-0.676,0.194,0.187,0,0,0,0,0,0,0,0,0,0.000,0,0,0.060,0.008,-0.020,-0.040,-0.040,0.014,0.993,0.012,-0.002,-0.008,-0.006,0.000,0.000,0.000,0.000,0,2,0,3,7,255,1440,200,0,0,-89.423,0.710,-31.224
EX0521-092111,15,C24,prep,1811,1811,0,801654.091,0.686,-0.676,0.194,0.187,0,0,0,0,0,0,0,0,0,0.000,0,0,0.060,0.003,-0.020,-0.040,-0.040,0.014,0.994,0.011,0.002,-0.002,-0.002,0.000,0.000,0.000,0.000,0,2,0,3,7,255,1440,200,0,0,-89.423,0.710,-31.224
EX0521-092111,15,C24,prep,1811,1811,0,801659.092,0.686,-0.676,0.194,0.187,0,0,0,0,0,0,0,0,0,0.000,0,0,0.060,0.004,-0.020,-0.040,-0.040,0.015,0.993,0.011,0.002,0.004,-0.012,0.000,0.000,0.000,0.000,0,2,0,3,7,255,1440,200,0,0,-89.423,0.710,-31.224
EX0521-092111,15,C24,prep,1811,1811,0,801664.092,0.686,-0.676,0.194,0.187,0,0,0,0,0,0,0,0,0,0.000,0,0,0.060,0.007,-0.020,-0.040,-0.040,0.015,0.994,0.011,0.006,0.004,-0.002,0.000,0.000,0.000,0.000,0,2,0,3,7,255,1440,200,0,0,-89.423,0.710,-31.224
EX0521-092111,15,C24,prep,1823,1823,0,801669.091,0.686,-0.676,0.194,0.187,0,0,0,0,0,0,0,0,0,0.000,0,0,0.060,0.007,-0.020,-0.040,-0.040,0.015,0.994,0.012,0.006,-0.004,0.004,0.000,0.000,0.000,0.000,0,2,0,3,7,255,1440,200,0,0,-89.423,0.710,-31.224
EX0521-092111,15,C24,prep,1823,1823,0,801674.092,0.686,-0.676,0.194,0.187,0,0,0,0,0,0,0,0,0,0.000,0,0,0.060,0.007,-0.020,-0.040,-0.040,0.014,0.994,0.012,0.004,-0.006,0.004,0.000,0.000,0.000,0.000,0,2,0,3,7,255,1440,200,0,0,-89.423,0.710,-31.224
EX0521-092111,15,C24,prep,1842,1842,0,801679.091,0.686,-0.676,0.194,0.187,0,0,0,0,0,0,0,0,0,0.000,0,0,0.098,0.008,-0.080,-0.040,-0.040,0.015,0.993,0.012,-0.002,-0.008,0.004,0.000,0.000,0.000,0.000,0,2,0,3,7,255,1440,200,0,0,-89.423,0.710,-31.224
EX0521-092111,15,C24,prep,1842,1842,0,801684.092,0.686,-0.676,0.194,0.187,0,0,0,0,0,0,0,0,0,0.000,0,0,0.110,0.006,-0.020,-0.040,-0.100,0.015,0.994,0.011,-0.002,-0.006,0.004,0.000,0.000,0.000,0.000,0,2,0,3,7,255,1440,200,0,0,-89.423,0.710,-31.224
EX0521-092111,15,C24,prep,1843,1843,0,801689.092,0.686,-0.676,0.194,0.187,0,0,0,0,0,0,0,0,0,0.000,0,0,0.098,0.004,-0.080,-0.040,-0.040,0.014,0.993,0.012,-0.002,-0.004,-0.006,0.000,0.000,0.000,0.000,0,2,0,3,7,255,1440,200,0,0,-89.423,0.710,-31.224
EX0521-092111,15,C24,prep,1843,1843,0,801694.091,0.686,-0.676,0.194,0.187,0,0,0,0,0,0,0,0,0,0.000,0,0,0.060,0.004,-0.020,-0.040,-0.040,0.015,0.992,0.012,0.000,-0.004,-0.012,0.000,0.000,0.000,0.000,0,2,0,3,7,255,1440,200,0,0,-89.423,0.710,-31.224
EX0521-092111,15,C24,prep,1855,1855,0,801699.092,0.686,-0.676,0.194,0.187,0,0,0,0,0,0,0,0,0,0.000,0,0,0.049,0.009,-0.020,0.020,-0.040,0.014,0.994,0.012,-0.008,-0.004,-0.012,0.000,0.000,0.000,0.000,0,2,0,3,7,255,1440,200,0,0,-89.423,0.710,-31.224
EX0521-092111,15,C24,prep,1855,1855,0,801704.091,0.686,-0.676,0.194,0.187,0,0,0,0,0,0,0,0,0,0.000,0,0,0.060,0.004,-0.020,-0.040,-0.040,0.015,0.993,0.011,0.000,-0.004,-0.010,0.000,0.000,0.000,0.000,0,2,0,3,7,255,1440,200,0,0,-89.423,0.710,-31.224
EX0521-092111,15,C24,prep,1874,1874,0,801709.092,0.686,-0.676,0.194,0.187,0,0,0,0,0,0,0,0,0,0.000,0,0,0.035,0.004,-0.020,0.020,0.020,0.014,0.995,0.012,-0.004,-0.002,-0.002,0.000,0.000,0.000,0.000,0,2,0,3,7,255,1440,200,0,0,-89.423,0.710,-31.224
EX0521-092111,15,C24,prep,1874,1874,0,801714.092,0.686,-0.676,0.194,0.187,0,0,0,0,0,0,0,0,0,0.000,0,0,0.060,0.004,-0.020,-0.040,-0.040,0.014,0.993,0.011,-0.004,-0.002,-0.006,0.000,0.000,0.000,0.000,0,2,0,3,7,255,1440,200,0,0,-89.423,0.710,-31.224
EX0521-092111,15,C24,prep,1887,1887,0,801719.092,0.686,-0.676,0.194,0.187,0,0,0,0,0,0,0,0,0,0.000,0,0,0.060,0.006,-0.020,-0.040,-0.040,0.014,0.994,0.011,-0.004,0.004,-0.002,0.000,0.000,0.000,0.000,0,2,0,3,7,255,1440,200,0,0,-89.423,0.710,-31.224
EX0521-092111,15,C24,prep,1887,1887,0,801724.093,0.686,-0.676,0.194,0.187,0,0,0,0,0,0,0,0,0,0.000,0,0,0.060,0.006,-0.020,-0.040,-0.040,0.014,0.994,0.011,-0.004,0.004,-0.002,0.000,0.000,0.000,0.000,0,2,0,3,7,255,1440,200,0,0,-89.423,0.710,-31.224
EX0521-092111,15,C24,prep,1887,1887,0,801729.091,0.686,-0.676,0.194,0.187,0,0,0,0,0,0,0,0,0,0.000,0,0,0.049,0.006,-0.020,-0.040,0.020,0.014,0.994,0.011,-0.004,0.004,-0.002,0.000,0.000,0.000,0.000,0,2,0,3,7,255,1440,200,0,0,-89.423,0.710,-31.224
EX0521-092111,15,C24,prep,1887,1887,0,801734.091,0.686,-0.676,0.194,0.187,0,0,0,0,0,0,0,0,0,0.000,0,0,0.069,0.006,0.040,-0.040,-0.040,0.014,0.994,0.012,-0.004,0.004,-0.002,0.000,0.000,0.000,0.000,0,2,0,3,7,255,1440,200,0,0,-89.423,0.710,-31.224
EX0521-092111,15,C24,prep,1910,1910,0,801739.092,0.686,-0.676,0.194,0.187,0,0,0,0,0,0,0,0,0,0.000,0,0,0.060,0.007,0.040,-0.040,0.020,0.014,0.994,0.012,-0.006,-0.004,-0.002,0.000,0.000,0.000,0.000,0,2,0,3,7,255,1440,200,0,0,-89.423,0.710,-31.224
EX0521-092111,15,C24,prep,1910,1910,0,801744.091,0.686,-0.676,0.194,0.187,0,0,0,0,0,0,0,0,0,0.000,0,0,0.143,0.008,-0.020,-0.100,-0.100,0.014,0.993,0.012,-0.006,-0.006,-0.002,0.000,0.000,0.000,0.000,0,2,0,3,7,255,1440,200,0,0,-89.423,0.710,-31.224
EX0521-092111,15,C24,prep,1910,1910,0,801749.092,0.686,-0.676,0.194,0.187,0,0,0,0,0,0,0,0,0,0.000,0,0,0.060,0.007,-0.020,-0.040,-0.040,0.015,0.994,0.011,-0.006,-0.004,-0.002,0.000,0.000,0.000,0.000,0,2,0,3,7,255,1440,200,0,0,-89.423,0.710,-31.224
EX0521-092111,15,C24,prep,1910,1910,0,801754.092,0.686,-0.676,0.194,0.187,0,0,0,0,0,0,0,0,0,0.000,0,0,0.110,0.004,0.040,-0.100,0.020,0.015,0.994,0.012,0.002,-0.004,-0.002,0.000,0.000,0.000,0.000,0,2,0,3,7,255,1440,200,0,0,-89.424,0.710,-31.224
EX0521-092111,15,C24,prep,1910,1910,0,801759.093,0.686,-0.676,0.194,0.187,0,0,0,0,0,0,0,0,0,0.000,0,0,0.060,0.004,-0.020,-0.040,-0.040,0.015,0.995,0.012,0.002,-0.004,-0.002,0.000,0.000,0.000,0.000,0,2,0,3,7,255,1440,200,0,0,-89.424,0.710,-31.224
EX0521-092111,15,C24,prep,1910,1910,0,801764.093,0.686,-0.676,0.194,0.187,0,0,0,0,0,0,0,0,0,0.000,0,0,0.060,0.004,-0.020,-0.040,-0.040,0.014,0.994,0.011,0.002,-0.004,0.004,0.000,0.000,0.000,0.000,0,2,0,3,7,255,1440,200,0,0,-89.424,0.710,-31.224
EX0521-092111,15,C24,prep,1919,1919,0,801769.093,0.686,-0.676,0.194,0.187,0,0,0,0,0,0,0,0,0,0.000,0,0,0.060,0.003,-0.020,-0.040,-0.040,0.015,0.993,0.011,0.002,-0.002,0.004,0.000,0.000,0.000,0.000,0,2,0,3,7,255,1440,200,0,0,-89.424,0.710,-31.224
EX0521-092111,15,C24,prep,1919,1919,0,801774.092,0.686,-0.676,0.194,0.187,0,0,0,0,0,0,0,0,0,0.000,0,0,0.049,0.002,-0.020,-0.040,0.020,0.013,0.994,0.011,0.000,0.002,-0.002,0.000,0.000,0.000,0.000,0,2,0,3,7,255,1440,200,0,0,-89.424,0.710,-31.224
EX0521-092111,15,C24,prep,1945,1945,0,801779.092,0.686,-0.676,0.194,0.187,0,0,0,0,0,0,0,0,0,0.000,0,0,0.098,0.003,-0.080,-0.040,-0.040,0.015,0.993,0.012,-0.002,-0.002,-0.006,0.000,0.000,0.000,0.000,0,2,0,3,7,255,1440,200,0,0,-89.424,0.710,-31.224
EX0521-092111,15,C24,prep,1945,1945,0,801784.091,0.686,-0.676,0.194,0.187,0,0,0,0,0,0,0,0,0,0.000,0,0,0.069,0.008,0.040,-0.040,-0.040,0.015,0.994,0.012,-0.002,-0.008,-0.002,0.000,0.000,0.000,0.000,0,2,0,3,7,255,1440,200,0,0,-89.424,0.710,-31.224
EX0521-092111,15,C24,prep,1945,1945,0,801789.092,0.686,-0.676,0.194,0.187,0,0,0,0,0,0,0,0,0,0.000,0,0,0.060,0.008,-0.020,-0.040,-0.040,0.015,0.994,0.012,-0.002,-0.008,0.000,0.000,0.000,0.000,0.000,0,2,0,3,7,255,1440,200,0,0,-89.424,0.710,-31.224
EX0521-092111,15,C24,prep,1945,1945,0,801794.091,0.686,-0.676,0.194,0.187,0,0,0,0,0,0,0,0,0,0.000,0,0,0.060,0.004,-0.020,-0.040,-0.040,0.015,0.994,0.010,0.002,-0.004,0.000,0.000,0.000,0.000,0.000,0,2,0,3,7,255,1440,200,0,0,-89.424,0.710,-31.224
EX0521-092111,15,C24,prep,1984,1984,0,801799.092,0.686,-0.676,0.194,0.187,0,0,0,0,0,0,0,0,0,0.000,0,0,0.098,0.004,-0.080,-0.040,-0.040,0.013,0.994,0.012,0.002,0.004,0.000,0.000,0.000,0.000,0.000,0,2,0,3,7,255,1440,200,0,0,-89.424,0.710,-31.224
EX0521-092111,15,C24,prep,1984,1984,0,801804.092,0.686,-0.676,0.194,0.187,0,0,0,0,0,0,0,0,0,0.000,0,0,0.049,0.006,-0.020,-0.040,0.020,0.015,0.993,0.011,0.004,0.004,-0.002,0.000,0.000,0.000,0.000,0,2,0,3,7,255,1440,200,0,0,-89.424,0.710,-31.224
EX0521-092111,15,C24,prep,1984,1984,0,801809.091,0.686,-0.676,0.194,0.187,0,0,0,0,0,0,0,0,0,0.000,0,0,0.098,0.010,-0.080,-0.040,-0.040,0.014,0.993,0.012,-0.010,0.000,-0.006,0.000,0.000,0.000,0.000,0,2,0,3,7,255,1440,200,0,0,-89.424,0.710,-31.224
EX0521-092111,15,C24,prep,1984,1984,0,801814.092,0.686,-0.676,0.194,0.187,0,0,0,0,0,0,0,0,0,0.000,0,0,0.049,0.004,-0.020,0.020,-0.040,0.015,0.994,0.011,0.004,0.000,-0.006,0.000,0.000,0.000,0.000,0,2,0,3,7,255,1440,200,0,0,-89.424,0.710,-31.224
EX0521-092111,15,C24,prep,1984,1984,0,801819.092,0.686,-0.676,0.194,0.187,0,0,0,0,0,0,0,0,0,0.000,0,0,0.049,0.004,-0.020,-0.040,0.020,0.015,0.993,0.012,0.002,-0.004,-0.006,0.000,0.000,0.000,0.000,0,2,0,3,7,255,1440,200,0,0,-89.424,0.710,-31.224
EX0521-092111,15,C24,prep,1984,1984,0,801824.093,0.686,-0.676,0.194,0.187,0,0,0,0,0,0,0,0,0,0.000,0,0,0.069,0.004,0.040,-0.040,-0.040,0.014,0.993,0.011,0.002,0.004,-0.006,0.000,0.000,0.000,0.000,0,2,0,3,7,255,1440,200,0,0,-89.424,0.710,-31.224
EX0521-092111,15,C24,prep,2014,2014,0,801829.092,0.686,-0.676,0.194,0.187,0,0,0,0,0,0,0,0,0,0.000,0,0,0.060,0.004,-0.020,-0.040,-0.040,0.014,0.993,0.012,-0.004,0.000,-0.010,0.000,0.000,0.000,0.000,0,2,0,3,7,255,1440,200,0,0,-89.424,0.710,-31.224
EX0521-092111,15,C24,prep,2014,2014,0,801834.091,0.686,-0.676,0.194,0.187,0,0,0,0,0,0,0,0,0,0.000,0,0,0.049,0.006,-0.020,0.020,-0.040,0.014,0.995,0.011,-0.004,0.004,-0.006,0.000,0.000,0.000,0.000,0,2,0,3,7,255,1440,200,0,0,-89.424,0.710,-31.224
EX0521-092111,15,C24,prep,2014,2014,0,801839.092,0.686,-0.676,0.194,0.187,0,0,0,0,0,0,0,0,0,0.000,0,0,0.049,0.004,-0.020,-0.040,0.020,0.014,0.994,0.012,-0.004,0.000,0.000,0.000,0.000,0.000,0.000,0,2,0,3,7,255,1440,200,0,0,-89.424,0.710,-31.224
EX0521-092111,15,C24,prep,2014,2014,0,801844.092,0.686,-0.676,0.194,0.187,0,0,0,0,0,0,0,0,0,0.000,0,0,0.060,0.003,-0.020,-0.040,-0.040,0.016,0.993,0.010,-0.002,0.002,0.000,0.000,0.000,0.000,0.000,0,2,0,3,7,255,1440,200,0,0,-89.424,0.710,-31.224
EX0521-092111,15,C24,prep,2014,2014,0,801849.091,0.686,-0.676,0.194,0.187,0,0,0,0,0,0,0,0,0,0.000,0,0,0.060,0.003,-0.020,-0.040,-0.040,0.014,0.993,0.011,0.002,0.002,-0.006,0.000,0.000,0.000,0.000,0,2,0,3,7,255,1440,200,0,0,-89.424,0.710,-31.224
EX0521-092111,15,C24,prep,2014,2014,0,801854.092,0.686,-0.676,0.194,0.187,0,0,0,0,0,0,0,0,0,0.000,0,0,0.060,0.004,-0.020,-0.040,-0.040,0.014,0.993,0.011,0.002,0.004,-0.006,0.000,0.000,0.000,0.000,0,2,0,3,7,255,1440,200,0,0,-89.424,0.710,-31.224
EX0521-092111,15,C24,prep,2015,2015,0,801859.092,0.686,-0.676,0.194,0.187,0,0,0,0,0,0,0,0,0,0.000,0,0,0.060,0.004,-0.020,-0.040,-0.040,0.015,0.994,0.012,0.002,0.004,-0.006,0.000,0.000,0.000,0.000,0,2,0,3,7,255,1440,200,0,0,-89.424,0.710,-31.224
EX0521-092111,15,C24,prep,2015,2015,0,801864.092,0.686,-0.676,0.194,0.187,0,0,0,0,0,0,0,0,0,0.000,0,0,0.069,0.004,0.040,-0.040,-0.040,0.014,0.995,0.012,-0.004,-0.002,0.000,0.000,0.000,0.000,0.000,0,2,0,3,7,255,1440,200,0,0,-89.424,0.710,-31.224
EX0521-092111,15,C24,prep,2031,2031,0,801869.092,0.686,-0.676,0.194,0.187,0,0,0,0,0,0,0,0,0,0.000,0,0,0.049,0.008,-0.020,-0.040,0.020,0.015,0.994,0.012,0.006,-0.006,0.004,0.000,0.000,0.000,0.000,0,2,0,3,7,255,1440,200,0,0,-89.424,0.710,-31.224
EX0521-092111,15,C24,prep,2031,2031,0,801874.091,0.686,-0.676,0.194,0.187,0,0,0,0,0,0,0,0,0,0.000,0,0,0.069,0.004,0.040,-0.040,-0.040,0.014,0.994,0.012,-0.004,-0.002,0.004,0.000,0.000,0.000,0.000,0,2,0,3,7,255,1440,200,0,0,-89.424,0.710,-31.224
EX0521-092111,15,C24,prep,2031,2031,0,801879.092,0.686,-0.676,0.194,0.187,0,0,0,0,0,0,0,0,0,0.000,0,0,0.060,0.004,-0.020,-0.040,-0.040,0.014,0.993,0.011,-0.004,-0.002,0.004,0.000,0.000,0.000,0.000,0,2,0,3,7,255,1440,200,0,0,-89.425,0.710,-31.224
EX0521-092111,15,C24,prep,2031,2031,0,801884.091,0.686,-0.676,0.194,0.187,0,0,0,0,0,0,0,0,0,0.000,0,0,0.060,0.004,0.040,-0.040,0.020,0.015,0.994,0.012,-0.004,-0.002,0.000,0.000,0.000,0.000,0.000,0,2,0,3,7,255,1440,200,0,0,-89.425,0.710,-31.224
EX0521-092111,15,C24,prep,2048,2048,0,801889.092,0.686,-0.676,0.194,0.187,0,0,0,0,0,0,0,0,0,0.000,0,0,0.060,0.004,0.040,-0.040,0.020,0.014,0.993,0.011,-0.002,0.004,-0.010,0.000,0.000,0.000,0.000,0,2,0,3,7,255,1440,200,0,0,-89.425,0.710,-31.224
EX0521-092111,15,C24,prep,2048,2048,0,801894.092,0.686,-0.676,0.194,0.187,0,0,0,0,0,0,0,0,0,0.000,0,0,0.110,0.003,-0.020,-0.040,-0.100,0.014,0.993,0.012,-0.002,-0.002,-0.006,0.000,0.000,0.000,0.000,0,2,0,3,7,255,1440,200,0,0,-89.425,0.710,-31.224
EX0521-092111,15,C24,prep,2048,2048,0,801899.091,0.686,-0.676,0.194,0.187,0,0,0,0,0,0,0,0,0,0.000,0,0,0.060,0.004,0.040,0.020,-0.040,0.014,0.995,0.011,-0.002,0.004,-0.006,0.000,0.000,0.000,0.000,0,2,0,3,7,255,1440,200,0,0,-89.425,0.710,-31.224
EX0521-092111,15,C24,prep,2048,2048,0,801904.092,0.686,-0.676,0.194,0.187,0,0,0,0,0,0,0,0,0,0.000,0,0,0.060,0.004,-0.020,-0.040,-0.040,0.014,0.994,0.012,-0.004,0.000,0.004,0.000,0.000,0.000,0.000,0,2,0,3,7,255,1440,200,0,0,-89.425,0.710,-31.224
EX0521-092111,15,C24,prep,2082,2082,0,801909.091,0.686,-0.676,0.194,0.187,0,0,0,0,0,0,0,0,0,0.000,0,0,0.069,0.006,0.040,-0.040,-0.040,0.013,0.994,0.012,-0.006,0.002,0.004,0.000,0.000,0.000,0.000,0,2,0,3,7,255,1440,200,0,0,-89.425,0.710,-31.224
EX0521-092111,15,C24,prep,2082,2082,0,801914.091,0.686,-0.676,0.194,0.187,0,0,0,0,0,0,0,0,0,0.000,0,0,0.069,0.006,0.040,-0.040,-0.040,0.015,0.993,0.010,-0.006,0.002,0.000,0.000,0.000,0.000,0.000,0,2,0,3,7,255,1440,200,0,0,-89.425,0.710,-31.224
EX0521-092111,15,C24,prep,2083,2083,0,801919.092,0.686,-0.676,0.194,0.187,0,0,0,0,0,0,0,0,0,0.000,0,0,0.098,0.009,-0.080,-0.040,-0.040,0.015,0.994,0.010,0.008,0.004,0.000,0.000,0.000,0.000,0.000,0,2,0,3,7,255,1440,200,0,0,-89.425,0.711,-31.224
EX0521-092111,15,C24,prep,2083,2083,0,801924.093,0.686,-0.676,0.194,0.187,0,0,0,0,0,0,0,0,0,0.000,0,0,0.060,0.010,-0.020,-0.040,-0.040,0.014,0.995,0.011,0.008,0.006,0.000,0.000,0.000,0.000,0.000,0,2,0,3,7,255,1440,200,0,0,-89.425,0.711,-31.224
EX0521-092111,15,C24,prep,2083,2083,0,801929.092,0.686,-0.676,0.194,0.187,0,0,0,0,0,0,0,0,0,0.000,0,0,0.060,0.009,-0.020,-0.040,-0.040,0.014,0.994,0.010,0.004,0.008,0.000,0.000,0.000,0.000,0.000,0,2,0,3,7,255,1440,200,0,0,-89.425,0.711,-31.224
EX0521-092111,15,C24,prep,2083,2083,0,801934.092,0.686,-0.676,0.194,0.187,0,0,0,0,0,0,0,0,0,0.000,0,0,0.069,0.009,0.040,-0.040,-0.040,0.015,0.994,0.010,0.004,0.008,0.000,0.000,0.000,0.000,0.000,0,2,0,3,7,255,1440,200,0,0,-89.425,0.711,-31.224
EX0521-092111,15,C24,prep,2095,2095,0,801939.092,0.686,-0.676,0.194,0.187,0,0,0,0,0,0,0,0,0,0.000,0,0,0.049,0.013,-0.020,-0.040,0.020,0.015,0.993,0.010,0.008,0.010,0.000,0.000,0.000,0.000,0.000,0,2,0,3,7,255,1440,200,0,0,-89.425,0.711,-31.224
EX0521-092111,15,C24,prep,2095,2095,0,801944.092,0.686,-0.676,0.194,0.187,0,0,0,0,0,0,0,0,0,0.000,0,0,0.060,0.011,-0.020,-0.040,-0.040,0.015,0.993,0.011,0.008,0.008,-0.006,0.000,0.000,0.000,0.000,0,2,0,3,7,255,1440,200,0,0,-89.425,0.711,-31.224
EX0521-092111,15,C24,prep,2127,2127,0,801949.091,0.686,-0.676,0.194,0.187,0,0,0,0,0,0,0,0,0,0.000,0,0,0.147,0.009,0.040,-0.100,-0.100,0.014,0.994,0.011,0.004,0.008,-0.006,0.000,0.000,0.000,0.000,0,2,0,3,7,255,1440,200,0,0,-89.425,0.711,-31.224
EX0521-092111,15,C24,prep,2127,2127,0,801954.092,0.686,-0.676,0.194,0.187,0,0,0,0,0,0,0,0,0,0.000,0,0,0.069,0.008,0.040,-0.040,-0.040,0.014,0.994,0.011,-0.002,0.008,0.000,0.000,0.000,0.000,0.000,0,2,0,3,7,255,1440,200,0,0,-89.425,0.711,-31.224
EX0521-092111,15,C24,prep,2127,2127,0,801959.093,0.686,-0.676,0.194,0.187,0,0,0,0,0,0,0,0,0,0.000,0,0,0.098,0.008,-0.080,-0.040,-0.040,0.014,0.993,0.011,-0.002,0.008,0.000,0.000,0.000,0.000,0.000,0,2,0,3,7,255,1440,200,0,0,-89.425,0.711,-31.224
EX0521-092111,15,C24,prep,2127,2127,0,801964.093,0.686,-0.676,0.194,0.187,0,0,0,0,0,0,0,0,0,0.000,0,0,0.069,0.008,0.040,-0.040,-0.040,0.015,0.993,0.012,-0.002,0.008,-0.006,0.000,0.000,0.000,0.000,0,2,0,3,7,255,1440,200,0,0,-89.425,0.711,-31.224
EX0521-092111,15,C24,prep,2127,2127,0,801969.092,0.686,-0.676,0.194,0.187,0,0,0,0,0,0,0,0,0,0.000,0,0,0.069,0.002,0.040,-0.040,-0.040,0.014,0.993,0.012,-0.002,0.000,-0.006,0.000,0.000,0.000,0.000,0,2,0,3,7,255,1440,200,0,0,-89.425,0.711,-31.224
EX0521-092111,15,C24,prep,2127,2127,0,801974.091,0.686,-0.676,0.194,0.187,0,0,0,0,0,0,0,0,0,0.000,0,0,0.035,0.008,-0.020,0.020,0.020,0.014,0.994,0.012,-0.008,0.000,-0.006,0.000,0.000,0.000,0.000,0,2,0,3,7,255,1440,200,0,0,-89.425,0.711,-31.224
EX0521-092111,15,C24,prep,2148,2148,0,801979.092,0.686,-0.676,0.194,0.187,0,0,0,0,0,0,0,0,0,0.000,0,0,0.060,0.008,-0.020,-0.040,-0.040,0.014,0.994,0.011,-0.008,0.000,0.000,0.000,0.000,0.000,0.000,0,2,0,3,7,255,1440,200,0,0,-89.425,0.711,-31.224
EX0521-092111,15,C24,prep,2148,2148,0,801984.092,0.686,-0.676,0.194,0.187,0,0,0,0,0,0,0,0,0,0.000,0,0,0.092,0.002,-0.080,-0.040,0.020,0.015,0.994,0.011,0.000,0.002,0.000,0.000,0.000,0.000,0.000,0,2,0,3,7,255,1440,200,0,0,-89.425,0.711,-31.224
EX0521-092111,15,C24,prep,2148,2148,0,801989.091,0.686,-0.676,0.194,0.187,0,0,0,0,0,0,0,0,0,0.000,0,0,0.060,0.002,-0.020,-0.040,-0.040,0.014,0.993,0.011,0.000,0.002,0.000,0.000,0.000,0.000,0.000,0,2,0,3,7,255,1440,200,0,0,-89.425,0.711,-31.224
EX0521-092111,15,C24,prep,2148,2148,0,801994.092,0.686,-0.676,0.194,0.187,0,0,0,0,0,0,0,0,0,0.000,0,0,0.049,0.003,-0.020,-0.040,0.020,0.014,0.993,0.011,0.002,0.002,-0.006,0.000,0.000,0.000,0.000,0,2,0,3,7,255,1440,200,0,0,-89.425,0.711,-31.224
EX0521-092111,15,C24,prep,2149,2149,0,801999.091,0.686,-0.676,0.194,0.187,0,0,0,0,0,0,0,0,0,0.000,0,0,0.035,0.006,-0.020,0.020,0.020,0.013,0.993,0.011,0.000,0.006,-0.006,0.000,0.000,0.000,0.000,0,2,0,3,7,255,1440,200,0,0,-89.426,0.711,-31.224
EX0521-092111,15,C24,prep,2149,2149,0,802004.091,0.686,-0.676,0.194,0.187,0,0,0,0,0,0,0,0,0,0.000,0,0,0.060,0.006,-0.020,-0.040,-0.040,0.014,0.994,0.010,0.000,0.006,-0.006,0.000,0.000,0.000,0.000,0,2,0,3,7,255,1440,200,0,0,-89.426,0.711,-31.224
EX0521-092111,15,C24,prep,2191,2191,0,802009.092,0.686,-0.676,0.194,0.187,0,0,0,0,0,0,0,0,0,0.000,0,0,0.060,0.006,-0.020,-0.040,-0.040,0.015,0.994,0.011,0.000,0.006,0.000,0.000,0.000,0.000,0.000,0,2,0,3,7,255,1440,200,0,0,-89.426,0.711,-31.224
EX0521-092111,15,C24,prep,2191,2191,0,802014.091,0.686,-0.676,0.194,0.187,0,0,0,0,0,0,0,0,0,0.000,0,0,0.060,0.004,-0.020,-0.040,-0.040,0.015,0.994,0.012,0.004,0.002,0.004,0.000,0.000,0.000,0.000,0,2,0,3,7,255,1440,200,0,0,-89.426,0.711,-31.224
EX0521-092111,15,C24,prep,2191,2191,0,802019.093,0.686,-0.676,0.194,0.187,0,0,0,0,0,0,0,0,0,0.000,0,0,0.060,0.009,-0.020,-0.040,-0.040,0.014,0.994,0.012,0.004,-0.008,0.004,0.000,0.000,0.000,0.000,0,2,0,3,7,255,1440,200,0,0,-89.426,0.711,-31.224
EX0521-092111,15,C24,prep,2191,2191,0,802024.093,0.686,-0.676,0.194,0.187,0,0,0,0,0,0,0,0,0,0.000,0,0,0.049,0.009,-0.020,-0.040,0.020,0.015,0.993,0.011,0.004,-0.008,0.004,0.000,0.000,0.000,0.000,0,2,0,3,7,255,1440,200,0,0,-89.426,0.711,-31.224
EX0521-092111,15,C24,prep,2191,2191,0,802029.091,0.686,-0.676,0.194,0.187,0,0,0,0,0,0,0,0,0,0.000,0,0,0.098,0.002,-0.080,-0.040,-0.040,0.014,0.993,0.011,0.000,-0.002,-0.006,0.000,0.000,0.000,0.000,0,2,0,3,7,255,1440,200,0,0,-89.426,0.711,-31.224
EX0521-092111,15,C24,prep,2191,2191,0,802034.092,0.686,-0.676,0.194,0.187,0,0,0,0,0,0,0,0,0,0.000,0,0,0.049,0.000,-0.020,0.020,-0.040,0.014,0.994,0.011,0.000,0.000,-0.006,0.000,0.000,0.000,0.000,0,2,0,3,7,255,1440,200,0,0,-89.426,0.711,-31.224
EX0521-092111,15,C24,prep,2223,2223,0,802039.091,0.686,-0.676,0.194,0.187,0,0,0,0,0,0,0,0,0,0.000,0,0,0.110,0.000,-0.020,-0.100,-0.040,0.014,0.994,0.012,0.000,0.000,0.000,0.000,0.000,0.000,0.000,0,2,0,3,7,255,1440,200,0,0,-89.426,0.711,-31.224
EX0521-092111,15,C24,prep,2223,2223,0,802044.092,0.686,-0.676,0.194,0.187,0,0,0,0,0,0,0,0,0,0.000,0,0,0.115,0.004,0.040,-0.100,-0.040,0.015,0.993,0.012,0.000,-0.004,0.000,0.000,0.000,0.000,0.000,0,2,0,3,7,255,1440,200,0,0,-89.426,0.711,-31.224
EX0521-092111,15,C24,prep,2223,2223,0,802049.092,0.686,-0.676,0.194,0.187,0,0,0,0,0,0,0,0,0,0.000,0,0,0.147,0.006,0.040,-0.100,-0.100,0.014,0.992,0.012,-0.004,-0.004,-0.010,0.000,0.000,0.000,0.000,0,2,0,3,7,255,1440,200,0,0,-89.426,0.711,-31.224
EX0521-092111,15,C24,prep,2223,2223,0,802054.091,0.686,-0.676,0.194,0.187,0,0,0,0,0,0,0,0,0,0.000,0,0,0.069,0.004,0.040,-0.040,-0.040,0.015,0.993,0.011,0.004,-0.002,-0.010,0.000,0.000,0.000,0.000,0,2,0,3,7,255,1440,200,0,0,-89.426,0.711,-31.224
EX0521-092111,15,C24,prep,2223,2223,0,802059.093,0.686,-0.676,0.194,0.187,0,0,0,0,0,0,0,0,0,0.000,0,0,0.110,0.004,-0.020,-0.040,-0.100,0.014,0.995,0.012,-0.004,-0.002,-0.010,0.000,0.000,0.000,0.000,0,2,0,3,7,255,1440,200,0,0,-89.426,0.711,-31.224
EX0521-092111,15,C24,prep,2223,2223,0,802064.091,0.686,-0.676,0.194,0.187,0,0,0,0,0,0,0,0,0,0.000,0,0,0.060,0.004,-0.020,-0.040,-0.040,0.015,0.994,0.012,0.004,-0.002,0.000,0.000,0.000,0.000,0.000,0,2,0,3,7,255,1440,200,0,0,-89.426,0.711,-31.224
EX0521-092111,15,C24,prep,2225,2225,0,802069.092,0.686,-0.676,0.194,0.187,0,0,0,0,0,0,0,0,0,0.000,0,0,0.060,0.004,0.040,-0.040,0.020,0.015,0.993,0.011,0.004,-0.002,0.000,0.000,0.000,0.000,0.000,0,2,0,3,7,255,1440,200,0,0,-89.426,0.711,-31.224
EX0521-092111,15,C24,prep,2225,2225,0,802074.093,0.686,-0.676,0.194,0.187,0,0,0,0,0,0,0,0,0,0.000,0,0,0.049,0.009,-0.020,0.020,-0.040,0.015,0.993,0.011,0.008,-0.004,-0.010,0.000,0.000,0.000,0.000,0,2,0,3,7,255,1440,200,0,0,-89.426,0.711,-31.224
EX0521-092111,15,C24,prep,2240,2240,0,802079.091,0.686,-0.676,0.194,0.187,0,0,0,0,0,0,0,0,0,0.000,0,0,0.110,0.008,-0.020,-0.040,-0.100,0.014,0.994,0.011,0.008,0.000,-0.010,0.000,0.000,0.000,0.000,0,2,0,3,7,255,1440,200,0,0,-89.426,0.711,-31.224
EX0521-092111,15,C24,prep,2240,2240,0,802084.092,0.686,-0.676,0.194,0.187,0,0,0,0,0,0,0,0,0,0.000,0,0,0.049,0.004,-0.020,0.020,-0.040,0.014,0.993,0.012,-0.002,-0.004,-0.010,0.000,0.000,0.000,0.000,0,2,0,3,7,255,1440,200,0,0,-89.426,0.711,-31.224
EX0521-092111,15,C24,prep,2240,2240,0,802089.091,0.686,-0.676,0.194,0.187,0,0,0,0,0,0,0,0,0,0.000,0,0,0.060,0.006,-0.020,-0.040,-0.040,0.014,0.994,0.011,-0.004,0.004,0.000,0.000,0.000,0.000,0.000,0,2,0,3,7,255,1440,200,0,0,-89.426,0.711,-31.224
EX0521-092111,15,C24,prep,2240,2240,0,802094.092,0.686,-0.676,0.194,0.187,0,0,0,0,0,0,0,0,0,0.000,0,0,0.069,0.006,0.040,-0.040,-0.040,0.015,0.994,0.012,-0.004,-0.004,0.000,0.000,0.000,0.000,0.000,0,2,0,3,7,255,1440,200,0,0,-89.426,0.711,-31.224
EX0521-092111,15,C24,prep,2255,2255,0,802099.092,0.686,-0.676,0.194,0.187,0,0,0,0,0,0,0,0,0,0.000,0,0,0.060,0.002,-0.020,-0.040,-0.040,0.015,0.993,0.011,-0.002,0.000,0.000,0.000,0.000,0.000,0.000,0,2,0,3,7,255,1440,200,0,0,-89.426,0.711,-31.224
EX0521-092111,15,C24,prep,2255,2255,0,802104.091,0.686,-0.676,0.194,0.187,0,0,0,0,0,0,0,0,0,0.000,0,0,0.069,0.002,0.040,-0.040,-0.040,0.013,0.992,0.012,-0.002,0.000,-0.010,0.000,0.000,0.000,0.000,0,2,0,3,7,255,1440,200,0,0,-89.426,0.711,-31.224
EX0521-092111,15,C24,prep,2287,2287,0,802109.092,0.686,-0.676,0.194,0.187,0,0,0,0,0,0,0,0,0,0.000,0,0,0.049,0.002,-0.020,0.020,-0.040,0.015,0.994,0.012,0.002,0.000,-0.010,0.000,0.000,0.000,0.000,0,2,0,3,7,255,1440,200,0,0,-89.426,0.711,-31.224
EX0521-092111,15,C24,prep,2287,2287,0,802114.092,0.686,-0.676,0.194,0.187,0,0,0,0,0,0,0,0,0,0.000,0,0,0.060,0.004,-0.020,-0.040,-0.040,0.014,0.993,0.011,0.002,0.004,-0.004,0.000,0.000,0.000,0.000,0,2,0,3,7,255,1440,200,0,0,-89.426,0.711,-31.224
EX0521-092111,15,C24,prep,2287,2287,0,802119.093,0.686,-0.676,0.194,0.187,0,0,0,0,0,0,0,0,0,0.000,0,0,0.110,0.003,-0.020,-0.040,-0.100,0.014,0.994,0.011,0.002,0.002,0.000,0.000,0.000,0.000,0.000,0,2,0,3,7,255,1440,200,0,0,-89.427,0.711,-31.224
EX0521-092111,15,C24,prep,2287,2287,0,802124.093,0.686,-0.676,0.194,0.187,0,0,0,0,0,0,0,0,0,0.000,0,0,0.049,0.003,-0.020,0.020,-0.040,0.015,0.994,0.011,0.002,0.002,0.000,0.000,0.000,0.000,0.000,0,2,0,3,7,255,1440,200,0,0,-89.427,0.711,-31.224
EX0521-092111,15,C24,prep,2287,2287,0,802129.091,0.686,-0.676,0.194,0.187,0,0,0,0,0,0,0,0,0,0.000,0,0,0.110,0.004,-0.020,-0.040,-0.100,0.015,0.994,0.011,0.004,0.002,0.000,0.000,0.000,0.000,0.000,0,2,0,3,7,255,1440,200,0,0,-89.427,0.711,-31.224
EX0521-092111,15,C24,prep,2287,2287,0,802134.092,0.686,-0.676,0.194,0.187,0,0,0,0,0,0,0,0,0,0.000,0,0,0.060,0.004,-0.020,-0.040,-0.040,0.014,0.993,0.012,0.004,-0.002,0.000,0.000,0.000,0.000,0.000,0,2,0,3,7,255,1440,200,0,0,-89.427,0.711,-31.224
EX0521-092111,15,C24,prep,2317,2317,0,802139.092,0.686,-0.676,0.194,0.187,0,0,0,0,0,0,0,0,0,0.000,0,0,0.060,0.002,0.040,-0.040,0.020,0.014,0.994,0.011,0.000,0.002,0.000,0.000,0.000,0.000,0.000,0,2,0,3,7,255,1440,200,0,0,-89.427,0.711,-31.224
EX0521-092111,15,C24,prep,2317,2317,0,802144.091,0.686,-0.676,0.194,0.187,0,0,0,0,0,0,0,0,0,0.000,0,0,0.115,0.004,0.040,-0.100,-0.040,0.013,0.992,0.011,-0.004,0.002,-0.004,0.000,0.000,0.000,0.000,0,2,0,3,7,255,1440,200,0,0,-89.427,0.711,-31.224
EX0521-092111,15,C24,prep,2317,2317,0,802149.092,0.686,-0.676,0.194,0.187,0,0,0,0,0,0,0,0,0,0.000,0,0,0.049,0.006,-0.020,-0.040,0.020,0.014,0.993,0.011,-0.004,0.004,-0.008,0.000,0.000,0.000,0.000,0,2,0,3,7,255,1440,200,0,0,-89.427,0.711,-31.224
EX0521-092111,15,C24,prep,2317,2317,0,802154.091,0.686,-0.676,0.194,0.187,0,0,0,0,0,0,0,0,0,0.000,0,0,0.069,0.010,0.040,-0.040,-0.040,0.013,0.993,0.011,-0.008,0.006,-0.008,0.000,0.000,0.000,0.000,0,2,0,3,7,255,1440,200,0,0,-89.427,0.711,-31.224
EX0521-092111,15,C24,prep,2317,2317,0,802159.093,0.686,-0.676,0.194,0.187,0,0,0,0,0,0,0,0,0,0.000,0,0,0.092,0.006,-0.080,-0.040,0.020,0.015,0.993,0.011,-0.004,0.004,-0.008,0.000,0.000,0.000,0.000,0,2,0,3,7,255,1440,200,0,0,-89.427,0.711,-31.224
EX0521-092111,15,C24,prep,2317,2317,0,802164.093,0.686,-0.676,0.194,0.187,0,0,0,0,0,0,0,0,0,0.000,0,0,0.035,0.009,-0.020,0.020,0.020,0.014,0.993,0.010,0.004,0.008,-0.008,0.000,0.000,0.000,0.000,0,2,0,3,7,255,1440,200,0,0,-89.427,0.711,-31.224
EX0521-092111,15,C24,prep,2317,2317,0,802169.091,0.686,-0.676,0.194,0.187,0,0,0,0,0,0,0,0,0,0.000,0,0,0.060,0.004,-0.020,-0.040,-0.040,0.015,0.994,0.012,0.004,0.000,-0.008,0.000,0.000,0.000,0.000,0,2,0,3,7,255,1440,200,0,0,-89.427,0.711,-31.224
EX0521-092111,15,C24,prep,2317,2317,0,802174.092,0.686,-0.676,0.194,0.187,0,0,0,0,0,0,0,0,0,0.000,0,0,0.115,0.009,0.040,-0.040,-0.100,0.015,0.993,0.012,0.004,-0.008,-0.008,0.000,0.000,0.000,0.000,0,2,0,3,7,255,1440,200,0,0,-89.427,0.711,-31.224
EX0521-092111,15,C24,prep,2348,2348,0,802179.091,0.686,-0.676,0.194,0.187,0,0,0,0,0,0,0,0,0,0.000,0,0,0.060,0.009,-0.020,-0.040,-0.040,0.015,0.994,0.012,0.004,-0.008,0.002,0.000,0.000,0.000,0.000,0,2,0,3,7,255,1440,200,0,0,-89.427,0.711,-31.224
EX0521-092111,15,C24,prep,2348,2348,0,802184.092,0.686,-0.676,0.194,0.187,0,0,0,0,0,0,0,0,0,0.000,0,0,0.110,0.013,-0.020,-0.100,-0.040,0.016,0.994,0.012,0.004,-0.012,0.002,0.000,0.000,0.000,0.000,0,2,0,3,7,255,1440,200,0,0,-89.427,0.711,-31.224
EX0521-092111,15,C24,prep,2348,2348,0,802189.092,0.686,-0.676,0.194,0.187,0,0,0,0,0,0,0,0,0,0.000,0,0,0.060,0.012,-0.020,-0.040,-0.040,0.014,0.993,0.011,0.002,-0.012,0.002,0.000,0.000,0.000,0.000,0,2,0,3,7,255,1440,200,0,0,-89.427,0.711,-31.224
EX0521-092111,15,C24,prep,2348,2348,0,802194.091,0.686,-0.676,0.194,0.187,0,0,0,0,0,0,0,0,0,0.000,0,0,0.049,0.002,-0.020,-0.040,0.020,0.014,0.993,0.011,0.000,0.002,-0.004,0.000,0.000,0.000,0.000,0,2,0,3,7,255,1440,200,0,0,-89.427,0.711,-31.224
EX0521-092111,15,C24,prep,2350,2350,0,802199.092,0.686,-0.676,0.194,0.187,0,0,0,0,0,0,0,0,0,0.000,0,0,0.060,0.004,0.040,0.020,-0.040,0.014,0.993,0.010,0.000,0.004,-0.004,0.000,0.000,0.000,0.000,0,2,0,3,7,255,1440,200,0,0,-89.427,0.711,-31.224
EX0521-092111,15,C24,prep,2350,2350,0,802204.091,0.686,-0.676,0.194,0.187,0,0,0,0,0,0,0,0,0,0.000,0,0,0.060,0.006,-0.020,-0.040,-0.040,0.014,0.994,0.011,0.000,0.006,-0.004,0.000,0.000,0.000,0.000,0,2,0,3,7,255,1440,200,0,0,-89.427,0.711,-31.224
EX0521-092111,15,C24,prep,2383,2383,0,802209.091,0.686,-0.676,0.194,0.187,0,0,0,0,0,0,0,0,0,0.000,0,0,0.060,0.006,0.040,0.020,-0.040,0.014,0.993,0.012,0.000,0.006,-0.004,0.000,0.000,0.000,0.000,0,2,0,3,7,255,1440,200,0,0,-89.427,0.711,-31.224
EX0521-092111,15,C24,prep,2383,2383,0,802214.092,0.686,-0.676,0.194,0.187,0,0,0,0,0,0,0,0,0,0.000,0,0,0.049,0.006,-0.020,0.020,-0.040,0.014,0.993,0.011,-0.004,0.004,-0.004,0.000,0.000,0.000,0.000,0,2,0,3,7,255,1440,200,0,0,-89.427,0.711,-31.224
EX0521-092111,15,C24,prep,2383,2383,0,802219.092,0.686,-0.676,0.194,0.187,0,0,0,0,0,0,0,0,0,0.000,0,0,0.104,0.004,-0.020,-0.100,0.020,0.015,0.993,0.011,-0.004,-0.002,-0.008,0.000,0.000,0.000,0.000,0,2,0,3,7,255,1440,200,0,0,-89.427,0.711,-31.224
EX0521-092111,15,C24,prep,2383,2383,0,802224.093,0.686,-0.676,0.194,0.187,0,0,0,0,0,0,0,0,0,0.000,0,0,0.060,0.006,0.040,-0.040,0.020,0.014,0.993,0.010,0.004,0.004,-0.008,0.000,0.000,0.000,0.000,0,2,0,3,7,255,1440,200,0,0,-89.427,0.711,-31.224
EX0521-092111,15,C24,prep,2383,2383,0,802229.092,0.686,-0.676,0.194,0.187,0,0,0,0,0,0,0,0,0,0.000,0,0,0.049,0.004,-0.020,0.020,-0.040,0.016,0.993,0.012,0.004,-0.002,-0.008,0.000,0.000,0.000,0.000,0,2,0,3,7,255,1440,200,0,0,-89.427,0.711,-31.224
EX0521-092111,15,C24,prep,2383,2383,0,802234.091,0.686,-0.676,0.194,0.187,0,0,0,0,0,0,0,0,0,0.000,0,0,0.098,0.006,-0.080,-0.040,-0.040,0.016,0.994,0.011,0.006,-0.002,-0.004,0.000,0.000,0.000,0.000,0,2,0,3,7,255,1440,200,0,0,-89.427,0.711,-31.224
EX0521-092111,15,C24,prep,2415,2415,0,802239.092,0.686,-0.676,0.194,0.187,0,0,0,0,0,0,0,0,0,0.000,0,0,0.060,0.012,-0.020,-0.040,-0.040,0.015,0.994,0.010,0.012,-0.002,0.002,0.000,0.000,0.000,0.000,0,2,0,3,7,255,1440,200,0,0,-89.427,0.711,-31.224
EX0521-092111,15,C24,prep,2415,2415,0,802244.091,0.686,-0.676,0.194,0.187,0,0,0,0,0,0,0,0,0,0.000,0,0,0.049,0.013,-0.020,-0.040,0.020,0.014,0.994,0.011,0.012,0.004,0.002,0.000,0.000,0.000,0.000,0,2,0,3,7,255,1440,200,0,0,-89.428,0.711,-31.224
EX0521-092111,15,C24,prep,2416,2416,0,802249.092,0.686,-0.676,0.194,0.187,0,0,0,0,0,0,0,0,0,0.000,0,0,0.060,0.007,-0.020,-0.040,-0.040,0.015,0.993,0.011,0.006,0.004,0.002,0.000,0.000,0.000,0.000,0,2,0,3,7,255,1440,200,0,0,-89.428,0.711,-31.224
EX0521-092111,15,C24,prep,2416,2416,0,802254.092,0.686,-0.676,0.194,0.187,0,0,0,0,0,0,0,0,0,0.000,0,0,0.110,0.006,-0.020,-0.100,-0.040,0.014,0.993,0.013,-0.006,0.002,-0.004,0.000,0.000,0.000,0.000,0,2,0,3,7,255,1440,200,0,0,-89.428,0.711,-31.224
EX0521-092111,15,C24,prep,2416,2416,0,802259.092,0.686,-0.676,0.194,0.187,0,0,0,0,0,0,0,0,0,0.000,0,0,0.060,0.004,-0.020,-0.040,-0.040,0.014,0.994,0.012,-0.004,-0.002,-0.004,0.000,0.000,0.000,0.000,0,2,0,3,7,255,1440,200,0,0,-89.428,0.711,-31.224
EX0521-092111,15,C24,prep,2416,2416,0,802264.092,0.686,-0.676,0.194,0.187,0,0,0,0,0,0,0,0,0,0.000,0,0,0.049,0.007,-0.020,0.020,-0.040,0.015,0.994,0.012,-0.004,-0.006,0.002,0.000,0.000,0.000,0.000,0,2,0,3,7,255,1440,200,0,0,-89.428,0.711,-31.224
EX0521-092111,15,C24,prep,2417,2417,0,802269.091,0.686,-0.676,0.194,0.187,0,0,0,0,0,0,0,0,0,0.000,0,0,0.060,0.002,-0.020,-0.040,-0.040,0.015,0.995,0.011,0.000,-0.002,0.002,0.000,0.000,0.000,0.000,0,2,0,3,7,255,1440,200,0,0,-89.428,0.711,-31.224
EX0521-092111,15,C24,prep,2417,2417,0,802274.092,0.686,-0.676,0.194,0.187,0,0,0,0,0,0,0,0,0,0.000,0,0,0.069,0.002,0.040,-0.040,-0.040,0.014,0.994,0.011,0.000,-0.002,0.006,0.000,0.000,0.000,0.000,0,2,0,3,7,255,1440,200,0,0,-89.428,0.711,-31.224
EX0521-092111,15,C24,prep,2431,2431,0,802279.092,0.686,-0.676,0.194,0.187,0,0,0,0,0,0,0,0,0,0.000,0,0,0.060,0.006,-0.020,-0.040,-0.040,0.014,0.994,0.012,-0.006,-0.002,0.006,0.000,0.000,0.000,0.000,0,2,0,3,7,255,1440,200,0,0,-89.428,0.711,-31.224
EX0521-092111,15,C24,prep,2431,2431,0,802284.091,0.686,-0.676,0.194,0.187,0,0,0,0,0,0,0,0,0,0.000,0,0,0.069,0.008,0.040,-0.040,-0.040,0.015,0.993,0.012,-0.006,-0.006,0.006,0.000,0.000,0.000,0.000,0,2,0,3,7,255,1440,200,0,0,-89.428,0.711,-31.224
EX0521-092111,15,C24,prep,2447,2447,0,802289.092,0.686,-0.676,0.194,0.187,0,0,0,0,0,0,0,0,0,0.000,0,0,0.115,0.006,0.040,-0.100,-0.040,0.015,0.994,0.011,0.002,-0.006,0.006,0.000,0.000,0.000,0.000,0,2,0,3,7,255,1440,200,0,0,-89.428,0.711,-31.224
EX0521-092111,15,C24,prep,2447,2447,0,802294.091,0.686,-0.676,0.194,0.187,0,0,0,0,0,0,0,0,0,0.000,0,0,0.049,0.004,-0.020,0.020,-0.040,0.014,0.994,0.012,0.002,-0.004,0.006,0.000,0.000,0.000,0.000,0,2,0,3,7,255,1440,200,0,0,-89.428,0.711,-31.224
EX0521-092111,15,C24,prep,2447,2447,0,802299.092,0.686,-0.676,0.194,0.187,0,0,0,0,0,0,0,0,0,0.000,0,0,0.060,0.004,-0.020,-0.040,-0.040,0.015,0.992,0.011,0.004,-0.002,0.006,0.000,0.000,0.000,0.000,0,2,0,3,7,255,1440,200,0,0,-89.428,0.711,-31.224
EX0521-092111,15,C24,prep,2447,2447,0,802304.092,0.686,-0.676,0.194,0.187,0,0,0,0,0,0,0,0,0,0.000,0,0,0.049,0.003,-0.020,0.020,-0.040,0.015,0.994,0.011,0.002,-0.002,0.002,0.000,0.000,0.000,0.000,0,2,0,3,7,255,1440,200,0,0,-89.428,0.711,-31.224
