experiment_id,condition_order_index,condition_id,condition_phase,condition_phase_elapsed_ms,condition_elapsed_ms,is_stimulation_on,t_ms,R_q0,R_q1,R_q2,R_q3,R_heel1,R_mid1,R_fore1,R_heel2,R_fore3,R_mid2,R_fore4,R_fore2,R_cadence,R_speed,R_steps,R_zupt,R_gyroNorm,R_accH,R_gyro_x,R_gyro_y,R_gyro_z,R_acc_x,R_acc_y,R_acc_z,R_nav_ax,R_nav_ay,R_nav_az,R_stepVel,R_stepVelj,R_stepDispRaw,R_stepDispZUPT,R_gaitEvent,R_motorMode,R_motorActive,R_motorAlignment,R_motorRegionMask,R_motorAmplitude,R_motorIntervalMs,R_motorDurationMs,R_motorPhaseMs,R_motorCycleMs,R_roll,R_pitch,R_yaw
EX0521-092111,8,C16,rest,6335,6335,0,566119.092,0.684,-0.677,0.194,0.188,0,0,0,0,0,0,0,0,0,0.000,0,0,0.075,0.004,0.060,-0.040,-0.020,0.016,0.995,0.012,-0.002,-0.004,0.004,0.000,0.000,0.000,0.000,0,2,0,2,7,255,1200,300,0,0,-89.580,0.613,-31.283
EX0521-092111,8,C16,rest,6335,6335,0,566124.092,0.684,-0.677,0.194,0.188,0,0,0,0,0,0,0,0,0,0.000,0,0,0.045,0.007,0.000,-0.040,-0.020,0.015,0.994,0.011,0.006,-0.004,0.004,0.000,0.000,0.000,0.000,0,2,0,2,7,255,1200,300,0,0,-89.580,0.613,-31.283
EX0521-092111,8,C16,rest,6335,6335,0,566129.092,0.684,-0.677,0.194,0.188,0,0,0,0,0,0,0,0,0,0.000,0,0,0.045,0.007,0.000,-0.040,-0.020,0.014,0.994,0.011,0.006,-0.004,0.000,0.000,0.000,0.000,0.000,0,2,0,2,7,255,1200,300,0,0,-89.580,0.613,-31.283
EX0521-092111,8,C16,rest,6335,6335,0,566134.092,0.684,-0.677,0.194,0.188,0,0,0,0,0,0,0,0,0,0.000,0,0,0.122,0.006,0.000,-0.120,-0.020,0.016,0.993,0.011,0.006,-0.002,-0.006,0.000,0.000,0.000,0.000,0,2,0,2,7,255,1200,300,0,0,-89.581,0.615,-31.283
EX0521-092111,8,C16,rest,6335,6335,0,566139.092,0.684,-0.677,0.194,0.188,0,0,0,0,0,0,0,0,0,0.000,0,0,0.066,0.002,0.060,0.020,-0.020,0.014,0.995,0.011,0.000,0.002,-0.006,0.000,0.000,0.000,0.000,0,2,0,2,7,255,1200,300,0,0,-89.581,0.615,-31.283
EX0521-092111,8,C16,rest,6335,6335,0,566144.094,0.684,-0.677,0.194,0.188,0,0,0,0,0,0,0,0,0,0.000,0,0,0.075,0.004,-0.060,-0.040,-0.020,0.015,0.995,0.012,0.004,-0.002,0.004,0.000,0.000,0.000,0.000,0,2,0,2,7,255,1200,300,0,0,-89.581,0.615,-31.283
EX0521-092111,8,C16,rest,6367,6367,0,566149.091,0.684,-0.677,0.194,0.188,0,0,0,0,0,0,0,0,0,0.000,0,0,0.045,0.003,0.000,-0.040,-0.020,0.014,0.995,0.011,-0.002,0.002,0.008,0.000,0.000,0.000,0.000,0,2,0,2,7,255,1200,300,0,0,-89.581,0.614,-31.283
EX0521-092111,8,C16,rest,6367,6367,0,566154.093,0.684,-0.677,0.194,0.188,0,0,0,0,0,0,0,0,0,0.000,0,0,0.045,0.007,0.000,-0.040,-0.020,0.016,0.995,0.011,0.004,-0.006,0.004,0.000,0.000,0.000,0.000,0,2,0,2,7,255,1200,300,0,0,-89.581,0.614,-31.283
EX0521-092111,8,C16,rest,6367,6367,0,566159.093,0.684,-0.677,0.194,0.188,0,0,0,0,0,0,0,0,0,0.000,0,0,0.063,0.004,0.000,-0.060,-0.020,0.015,0.994,0.012,0.000,-0.004,0.004,0.000,0.000,0.000,0.000,0,2,0,2,7,255,1200,300,0,0,-89.581,0.614,-31.283
EX0521-092111,8,C16,rest,6367,6367,0,566164.093,0.684,-0.677,0.194,0.188,0,0,0,0,0,0,0,0,0,0.000,0,0,0.128,0.007,-0.080,-0.060,-0.080,0.015,0.994,0.011,0.006,-0.004,-0.002,0.000,0.000,0.000,0.000,0,2,0,2,7,255,1200,300,0,0,-89.582,0.614,-31.283
EX0521-092111,8,C16,rest,6367,6367,0,566169.091,0.684,-0.677,0.194,0.188,0,0,0,0,0,0,0,0,0,0.000,0,0,0.102,0.004,-0.080,-0.060,-0.020,0.014,0.994,0.011,0.000,-0.004,-0.002,0.000,0.000,0.000,0.000,0,2,0,2,7,255,1200,300,0,0,-89.582,0.614,-31.283
EX0521-092111,8,C16,rest,6367,6367,0,566174.091,0.684,-0.677,0.194,0.188,0,0,0,0,0,0,0,0,0,0.000,0,0,0.063,0.004,0.000,-0.060,-0.020,0.016,0.995,0.013,0.002,-0.004,-0.002,0.000,0.000,0.000,0.000,0,2,0,2,7,255,1200,300,0,0,-89.577,0.614,-31.283
EX0521-092111,8,C16,rest,6399,6399,0,566179.091,0.684,-0.677,0.194,0.188,0,0,0,0,0,0,0,0,0,0.000,0,0,0.063,0.010,0.000,-0.060,-0.020,0.015,0.996,0.012,0.002,-0.010,0.008,0.000,0.000,0.000,0.000,0,2,0,2,7,255,1200,300,0,1500,-89.577,0.614,-31.283
EX0521-092111,8,C16,rest,6399,6399,0,566184.091,0.684,-0.677,0.194,0.188,0,0,0,0,0,0,0,0,0,0.000,0,0,0.102,0.010,-0.080,-0.060,-0.020,0.015,0.994,0.012,0.002,-0.010,0.008,0.000,0.000,0.000,0.000,0,2,0,2,7,255,1200,300,0,1500,-89.577,0.614,-31.283
EX0521-092111,8,C16,rest,6399,6399,0,566189.093,0.684,-0.677,0.194,0.188,0,0,0,0,0,0,0,0,0,0.000,0,0,0.082,0.010,-0.080,0.000,-0.020,0.015,0.995,0.011,0.002,-0.010,0.004,0.000,0.000,0.000,0.000,0,2,0,2,7,255,1200,300,0,1500,-89.577,0.614,-31.283
EX0521-092111,8,C16,rest,6399,6399,0,566194.092,0.684,-0.677,0.194,0.188,0,0,0,0,0,0,0,0,0,0.000,0,0,0.102,0.003,-0.080,-0.060,-0.020,0.014,0.995,0.011,0.002,-0.002,0.004,0.000,0.000,0.000,0.000,0,2,0,2,7,255,1200,300,0,1500,-89.578,0.614,-31.283
EX0521-092111,8,C16,rest,6399,6399,0,566199.091,0.684,-0.677,0.194,0.188,0,0,0,0,0,0,0,0,0,0.000,0,0,0.100,0.006,0.000,-0.060,-0.080,0.015,0.995,0.011,0.006,-0.002,0.004,0.000,0.000,0.000,0.000,0,2,0,2,7,255,1200,300,0,1500,-89.578,0.614,-31.283
EX0521-092111,8,C16,rest,6399,6399,0,566204.091,0.684,-0.677,0.194,0.188,0,0,0,0,0,0,0,0,0,0.000,0,0,0.020,0.003,0.000,0.000,-0.020,0.014,0.995,0.012,-0.002,-0.002,0.004,0.000,0.000,0.000,0.000,0,2,0,2,7,255,1200,300,0,1500,-89.578,0.614,-31.283
EX0521-092111,8,C16,rest,6416,6416,0,566209.091,0.684,-0.677,0.194,0.188,0,0,0,0,0,0,0,0,0,0.000,0,0,0.063,0.004,0.000,-0.060,-0.020,0.014,0.995,0.012,-0.004,-0.002,0.004,0.000,0.000,0.000,0.000,0,2,0,2,7,255,1200,300,0,1500,-89.578,0.614,-31.283
EX0521-092111,8,C16,rest,6416,6416,0,566214.092,0.684,-0.677,0.194,0.188,0,0,0,0,0,0,0,0,0,0.000,0,0,0.066,0.004,-0.060,0.020,-0.020,0.015,0.994,0.012,-0.004,-0.002,0.004,0.000,0.000,0.000,0.000,0,2,0,2,7,255,1200,300,2,1500,-89.578,0.614,-31.283
EX0521-092111,8,C16,rest,6416,6416,0,566219.093,0.684,-0.677,0.194,0.188,0,0,0,0,0,0,0,0,0,0.000,0,0,0.087,0.003,0.060,-0.060,-0.020,0.014,0.993,0.011,-0.002,-0.002,-0.006,0.000,0.000,0.000,0.000,0,2,0,2,7,255,1200,300,7,1500,-89.578,0.614,-31.283
EX0521-092111,8,C16,rest,6416,6416,0,566224.091,0.684,-0.677,0.194,0.188,0,0,0,0,0,0,0,0,0,0.000,0,0,0.100,0.003,0.000,-0.060,-0.080,0.016,0.995,0.010,-0.002,0.002,-0.006,0.000,0.000,0.000,0.000,0,2,0,2,7,255,1200,300,12,1500,-89.579,0.614,-31.283
EX0521-092111,8,C16,rest,6432,6432,0,566229.091,0.684,-0.677,0.194,0.188,0,0,0,0,0,0,0,0,0,0.000,0,0,0.063,0.003,0.000,-0.060,-0.020,0.014,0.996,0.011,-0.002,0.002,0.008,0.000,0.000,0.000,0.000,0,2,0,2,7,255,1200,300,17,1500,-89.579,0.614,-31.283
EX0521-092111,8,C16,rest,6432,6432,0,566234.091,0.684,-0.677,0.194,0.188,0,0,0,0,0,0,0,0,0,0.000,0,0,0.087,0.003,-0.060,-0.060,-0.020,0.015,0.995,0.011,0.002,0.002,0.008,0.000,0.000,0.000,0.000,0,2,0,2,7,255,1200,300,22,1500,-89.579,0.614,-31.283
EX0521-092111,8,C16,rest,6464,6464,0,566239.091,0.684,-0.677,0.194,0.188,0,0,0,0,0,0,0,0,0,0.000,0,0,0.063,0.002,0.000,-0.060,-0.020,0.015,0.994,0.011,0.002,0.000,0.008,0.000,0.000,0.000,0.000,0,2,0,2,7,255,1200,300,27,1500,-89.579,0.613,-31.283
EX0521-092111,8,C16,rest,6464,6464,0,566244.091,0.684,-0.677,0.194,0.188,0,0,0,0,0,0,0,0,0,0.000,0,0,0.100,0.002,0.000,-0.060,-0.080,0.013,0.995,0.011,0.002,0.000,0.008,0.000,0.000,0.000,0.000,0,2,0,2,7,255,1200,300,32,1500,-89.579,0.613,-31.283
EX0521-092111,8,C16,rest,6479,6479,0,566249.091,0.684,-0.677,0.194,0.188,0,0,0,0,0,0,0,0,0,0.000,0,0,0.063,0.002,0.000,-0.060,-0.020,0.015,0.994,0.011,0.002,0.000,-0.002,0.000,0.000,0.000,0.000,0,2,0,2,7,255,1200,300,37,1500,-89.579,0.613,-31.283
EX0521-092111,8,C16,rest,6479,6479,0,566254.092,0.684,-0.677,0.194,0.188,0,0,0,0,0,0,0,0,0,0.000,0,0,0.066,0.006,-0.060,0.020,-0.020,0.014,0.994,0.011,0.000,0.006,-0.002,0.000,0.000,0.000,0.000,0,2,0,2,7,255,1200,300,42,1500,-89.579,0.613,-31.283
EX0521-092111,8,C16,rest,6479,6479,0,566259.091,0.684,-0.677,0.194,0.188,0,0,0,0,0,0,0,0,0,0.000,0,0,0.185,0.006,-0.140,-0.120,-0.020,0.015,0.995,0.010,0.002,0.006,-0.002,0.000,0.000,0.000,0.000,0,2,0,2,7,255,1200,300,47,1500,-89.580,0.613,-31.283
EX0521-092111,8,C16,rest,6479,6479,0,566264.093,0.684,-0.677,0.194,0.188,0,0,0,0,0,0,0,0,0,0.000,0,0,0.322,0.006,0.060,-0.300,0.100,0.016,0.995,0.015,0.000,0.006,0.004,0.000,0.000,0.000,0.000,0,2,0,2,7,255,1200,300,52,1500,-89.573,0.615,-31.283
EX0521-092111,8,C16,rest,6479,6479,0,566269.091,0.684,-0.677,0.194,0.188,0,0,0,0,0,0,0,0,0,0.000,0,0,1.088,0.010,1.020,0.200,-0.320,0.017,0.989,0.009,0.006,0.008,0.004,0.000,0.000,0.000,0.000,0,2,0,2,7,255,1200,300,57,1500,-89.578,0.615,-31.283
EX0521-092111,8,C16,rest,6479,6479,0,566274.091,0.684,-0.677,0.194,0.188,0,0,0,0,0,0,0,0,0,0.000,0,0,1.413,0.013,-1.360,0.380,0.040,0.013,1.001,0.007,0.008,0.010,0.004,0.000,0.000,0.000,0.000,0,2,0,2,7,255,1200,300,62,1500,-89.572,0.615,-31.283
EX0521-092111,8,C16,rest,6479,6479,0,566279.091,0.685,-0.677,0.194,0.188,0,0,0,0,0,0,0,0,0,0.000,0,0,0.673,0.013,-0.380,-0.480,0.280,0.014,0.988,0.022,0.008,0.010,-0.048,0.000,0.000,0.000,0.000,0,2,0,2,7,255,1200,300,67,1500,-89.559,0.615,-31.283
EX0521-092111,8,C16,rest,6479,6479,0,566284.091,0.684,-0.677,0.194,0.188,0,0,0,0,0,0,0,0,0,0.000,0,0,6.398,0.049,5.980,0.500,-2.220,0.014,0.991,0.002,0.008,0.048,-0.036,0.000,0.000,0.000,0.000,0,2,0,2,7,255,1200,300,72,1500,-89.591,0.604,-31.283
EX0521-092111,8,C16,rest,6495,6495,0,566289.091,0.685,-0.677,0.194,0.188,0,0,0,0,0,0,0,0,0,0.000,0,0,7.163,0.033,-6.720,-0.540,2.420,0.011,1.011,0.012,-0.028,0.018,-0.036,0.000,0.000,0.000,0.000,0,2,0,2,7,255,1200,300,77,1500,-89.557,0.616,-31.283
EX0521-092111,8,C16,rest,6495,6495,0,566294.092,0.684,-0.677,0.194,0.188,0,0,0,0,0,0,0,0,0,0.000,0,0,5.100,0.025,4.700,0.020,-1.980,0.017,0.974,0.020,-0.018,0.018,-0.036,0.000,0.000,0.000,0.000,0,2,0,2,7,255,1200,300,82,1500,-89.577,0.607,-31.283
EX0521-092111,8,C16,rest,6512,6512,0,566299.091,0.685,-0.677,0.194,0.188,0,0,0,0,0,0,0,0,0,0.000,0,0,4.077,0.024,-3.420,-0.420,2.180,0.013,1.011,0.011,-0.018,0.016,0.162,0.000,0.000,0.000,0.000,0,2,0,2,7,255,1200,300,87,1500,-89.560,0.617,-31.282
EX0521-092111,8,C16,rest,6512,6512,0,566304.091,0.684,-0.677,0.194,0.188,0,0,0,0,0,0,0,0,0,0.000,0,0,5.163,0.021,3.960,1.600,-2.900,0.015,0.991,-0.013,-0.014,0.016,-0.032,0.000,0.000,0.000,0.000,0,2,0,2,7,255,1200,300,92,1500,-89.587,0.603,-31.275
EX0521-092111,8,C16,rest,6512,6512,0,566309.091,0.685,-0.677,0.194,0.188,0,0,0,0,0,0,0,0,0,0.000,0,0,6.987,0.021,-5.800,-2.360,3.100,0.016,0.971,0.052,-0.014,0.016,-0.032,0.000,0.000,0.000,0.000,0,2,0,2,7,255,1200,300,97,1500,-89.545,0.619,-31.286
EX0521-092111,8,C16,rest,6512,6512,0,566314.091,0.684,-0.677,0.193,0.188,0,0,0,0,0,0,0,0,0,0.000,0,0,10.989,0.064,8.660,4.960,-4.600,0.021,1.045,0.015,0.034,-0.054,-0.032,0.000,0.000,0.000,0.000,0,2,0,2,7,255,1200,300,102,1500,-89.586,0.596,-31.262
EX0521-092111,8,C16,rest,6512,6512,0,566319.091,0.684,-0.677,0.194,0.188,0,0,0,0,0,0,0,0,0,0.000,0,0,11.160,0.056,-4.100,-10.000,2.780,0.007,0.919,0.002,-0.014,-0.054,-0.228,0.000,0.000,0.000,0.000,0,2,0,2,7,255,1200,300,107,1500,-89.566,0.611,-31.312
EX0521-092111,8,C16,rest,6512,6512,0,566324.091,0.685,-0.677,0.194,0.188,0,0,0,0,0,0,0,0,0,0.000,0,0,4.942,0.111,-3.860,3.060,0.400,0.018,1.065,-0.018,0.034,0.106,0.502,0.000,0.000,0.000,0.000,0,2,0,2,7,255,1200,300,112,1500,-89.553,0.611,-31.296
EX0521-092111,8,C16,rest,6528,6528,0,566329.091,0.684,-0.678,0.194,0.188,0,0,0,0,0,0,0,0,0,0.000,0,0,12.083,0.300,10.800,3.740,-3.920,0.021,0.974,-0.046,0.180,0.240,-0.206,0.000,0.000,0.000,0.000,0,2,0,2,7,255,1200,300,117,1500,-89.623,0.592,-31.278
EX0521-092111,8,C16,rest,6528,6528,0,566334.092,0.685,-0.677,0.193,0.188,0,0,0,0,0,0,0,0,0,0.000,0,0,12.474,0.300,-11.060,2.580,5.160,0.011,0.974,0.171,0.180,0.240,-0.190,0.000,0.000,0.000,0.000,0,2,0,2,7,255,1200,300,122,1500,-89.518,0.618,-31.265
EX0521-092111,8,C16,rest,6559,6559,0,566339.092,0.684,-0.677,0.193,0.188,0,0,0,0,0,0,0,0,0,0.000,0,0,4.852,0.562,4.020,-0.300,-2.700,0.012,1.031,-0.125,0.350,0.440,-0.190,0.000,0.000,0.000,0.000,0,2,0,2,7,255,1200,300,127,1500,-89.573,0.604,-31.265
EX0521-092111,8,C16,rest,6559,6559,0,566344.092,0.685,-0.677,0.193,0.188,0,0,0,0,0,0,0,0,0,0.000,0,0,1.865,0.743,1.520,-1.080,0.040,0.017,0.936,0.087,-0.356,-0.652,-0.190,0.000,0.000,0.000,0.000,0,2,0,2,7,255,1200,300,132,1500,-89.559,0.605,-31.270
EX0521-092111,8,C16,rest,6559,6559,0,566349.092,0.685,-0.677,0.193,0.188,0,0,0,0,0,0,0,0,0,0.000,0,0,5.215,0.286,-2.700,4.280,1.260,0.005,1.048,0.040,-0.220,-0.182,0.352,0.000,0.000,0.000,0.000,0,2,0,2,7,255,1200,300,137,1500,-89.538,0.610,-31.249
EX0521-092111,8,C16,rest,6559,6559,0,566354.092,0.684,-0.677,0.194,0.188,0,0,0,0,0,0,0,0,0,0.000,0,0,5.872,0.286,0.420,-5.840,-0.440,0.017,0.976,-0.127,-0.220,-0.182,-0.192,0.000,0.000,0.000,0.000,0,2,0,2,7,255,1200,300,142,1500,-89.579,0.611,-31.278
EX0521-092111,8,C16,rest,6559,6559,0,566359.093,0.685,-0.677,0.194,0.188,0,0,0,0,0,0,0,0,0,0.000,0,0,2.473,0.286,-1.540,-1.880,0.460,0.017,0.992,0.112,-0.220,-0.182,-0.016,0.000,0.000,0.000,0.000,0,2,0,2,7,255,1200,300,147,1500,-89.539,0.612,-31.287
EX0521-092111,8,C16,rest,6559,6559,0,566364.093,0.684,-0.677,0.193,0.188,0,0,0,0,0,0,0,0,0,0.000,0,0,8.394,0.439,5.720,5.680,-2.340,0.023,1.030,-0.032,0.294,0.326,-0.016,0.000,0.000,0.000,0.000,0,2,0,2,7,255,1200,300,152,1500,-89.578,0.601,-31.259
EX0521-092111,8,C16,rest,6591,6591,0,566369.092,0.685,-0.677,0.193,0.188,0,0,0,0,0,0,0,0,0,0.000,0,0,6.136,0.477,-4.400,3.680,2.180,0.005,0.955,0.060,-0.320,-0.354,-0.016,0.000,0.000,0.000,0.000,0,2,0,2,7,255,1200,300,157,1500,-89.541,0.611,-31.240
EX0521-092111,8,C16,rest,6591,6591,0,566374.092,0.685,-0.677,0.193,0.188,0,0,0,0,0,0,0,0,0,0.000,0,0,0.620,0.212,0.480,-0.100,-0.380,0.012,1.015,-0.010,0.090,0.192,0.200,0.000,0.000,0.000,0.000,0,2,0,2,7,255,1200,300,162,1500,-89.557,0.611,-31.240
EX0521-092111,8,C16,rest,6591,6591,0,566379.092,0.685,-0.677,0.193,0.188,0,0,0,0,0,0,0,0,0,0.000,0,0,4.264,0.145,3.960,-0.360,-1.540,0.027,0.975,0.018,0.078,-0.122,-0.188,0.000,0.000,0.000,0.000,0,2,0,2,7,255,1200,300,167,1500,-89.574,0.605,-31.241
EX0521-092111,8,C16,rest,6591,6591,0,566384.092,0.685,-0.677,0.193,0.188,0,0,0,0,0,0,0,0,0,0.000,0,0,5.077,0.110,-4.640,0.500,2.000,0.000,0.998,0.030,0.078,-0.078,0.036,0.000,0.000,0.000,0.000,0,2,0,2,7,255,1200,300,172,1500,-89.544,0.614,-31.240
EX0521-092111,8,C16,rest,6591,6591,0,566389.092,0.685,-0.677,0.193,0.188,0,0,0,0,0,0,0,0,0,0.000,0,0,4.397,0.110,2.800,-3.220,-1.060,0.014,0.995,-0.034,0.078,-0.078,0.002,0.000,0.000,0.000,0.000,0,2,0,2,7,255,1200,300,177,1500,-89.571,0.608,-31.257
EX0521-092111,8,C16,rest,6591,6591,0,566394.092,0.685,-0.677,0.193,0.188,0,0,0,0,0,0,0,0,0,0.000,0,0,2.227,0.085,-1.160,-1.880,0.280,0.023,0.982,0.019,0.034,-0.078,0.002,0.000,0.000,0.000,0.000,0,2,0,2,7,255,1200,300,182,1500,-89.562,0.609,-31.266
EX0521-092111,8,C16,rest,6608,6608,0,566399.092,0.685,-0.677,0.193,0.188,0,0,0,0,0,0,0,0,0,0.000,0,0,2.134,0.040,-0.680,2.020,0.100,0.007,1.022,0.019,0.034,-0.022,0.002,0.000,0.000,0.000,0.000,0,2,0,2,7,255,1200,300,187,1500,-89.555,0.609,-31.256
EX0521-092111,8,C16,rest,6608,6608,0,566404.092,0.685,-0.677,0.193,0.188,0,0,0,0,0,0,0,0,0,0.000,0,0,2.828,0.040,0.900,-2.680,-0.080,0.016,0.979,0.002,0.034,-0.022,-0.122,0.000,0.000,0.000,0.000,0,2,0,2,7,255,1200,300,192,1500,-89.562,0.610,-31.269
EX0521-092111,8,C16,rest,6608,6608,0,566409.092,0.685,-0.677,0.193,0.188,0,0,0,0,0,0,0,0,0,0.000,0,0,1.694,0.062,-1.600,0.200,0.520,0.025,0.998,0.014,0.058,-0.022,0.032,0.000,0.000,0.000,0.000,0,2,0,2,7,255,1200,300,197,1500,-89.552,0.611,-31.269
EX0521-092111,8,C16,rest,6608,6608,0,566414.092,0.685,-0.677,0.193,0.188,0,0,0,0,0,0,0,0,0,0.000,0,0,1.245,0.089,0.540,-1.100,-0.220,-0.001,1.000,0.008,0.058,0.068,0.032,0.000,0.000,0.000,0.000,0,2,0,2,7,255,1200,300,202,1500,-89.552,0.610,-31.275
EX0521-092111,8,C16,rest,6627,6627,0,566419.092,0.685,-0.677,0.194,0.188,0,0,0,0,0,0,0,0,0,0.000,0,0,1.607,0.076,-0.680,-1.400,0.400,0.026,0.984,0.006,0.074,-0.018,0.032,0.000,0.000,0.000,0.000,0,2,0,2,7,255,1200,300,207,1500,-89.549,0.612,-31.282
EX0521-092111,8,C16,rest,6627,6627,0,566424.092,0.685,-0.677,0.194,0.188,0,0,0,0,0,0,0,0,0,0.000,0,0,1.045,0.089,-0.020,-1.040,-0.100,0.005,1.006,0.010,-0.064,0.062,0.048,0.000,0.000,0.000,0.000,0,2,0,2,7,255,1200,300,212,1500,-89.549,0.611,-31.287
EX0521-092111,8,C16,rest,6627,6627,0,566429.092,0.685,-0.677,0.194,0.188,0,0,0,0,0,0,0,0,0,0.000,0,0,1.197,0.037,-0.680,-0.960,0.220,0.018,0.985,0.012,0.032,-0.018,-0.094,0.000,0.000,0.000,0.000,0,2,0,2,7,255,1200,300,217,1500,-89.546,0.612,-31.292
EX0521-092111,8,C16,rest,6627,6627,0,566434.092,0.685,-0.677,0.194,0.188,0,0,0,0,0,0,0,0,0,0.000,0,0,0.723,0.023,0.060,-0.720,-0.020,0.013,1.000,0.014,-0.022,-0.008,0.058,0.000,0.000,0.000,0.000,0,2,0,2,7,255,1200,300,222,1500,-89.541,0.612,-31.295
EX0521-092111,8,C16,rest,6639,6639,0,566439.092,0.685,-0.677,0.194,0.188,0,0,0,0,0,0,0,0,0,0.000,0,0,1.372,0.019,0.360,1.280,-0.340,0.015,0.993,0.014,-0.006,-0.018,-0.018,0.000,0.000,0.000,0.000,0,2,0,2,7,255,1200,300,227,1500,-89.539,0.612,-31.289
EX0521-092111,8,C16,rest,6639,6639,0,566444.092,0.685,-0.677,0.194,0.188,0,0,0,0,0,0,0,0,0,0.000,0,0,0.287,0.010,0.120,0.260,-0.020,0.014,0.994,0.009,-0.006,-0.008,-0.004,0.000,0.000,0.000,0.000,0,2,0,2,7,255,1200,300,232,1500,-89.539,0.612,-31.289
EX0521-092111,8,C16,rest,6665,6665,0,566449.092,0.685,-0.677,0.194,0.188,0,0,0,0,0,0,0,0,0,0.000,0,0,0.626,0.019,0.300,-0.540,-0.100,0.011,0.996,0.016,-0.006,-0.018,-0.004,0.000,0.000,0.000,0.000,0,2,0,2,7,255,1200,300,237,1500,-89.532,0.612,-31.289
EX0521-092111,8,C16,rest,6665,6665,0,566454.092,0.685,-0.677,0.194,0.188,0,0,0,0,0,0,0,0,0,0.000,0,0,0.731,0.025,-0.080,-0.720,0.100,0.020,0.992,0.004,0.008,0.024,-0.004,0.000,0.000,0.000,0.000,0,2,0,2,7,255,1200,300,242,1500,-89.532,0.614,-31.292
EX0521-092111,8,C16,rest,6671,6671,0,566459.092,0.685,-0.677,0.194,0.188,0,0,0,0,0,0,0,0,0,0.000,0,0,0.380,0.004,0.120,-0.360,-0.020,0.015,0.996,0.012,0.004,0.000,0.010,0.000,0.000,0.000,0.000,0,2,0,2,7,255,1200,300,247,1500,-89.533,0.614,-31.292
EX0521-092111,8,C16,rest,6671,6671,0,566464.093,0.685,-0.677,0.194,0.188,0,0,0,0,0,0,0,0,0,0.000,0,0,0.793,0.004,-0.140,-0.780,0.040,0.016,0.993,0.014,0.004,0.000,-0.014,0.000,0.000,0.000,0.000,0,2,0,2,7,255,1200,300,252,1500,-89.528,0.615,-31.296
EX0521-092111,8,C16,rest,6671,6671,0,566469.092,0.685,-0.677,0.194,0.188,0,0,0,0,0,0,0,0,0,0.000,0,0,0.506,0.004,-0.140,-0.480,-0.080,0.014,0.996,0.006,0.004,0.000,0.010,0.000,0.000,0.000,0.000,0,2,0,2,7,255,1200,300,257,1500,-89.528,0.615,-31.296
EX0521-092111,8,C16,rest,6671,6671,0,566474.092,0.685,-0.677,0.194,0.188,0,0,0,0,0,0,0,0,0,0.000,0,0,0.585,0.012,-0.320,-0.480,0.100,0.014,0.991,0.011,0.006,0.010,-0.014,0.000,0.000,0.000,0.000,0,2,0,2,7,255,1200,300,262,1500,-89.528,0.615,-31.296
EX0521-092111,8,C16,rest,6694,6694,0,566479.092,0.685,-0.677,0.194,0.188,0,0,0,0,0,0,0,0,0,0.000,0,0,0.154,0.012,0.060,0.140,-0.020,0.014,0.997,0.017,0.006,0.010,0.010,0.000,0.000,0.000,0.000,0,2,0,2,7,255,1200,300,267,1500,-89.521,0.615,-31.296
EX0521-092111,8,C16,rest,6694,6694,0,566484.092,0.685,-0.677,0.194,0.188,0,0,0,0,0,0,0,0,0,0.000,0,0,0.640,0.012,-0.200,-0.600,0.100,0.016,0.993,0.004,0.006,0.010,-0.018,0.000,0.000,0.000,0.000,0,2,0,2,7,255,1200,300,272,1500,-89.521,0.617,-31.299
EX0521-092111,8,C16,rest,6694,6694,0,566489.092,0.685,-0.677,0.194,0.188,0,0,0,0,0,0,0,0,0,0.000,0,0,0.102,0.045,-0.060,0.080,-0.020,0.017,0.995,0.008,0.042,0.016,0.000,0.000,0.000,0.000,0.000,0,2,0,2,7,255,1200,300,277,1500,-89.521,0.619,-31.299
EX0521-092111,8,C16,rest,6694,6694,0,566494.092,0.685,-0.677,0.194,0.188,0,0,0,0,0,0,0,0,0,0.000,0,0,0.128,0.045,0.060,0.080,-0.080,0.014,0.994,0.011,0.042,0.016,-0.004,0.000,0.000,0.000,0.000,0,2,0,2,7,255,1200,300,282,1500,-89.521,0.619,-31.299
EX0521-092111,8,C16,rest,6694,6694,0,566499.092,0.685,-0.677,0.194,0.188,0,0,0,0,0,0,0,0,0,0.000,0,0,0.172,0.024,0.060,0.140,-0.080,0.015,0.996,0.009,0.018,0.016,0.000,0.000,0.000,0.000,0.000,0,2,0,2,7,255,1200,300,287,1500,-89.521,0.618,-31.299
EX0521-092111,8,C16,rest,6694,6694,0,566504.092,0.685,-0.677,0.194,0.188,0,0,0,0,0,0,0,0,0,0.000,0,0,0.310,0.026,0.240,-0.180,-0.080,0.015,0.994,0.009,0.016,0.020,-0.004,0.000,0.000,0.000,0.000,0,2,0,2,7,255,1200,300,292,1500,-89.521,0.618,-31.299
EX0521-092111,8,C16,rest,6730,6730,0,566509.092,0.685,-0.677,0.194,0.188,0,0,0,0,0,0,0,0,0,0.000,0,0,0.087,0.026,0.060,-0.060,-0.020,0.014,0.994,0.016,0.016,0.020,-0.008,0.000,0.000,0.000,0.000,0,2,0,2,7,255,1200,300,297,1500,-89.515,0.618,-31.299
EX0521-092111,8,C16,rest,6730,6730,0,566514.092,0.685,-0.677,0.194,0.188,0,0,0,0,0,0,0,0,0,0.000,0,0,0.522,0.036,-0.200,-0.480,0.040,0.013,0.995,0.019,-0.020,-0.030,-0.008,0.000,0.000,0.000,0.000,0,2,0,2,7,255,1200,300,302,1500,-89.505,0.618,-31.299
EX0521-092111,8,C16,rest,6730,6730,0,566519.092,0.685,-0.677,0.194,0.188,0,0,0,0,0,0,0,0,0,0.000,0,0,0.967,0.036,-0.060,-0.960,0.100,0.015,0.994,0.014,-0.020,-0.030,-0.004,0.000,0.000,0.000,0.000,0,2,0,2,7,255,1200,300,307,1500,-89.504,0.618,-31.304
EX0521-092111,8,C16,rest,6730,6730,0,566524.092,0.685,-0.677,0.194,0.188,0,0,0,0,0,0,0,0,0,0.000,0,0,0.268,0.013,-0.060,0.260,-0.020,0.013,0.995,0.010,-0.004,-0.012,0.000,0.000,0.000,0.000,0.000,0,2,0,2,7,255,1200,300,312,1500,-89.504,0.618,-31.304
EX0521-092111,8,C16,rest,6730,6730,0,566529.092,0.685,-0.677,0.194,0.188,0,0,0,0,0,0,0,0,0,0.000,0,0,0.286,0.030,-0.200,0.200,0.040,0.013,0.996,0.008,-0.002,0.030,0.000,0.000,0.000,0.000,0.000,0,2,0,2,7,255,1200,300,317,1500,-89.504,0.618,-31.304
EX0521-092111,8,C16,rest,6730,6730,0,566534.092,0.685,-0.677,0.194,0.188,0,0,0,0,0,0,0,0,0,0.000,0,0,0.251,0.032,-0.060,-0.240,0.040,0.015,0.994,0.009,0.010,0.030,0.000,0.000,0.000,0.000,0.000,0,2,0,2,7,255,1200,300,322,1500,-89.504,0.618,-31.304
EX0521-092111,8,C16,rest,6768,6768,0,566539.092,0.685,-0.677,0.194,0.188,0,0,0,0,0,0,0,0,0,0.000,0,0,0.270,0.022,-0.260,-0.060,0.040,0.014,0.994,0.010,0.010,0.020,-0.008,0.000,0.000,0.000,0.000,0,2,0,2,7,255,1200,300,327,1500,-89.505,0.618,-31.304
EX0521-092111,8,C16,rest,6768,6768,0,566544.092,0.685,-0.677,0.194,0.188,0,0,0,0,0,0,0,0,0,0.000,0,0,0.247,0.018,-0.140,0.200,0.040,0.015,0.993,0.011,0.008,0.016,-0.008,0.000,0.000,0.000,0.000,0,2,0,2,7,255,1200,300,332,1500,-89.505,0.618,-31.304
EX0521-092111,8,C16,rest,6768,6768,0,566549.092,0.685,-0.677,0.194,0.188,0,0,0,0,0,0,0,0,0,0.000,0,0,0.245,0.010,-0.200,0.140,-0.020,0.014,0.995,0.012,0.008,0.006,-0.008,0.000,0.000,0.000,0.000,0,2,0,2,7,255,1200,300,337,1500,-89.505,0.618,-31.304
EX0521-092111,8,C16,rest,6768,6768,0,566554.092,0.685,-0.677,0.194,0.188,0,0,0,0,0,0,0,0,0,0.000,0,0,0.075,0.004,0.060,0.020,0.040,0.014,0.994,0.012,0.000,0.004,-0.004,0.000,0.000,0.000,0.000,0,2,0,2,7,255,1200,300,342,1500,-89.505,0.618,-31.304
EX0521-092111,8,C16,rest,6768,6768,0,566559.092,0.685,-0.677,0.194,0.188,0,0,0,0,0,0,0,0,0,0.000,0,0,0.117,0.004,0.060,-0.060,-0.080,0.015,0.995,0.011,0.000,0.004,0.006,0.000,0.000,0.000,0.000,0,2,0,2,7,255,1200,300,347,1500,-89.505,0.618,-31.304
EX0521-092111,8,C16,rest,6768,6768,0,566564.093,0.685,-0.677,0.194,0.188,0,0,0,0,0,0,0,0,0,0.000,0,0,0.087,0.010,0.060,-0.060,-0.020,0.015,0.993,0.010,0.008,0.006,-0.004,0.000,0.000,0.000,0.000,0,2,0,2,7,255,1200,300,352,1500,-89.505,0.618,-31.304
EX0521-092111,8,C16,rest,6799,6799,0,566569.091,0.685,-0.677,0.194,0.188,0,0,0,0,0,0,0,0,0,0.000,0,0,0.217,0.020,0.120,-0.180,-0.020,0.016,0.995,0.010,0.014,0.014,0.006,0.000,0.000,0.000,0.000,0,2,0,2,7,255,1200,300,357,1500,-89.506,0.618,-31.304
EX0521-092111,8,C16,rest,6799,6799,0,566574.091,0.685,-0.677,0.194,0.188,0,0,0,0,0,0,0,0,0,0.000,0,0,0.117,0.020,0.060,-0.060,-0.080,0.015,0.995,0.012,0.014,0.014,0.006,0.000,0.000,0.000,0.000,0,2,0,2,7,255,1200,300,362,1500,-89.506,0.618,-31.304
EX0521-092111,8,C16,rest,6799,6799,0,566579.091,0.685,-0.677,0.194,0.188,0,0,0,0,0,0,0,0,0,0.000,0,0,0.146,0.007,0.120,0.020,-0.080,0.014,0.996,0.013,0.006,-0.004,0.006,0.000,0.000,0.000,0.000,0,2,0,2,7,255,1200,300,367,1500,-89.506,0.618,-31.304
EX0521-092111,8,C16,rest,6799,6799,0,566584.091,0.685,-0.677,0.194,0.188,0,0,0,0,0,0,0,0,0,0.000,0,0,0.146,0.004,0.120,0.080,-0.020,0.014,0.995,0.011,0.002,-0.004,0.006,0.000,0.000,0.000,0.000,0,2,0,2,7,255,1200,300,372,1500,-89.506,0.618,-31.304
EX0521-092111,8,C16,rest,6799,6799,0,566589.091,0.685,-0.677,0.194,0.188,0,0,0,0,0,0,0,0,0,0.000,0,0,0.075,0.014,0.060,0.020,0.040,0.014,0.995,0.009,0.002,0.014,0.006,0.000,0.000,0.000,0.000,0,2,0,2,7,255,1200,300,377,1500,-89.506,0.618,-31.304
EX0521-092111,8,C16,rest,6799,6799,0,566594.092,0.685,-0.677,0.194,0.188,0,0,0,0,0,0,0,0,0,0.000,0,0,0.063,0.018,0.000,-0.060,-0.020,0.016,0.994,0.010,0.012,0.014,0.000,0.000,0.000,0.000,0.000,0,2,0,2,7,255,1200,300,382,1500,-89.506,0.618,-31.304
EX0521-092111,8,C16,rest,6799,6799,0,566599.091,0.685,-0.677,0.194,0.188,0,0,0,0,0,0,0,0,0,0.000,0,0,0.136,0.018,0.060,-0.120,-0.020,0.015,0.994,0.010,0.012,0.014,-0.004,0.000,0.000,0.000,0.000,0,2,0,2,7,255,1200,300,387,1500,-89.506,0.617,-31.304
EX0521-092111,8,C16,rest,6799,6799,0,566604.091,0.685,-0.677,0.194,0.188,0,0,0,0,0,0,0,0,0,0.000,0,0,0.122,0.022,0.000,-0.120,-0.020,0.016,0.993,0.010,0.020,0.008,-0.008,0.000,0.000,0.000,0.000,0,2,0,2,7,255,1200,300,392,1500,-89.507,0.619,-31.304
EX0521-092111,8,C16,rest,6816,6816,0,566609.091,0.685,-0.677,0.194,0.188,0,0,0,0,0,0,0,0,0,0.000,0,0,0.175,0.020,-0.060,-0.160,0.040,0.016,0.994,0.010,0.018,0.008,-0.008,0.000,0.000,0.000,0.000,0,2,0,2,7,255,1200,300,397,1500,-89.507,0.619,-31.304
EX0521-092111,8,C16,rest,6816,6816,0,566614.091,0.685,-0.677,0.194,0.188,0,0,0,0,0,0,0,0,0,0.000,0,0,0.133,0.020,-0.120,-0.040,0.040,0.014,0.995,0.011,0.018,0.008,-0.008,0.000,0.000,0.000,0.000,0,2,0,2,7,255,1200,300,402,1500,-89.507,0.619,-31.304
EX0521-092111,8,C16,rest,6816,6816,0,566619.091,0.685,-0.677,0.194,0.188,0,0,0,0,0,0,0,0,0,0.000,0,0,0.045,0.008,0.000,-0.040,-0.020,0.015,0.995,0.013,0.002,0.008,0.006,0.000,0.000,0.000,0.000,0,2,0,2,7,255,1200,300,407,1500,-89.507,0.619,-31.304
EX0521-092111,8,C16,rest,6816,6816,0,566624.091,0.685,-0.677,0.194,0.188,0,0,0,0,0,0,0,0,0,0.000,0,0,0.028,0.008,0.000,0.020,-0.020,0.015,0.995,0.013,-0.002,-0.008,0.006,0.000,0.000,0.000,0.000,0,2,0,2,7,255,1200,300,412,1500,-89.507,0.619,-31.304
EX0521-092111,8,C16,rest,6831,6831,0,566629.091,0.685,-0.677,0.194,0.188,0,0,0,0,1,0,0,0,0,0.000,0,0,0.102,0.008,0.060,0.020,-0.080,0.014,0.996,0.011,-0.002,-0.008,0.006,0.000,0.000,0.000,0.000,0,2,0,2,7,255,1200,300,417,1500,-89.507,0.619,-31.304
EX0521-092111,8,C16,rest,6831,6831,0,566634.091,0.685,-0.677,0.194,0.188,0,0,0,0,0,0,0,0,0,0.000,0,0,0.066,0.014,0.060,0.020,-0.020,0.014,0.995,0.010,0.000,0.014,0.002,0.000,0.000,0.000,0.000,0,2,0,2,7,255,1200,300,422,1500,-89.508,0.619,-31.304
EX0521-092111,8,C16,rest,6864,6864,0,566639.091,0.685,-0.677,0.194,0.188,0,0,0,0,0,0,0,0,0,0.000,0,0,0.157,0.014,0.120,-0.100,-0.020,0.014,0.995,0.011,0.000,0.014,0.002,0.000,0.000,0.000,0.000,0,2,0,2,7,255,1200,300,427,1500,-89.508,0.619,-31.304
EX0521-092111,8,C16,rest,6864,6864,0,566644.091,0.685,-0.677,0.194,0.188,0,0,0,0,0,0,0,0,0,0.000,0,0,0.082,0.014,-0.060,-0.040,0.040,0.014,0.995,0.011,0.000,0.014,0.000,0.000,0.000,0.000,0.000,0,2,0,2,7,255,1200,300,432,1500,-89.508,0.619,-31.304
EX0521-092111,8,C16,rest,6864,6864,0,566649.091,0.685,-0.677,0.194,0.188,0,0,0,0,0,0,0,0,0,0.000,0,0,0.082,0.014,-0.060,-0.040,0.040,0.014,0.995,0.011,0.000,0.014,0.000,0.000,0.000,0.000,0.000,0,2,0,2,7,255,1200,300,437,1500,-89.508,0.618,-31.304
EX0521-092111,8,C16,rest,6864,6864,0,566654.092,0.685,-0.677,0.194,0.188,0,0,0,0,0,0,0,0,0,0.000,0,0,0.057,0.011,0.000,-0.040,0.040,0.015,0.995,0.011,0.004,0.010,0.002,0.000,0.000,0.000,0.000,0,2,0,2,7,255,1200,300,442,1500,-89.508,0.618,-31.304
EX0521-092111,8,C16,rest,6864,6864,0,566659.091,0.685,-0.677,0.194,0.188,0,0,0,0,0,0,0,0,0,0.000,0,0,0.082,0.011,-0.060,-0.040,0.040,0.016,0.995,0.010,0.008,0.008,0.006,0.000,0.000,0.000,0.000,0,2,0,2,7,255,1200,300,447,1500,-89.508,0.618,-31.304
EX0521-092111,8,C16,rest,6864,6864,0,566664.093,0.685,-0.677,0.194,0.188,0,0,0,0,0,0,0,0,0,0.000,0,0,0.082,0.016,-0.060,-0.040,0.040,0.015,0.993,0.010,0.014,0.008,0.002,0.000,0.000,0.000,0.000,0,2,0,2,7,255,1200,300,452,1500,-89.508,0.618,-31.304
EX0521-092111,8,C16,rest,6881,6881,0,566669.091,0.685,-0.677,0.194,0.188,0,0,0,0,0,0,0,0,0,0.000,0,0,0.136,0.016,-0.060,-0.120,-0.020,0.015,0.993,0.011,0.014,0.008,-0.014,0.000,0.000,0.000,0.000,0,2,0,2,7,255,1200,300,457,1500,-89.509,0.618,-31.304
EX0521-092111,8,C16,rest,6881,6881,0,566674.091,0.685,-0.677,0.194,0.188,0,0,0,0,0,0,0,0,0,0.000,0,0,0.075,0.011,-0.060,-0.040,-0.020,0.015,0.993,0.012,0.008,0.008,-0.014,0.000,0.000,0.000,0.000,0,2,0,2,7,255,1200,300,462,1500,-89.509,0.618,-31.304
EX0521-092111,8,C16,rest,6881,6881,0,566679.091,0.685,-0.677,0.194,0.188,0,0,0,0,0,0,0,0,0,0.000,0,0,0.028,0.007,0.000,0.020,-0.020,0.015,0.994,0.011,0.006,0.004,-0.012,0.000,0.000,0.000,0.000,0,2,0,2,7,255,1200,300,467,1500,-89.509,0.618,-31.304
EX0521-092111,8,C16,rest,6881,6881,0,566684.091,0.685,-0.677,0.194,0.188,0,0,0,0,0,0,0,0,0,0.000,0,0,0.066,0.006,-0.060,0.020,-0.020,0.015,0.994,0.011,0.004,0.004,-0.008,0.000,0.000,0.000,0.000,0,2,0,2,7,255,1200,300,472,1500,-89.509,0.618,-31.304
EX0521-092111,8,C16,rest,6895,6895,0,566689.091,0.685,-0.677,0.194,0.188,0,0,0,0,0,0,0,0,0,0.000,0,0,0.045,0.006,0.000,-0.040,-0.020,0.014,0.995,0.012,0.004,0.004,-0.004,0.000,0.000,0.000,0.000,0,2,0,2,7,255,1200,300,477,1500,-89.509,0.618,-31.304
EX0521-092111,8,C16,rest,6895,6895,0,566694.092,0.685,-0.677,0.194,0.188,0,0,0,0,0,0,0,0,0,0.000,0,0,0.045,0.000,0.000,-0.040,-0.020,0.015,0.994,0.012,0.000,0.000,-0.004,0.000,0.000,0.000,0.000,0,2,0,2,7,255,1200,300,482,1500,-89.509,0.618,-31.304
EX0521-092111,8,C16,rest,6895,6895,0,566699.091,0.685,-0.677,0.194,0.188,0,0,0,0,0,0,0,0,0,0.000,0,0,0.028,0.004,0.000,0.020,-0.020,0.015,0.994,0.012,0.000,-0.004,-0.004,0.000,0.000,0.000,0.000,0,2,0,2,7,255,1200,300,487,1500,-89.509,0.618,-31.304
EX0521-092111,8,C16,rest,6895,6895,0,566704.091,0.685,-0.677,0.194,0.188,0,0,0,0,0,0,0,0,0,0.000,0,0,0.150,0.004,0.120,-0.040,-0.080,0.014,0.995,0.012,0.000,-0.004,-0.004,0.000,0.000,0.000,0.000,0,2,0,2,7,255,1200,300,492,1500,-89.510,0.618,-31.304
EX0521-092111,8,C16,rest,6911,6911,0,566709.091,0.685,-0.677,0.194,0.188,0,0,0,0,0,0,0,0,0,0.000,0,0,0.128,0.002,0.120,-0.040,-0.020,0.015,0.996,0.010,0.000,0.002,0.002,0.000,0.000,0.000,0.000,0,2,0,2,7,255,1200,300,497,1500,-89.510,0.618,-31.304
EX0521-092111,8,C16,rest,6911,6911,0,566714.091,0.685,-0.677,0.194,0.188,0,0,0,0,0,0,0,0,0,0.000,0,0,0.075,0.014,0.060,-0.040,-0.020,0.013,0.995,0.011,-0.002,0.014,0.006,0.000,0.000,0.000,0.000,0,2,0,2,7,255,1200,300,502,1500,-89.510,0.618,-31.304
EX0521-092111,8,C16,rest,6928,6928,0,566719.091,0.685,-0.677,0.194,0.188,0,0,0,0,0,0,0,0,0,0.000,0,0,0.045,0.015,0.000,-0.040,-0.020,0.014,0.993,0.011,0.004,0.014,0.006,0.000,0.000,0.000,0.000,0,2,0,2,7,255,1200,300,507,1500,-89.510,0.618,-31.304
EX0521-092111,8,C16,rest,6928,6928,0,566724.091,0.685,-0.677,0.194,0.188,0,0,0,0,0,0,0,0,0,0.000,0,0,0.082,0.015,0.060,-0.040,0.040,0.014,0.994,0.010,0.004,0.014,-0.008,0.000,0.000,0.000,0.000,0,2,0,2,7,255,1200,300,512,1500,-89.510,0.618,-31.304
EX0521-092111,8,C16,rest,6928,6928,0,566729.091,0.685,-0.677,0.194,0.188,0,0,0,0,0,0,0,0,0,0.000,0,0,0.122,0.012,0.000,-0.120,-0.020,0.015,0.994,0.011,0.006,0.010,-0.008,0.000,0.000,0.000,0.000,0,2,0,2,7,255,1200,300,517,1500,-89.510,0.618,-31.304
EX0521-092111,8,C16,rest,6928,6928,0,566734.091,0.685,-0.677,0.194,0.188,0,0,0,0,0,0,0,0,0,0.000,0,0,0.122,0.015,0.000,-0.120,-0.020,0.014,0.994,0.010,0.006,0.014,-0.008,0.000,0.000,0.000,0.000,0,2,0,2,7,255,1200,300,522,1500,-89.511,0.618,-31.304
EX0521-092111,8,C16,rest,6943,6943,0,566739.091,0.685,-0.677,0.194,0.188,0,0,0,0,0,0,0,0,0,0.000,0,0,0.075,0.011,-0.060,-0.040,-0.020,0.014,0.995,0.011,0.004,0.010,-0.004,0.000,0.000,0.000,0.000,0,2,0,2,7,255,1200,300,527,1500,-89.511,0.618,-31.304
EX0521-092111,8,C16,rest,6943,6943,0,566744.091,0.685,-0.677,0.194,0.188,0,0,0,0,0,0,0,0,0,0.000,0,0,0.108,0.011,-0.060,-0.040,-0.080,0.015,0.994,0.011,0.004,0.010,-0.004,0.000,0.000,0.000,0.000,0,2,0,2,7,255,1200,300,532,1500,-89.511,0.617,-31.304
EX0521-092111,8,C16,rest,6975,6975,0,566749.091,0.685,-0.677,0.194,0.188,0,0,0,0,0,0,0,0,0,0.000,0,0,0.075,0.009,-0.060,-0.040,-0.020,0.014,0.994,0.011,0.004,0.008,-0.004,0.000,0.000,0.000,0.000,0,2,0,2,7,255,1200,300,0,0,-89.511,0.617,-31.304
EX0521-092111,8,C16,rest,6975,6975,0,566754.092,0.685,-0.677,0.194,0.188,0,0,0,0,0,0,0,0,0,0.000,0,0,0.066,0.007,-0.060,0.020,-0.020,0.014,0.995,0.012,-0.004,0.006,-0.004,0.000,0.000,0.000,0.000,0,2,0,2,7,255,1200,300,0,0,-89.511,0.617,-31.304
EX0521-092111,8,C16,rest,6975,6975,0,566759.093,0.685,-0.677,0.194,0.188,0,0,0,0,0,0,0,0,0,0.000,0,0,0.102,0.004,-0.080,-0.060,-0.020,0.015,0.995,0.012,-0.004,-0.002,0.002,0.000,0.000,0.000,0.000,0,2,0,2,7,255,1200,300,0,0,-89.511,0.617,-31.304
EX0521-092111,8,C16,rest,6975,6975,0,566764.093,0.685,-0.677,0.194,0.188,0,0,0,0,0,0,0,0,0,0.000,0,0,0.040,0.004,0.000,0.000,0.040,0.015,0.996,0.012,0.000,-0.004,0.002,0.000,0.000,0.000,0.000,0,2,0,2,7,255,1200,300,0,0,-89.511,0.617,-31.304
EX0521-092111,8,C16,rest,6975,6975,0,566769.092,0.685,-0.677,0.194,0.188,0,0,0,0,0,0,0,0,0,0.000,0,0,0.063,0.002,0.000,-0.060,-0.020,0.014,0.995,0.011,0.000,-0.002,0.002,0.000,0.000,0.000,0.000,0,2,0,2,7,255,1200,300,0,0,-89.512,0.617,-31.304
EX0521-092111,8,C16,rest,6975,6975,0,566774.092,0.685,-0.677,0.194,0.188,0,0,0,0,0,0,0,0,0,0.000,0,0,0.087,0.006,0.060,-0.060,-0.020,0.015,0.995,0.012,0.000,-0.006,0.006,0.000,0.000,0.000,0.000,0,2,0,2,7,255,1200,300,0,0,-89.512,0.617,-31.304
EX0521-092111,8,C16,rest,6998,6998,0,566779.092,0.685,-0.677,0.194,0.188,0,0,0,0,0,0,0,0,0,0.000,0,0,0.087,0.009,0.060,-0.060,-0.020,0.014,0.995,0.011,-0.004,0.008,0.002,0.000,0.000,0.000,0.000,0,2,0,2,7,255,1200,300,0,0,-89.512,0.617,-31.304
EX0521-092111,8,C16,rest,6998,6998,0,566784.093,0.685,-0.677,0.194,0.188,0,0,0,0,0,0,0,0,0,0.000,0,0,0.063,0.008,0.000,-0.060,-0.020,0.014,0.994,0.010,0.000,0.008,0.002,0.000,0.000,0.000,0.000,0,2,0,2,7,255,1200,300,0,0,-89.512,0.617,-31.304
EX0521-092111,8,C16,rest,6998,6998,0,566789.092,0.685,-0.677,0.194,0.188,0,0,0,0,0,0,0,0,0,0.000,0,0,0.020,0.010,0.000,0.000,-0.020,0.015,0.994,0.011,0.006,0.008,-0.008,0.000,0.000,0.000,0.000,0,2,0,2,7,255,1200,300,0,0,-89.512,0.617,-31.304
EX0521-092111,8,C16,rest,6998,6998,0,566794.092,0.685,-0.677,0.194,0.188,0,0,0,0,0,0,0,0,0,0.000,0,0,0.063,0.013,0.000,-0.060,-0.020,0.014,0.995,0.010,0.006,0.012,-0.008,0.000,0.000,0.000,0.000,0,2,0,2,7,255,1200,300,0,0,-89.512,0.617,-31.304
EX0521-092111,8,C16,rest,7007,7007,0,566799.092,0.685,-0.677,0.194,0.188,0,0,0,0,0,0,0,0,0,0.000,0,0,0.082,0.011,-0.080,0.000,-0.020,0.015,0.992,0.010,0.008,0.008,-0.008,0.000,0.000,0.000,0.000,0,2,0,2,7,255,1200,300,0,0,-89.512,0.617,-31.304
EX0521-092111,8,C16,rest,7007,7007,0,566804.093,0.685,-0.677,0.194,0.188,0,0,0,0,0,0,0,0,0,0.000,0,0,0.082,0.008,-0.080,0.000,-0.020,0.014,0.992,0.011,0.002,0.008,-0.022,0.000,0.000,0.000,0.000,0,2,0,2,7,255,1200,300,0,0,-89.513,0.617,-31.304
EX0521-092111,8,C16,rest,7007,7007,0,566809.092,0.685,-0.677,0.194,0.188,0,0,0,0,0,0,0,0,0,0.000,0,0,0.089,0.010,-0.080,0.000,0.040,0.016,0.995,0.012,0.008,0.006,-0.022,0.000,0.000,0.000,0.000,0,2,0,2,7,255,1200,300,0,0,-89.513,0.617,-31.304
EX0521-092111,8,C16,rest,7007,7007,0,566814.092,0.685,-0.677,0.194,0.188,0,0,0,0,0,0,0,0,0,0.000,0,0,0.063,0.002,0.000,-0.060,-0.020,0.014,0.995,0.012,-0.002,0.000,0.002,0.000,0.000,0.000,0.000,0,2,0,2,7,255,1200,300,0,0,-89.513,0.617,-31.304
EX0521-092111,8,C16,rest,7033,7033,0,566819.092,0.685,-0.677,0.194,0.188,0,0,0,0,0,0,0,0,0,0.000,0,0,0.063,0.006,0.000,-0.060,-0.020,0.015,0.995,0.011,0.006,0.000,0.002,0.000,0.000,0.000,0.000,0,2,0,2,7,255,1200,300,0,0,-89.513,0.617,-31.304
EX0521-092111,8,C16,rest,7033,7033,0,566824.092,0.685,-0.677,0.194,0.188,0,0,0,0,0,0,0,0,0,0.000,0,0,0.156,0.004,0.120,-0.060,-0.080,0.014,0.995,0.011,0.000,0.004,0.002,0.000,0.000,0.000,0.000,0,2,0,2,7,255,1200,300,0,0,-89.513,0.617,-31.304
EX0521-092111,8,C16,prep,0,0,0,566829.092,0.685,-0.677,0.194,0.188,0,0,0,0,0,0,0,0,0,0.000,0,0,0.117,0.004,0.060,-0.060,-0.080,0.015,0.992,0.012,0.002,0.004,0.002,0.000,0.000,0.000,0.000,0,2,0,2,7,255,1200,300,0,0,-89.513,0.617,-31.304
EX0521-092111,8,C16,prep,0,0,0,566834.093,0.685,-0.677,0.194,0.188,0,0,0,0,0,0,0,0,0,0.000,0,0,0.072,0.004,0.000,-0.060,0.040,0.014,0.992,0.011,0.000,0.004,-0.022,0.000,0.000,0.000,0.000,0,2,0,2,7,255,1200,300,0,0,-89.514,0.617,-31.304
EX0521-092111,8,C16,prep,38,38,0,566839.092,0.685,-0.677,0.194,0.188,0,0,0,0,0,0,0,0,0,0.000,0,0,0.102,0.004,-0.080,-0.060,-0.020,0.014,0.998,0.010,0.002,0.004,-0.022,0.000,0.000,0.000,0.000,0,2,0,2,7,255,1200,300,0,0,-89.514,0.616,-31.304
EX0521-092111,8,C16,prep,38,38,0,566844.092,0.685,-0.677,0.194,0.188,0,0,0,0,0,0,0,0,0,0.000,0,0,0.310,0.016,0.300,0.000,-0.080,0.013,0.997,0.009,0.000,0.016,0.020,0.000,0.000,0.000,0.000,0,2,0,2,7,255,1200,300,0,0,-89.514,0.616,-31.304
EX0521-092111,8,C16,prep,38,38,0,566849.092,0.685,-0.677,0.194,0.188,0,0,0,0,0,0,0,0,0,0.000,0,0,0.310,0.018,0.300,0.000,-0.080,0.015,0.993,0.010,0.008,0.016,0.020,0.000,0.000,0.000,0.000,0,2,0,2,7,255,1200,300,0,0,-89.514,0.616,-31.304
EX0521-092111,8,C16,prep,38,38,0,566854.092,0.685,-0.677,0.194,0.188,0,0,0,0,0,0,0,0,0,0.000,0,0,0.691,0.010,-0.620,-0.120,0.280,0.016,0.988,0.013,0.006,0.008,-0.012,0.000,0.000,0.000,0.000,0,2,0,2,7,255,1200,300,0,0,-89.511,0.618,-31.304
EX0521-092111,8,C16,prep,38,38,0,566859.092,0.685,-0.677,0.194,0.188,0,0,0,0,0,0,0,0,0,0.000,0,0,0.395,0.010,-0.380,-0.040,0.100,0.013,1.000,0.011,0.006,0.008,-0.012,0.000,0.000,0.000,0.000,0,2,0,2,7,255,1200,300,0,0,-89.511,0.618,-31.304
EX0521-092111,8,C16,prep,38,38,0,566864.093,0.685,-0.677,0.194,0.188,0,0,0,0,0,0,0,0,0,0.000,0,0,0.958,0.012,0.840,0.020,-0.460,0.015,0.993,0.009,0.006,0.010,-0.012,0.000,0.000,0.000,0.000,0,2,0,2,7,255,1200,300,0,0,-89.516,0.618,-31.304
EX0521-092111,8,C16,prep,61,61,0,566869.092,0.685,-0.677,0.194,0.188,0,0,0,0,0,0,0,0,0,0.000,0,0,0.637,0.016,-0.560,-0.120,0.280,0.016,0.985,0.011,0.012,0.010,-0.012,0.000,0.000,0.000,0.000,0,2,0,2,7,255,1200,300,0,0,-89.516,0.619,-31.304
EX0521-092111,8,C16,prep,61,61,0,566874.092,0.685,-0.677,0.194,0.188,0,0,0,0,0,0,0,0,0,0.000,0,0,0.303,0.017,-0.260,-0.120,0.100,0.013,1.006,0.011,0.012,0.012,-0.012,0.000,0.000,0.000,0.000,0,2,0,2,7,255,1200,300,0,0,-89.516,0.619,-31.304
EX0521-092111,8,C16,prep,61,61,0,566879.092,0.685,-0.677,0.194,0.188,0,0,0,0,0,0,0,0,0,0.000,0,0,1.065,0.013,0.960,0.020,-0.460,0.017,0.982,0.011,0.012,-0.006,-0.088,0.000,0.000,0.000,0.000,0,2,0,2,7,255,1200,300,0,0,-89.521,0.619,-31.304
EX0521-092111,8,C16,prep,61,61,0,566884.092,0.685,-0.677,0.194,0.188,0,0,0,0,0,0,0,0,0,0.000,0,0,1.319,0.013,-1.160,-0.240,0.580,0.014,1.001,0.010,0.004,0.012,0.070,0.000,0.000,0.000,0.000,0,2,0,2,7,255,1200,300,0,0,-89.515,0.622,-31.304
EX0521-092111,8,C16,prep,61,61,0,566889.092,0.685,-0.677,0.194,0.188,0,0,0,0,0,0,0,0,0,0.000,0,0,1.491,0.010,1.280,0.080,-0.760,0.015,0.995,0.011,0.010,0.002,0.008,0.000,0.000,0.000,0.000,0,2,0,2,7,255,1200,300,0,0,-89.522,0.618,-31.304
EX0521-092111,8,C16,prep,61,61,0,566894.092,0.685,-0.677,0.194,0.188,0,0,0,0,0,0,0,0,0,0.000,0,0,1.309,0.004,-1.160,-0.180,0.580,0.015,0.986,0.012,0.004,0.002,0.008,0.000,0.000,0.000,0.000,0,2,0,2,7,255,1200,300,0,0,-89.516,0.621,-31.304
EX0521-092111,8,C16,prep,70,70,0,566899.092,0.685,-0.677,0.194,0.188,0,0,0,0,0,0,0,0,0,0.000,0,0,0.762,0.003,0.660,0.020,-0.380,0.014,1.005,0.010,0.002,0.002,0.008,0.000,0.000,0.000,0.000,0,2,0,2,7,255,1200,300,0,0,-89.519,0.621,-31.304
EX0521-092111,8,C16,prep,70,70,0,566904.092,0.685,-0.677,0.194,0.188,0,0,0,0,0,0,0,0,0,0.000,0,0,0.066,0.010,-0.060,0.020,-0.020,0.015,0.987,0.014,-0.002,-0.010,-0.068,0.000,0.000,0.000,0.000,0,2,0,2,7,255,1200,300,0,0,-89.514,0.621,-31.304
EX0521-092111,8,C16,prep,93,93,0,566909.092,0.685,-0.677,0.194,0.188,0,0,0,0,0,0,0,0,0,0.000,0,0,0.912,0.014,-0.800,-0.180,0.400,0.016,0.996,0.008,-0.002,0.014,0.012,0.000,0.000,0.000,0.000,0,2,0,2,7,255,1200,300,0,0,-89.511,0.621,-31.304
EX0521-092111,8,C16,prep,93,93,0,566914.092,0.685,-0.677,0.194,0.188,0,0,0,0,0,0,0,0,0,0.000,0,0,1.576,0.013,1.400,0.180,-0.700,0.014,1.000,0.013,-0.012,-0.006,0.012,0.000,0.000,0.000,0.000,0,2,0,2,7,255,1200,300,0,0,-89.518,0.618,-31.304
EX0521-092111,8,C16,prep,93,93,0,566919.092,0.685,-0.677,0.194,0.188,0,0,0,0,0,0,0,0,0,0.000,0,0,1.823,0.013,-1.600,-0.300,0.820,0.015,0.985,0.010,0.012,0.006,0.012,0.000,0.000,0.000,0.000,0,2,0,2,7,255,1200,300,0,0,-89.510,0.622,-31.304
EX0521-092111,8,C16,prep,93,93,0,566924.092,0.685,-0.677,0.194,0.188,0,0,0,0,0,0,0,0,0,0.000,0,0,1.055,0.006,0.900,0.180,-0.520,0.015,1.003,0.012,0.002,-0.006,0.056,0.000,0.000,0.000,0.000,0,2,0,2,7,255,1200,300,0,0,-89.514,0.622,-31.304
EX0521-092111,8,C16,prep,104,104,0,566929.092,0.685,-0.677,0.194,0.188,0,0,0,0,0,0,0,0,0,0.000,0,0,0.157,0.006,-0.140,-0.060,0.040,0.013,0.990,0.010,0.002,0.006,-0.040,0.000,0.000,0.000,0.000,0,2,0,2,7,255,1200,300,0,0,-89.515,0.622,-31.304
EX0521-092111,8,C16,prep,104,104,0,566934.092,0.685,-0.677,0.194,0.188,0,0,0,0,0,0,0,0,0,0.000,0,0,0.972,0.008,-0.860,-0.300,0.340,0.015,0.994,0.012,0.002,-0.008,-0.002,0.000,0.000,0.000,0.000,0,2,0,2,7,255,1200,300,0,0,-89.510,0.622,-31.304
EX0521-092111,8,C16,prep,138,138,0,566939.092,0.685,-0.677,0.194,0.188,0,0,0,0,0,0,0,0,0,0.000,0,0,2.875,0.002,2.620,0.380,-1.120,0.015,0.993,0.011,0.002,0.000,-0.016,0.000,0.000,0.000,0.000,0,2,0,2,7,255,1200,300,0,0,-89.524,0.616,-31.304
EX0521-092111,8,C16,prep,138,138,0,566944.092,0.685,-0.677,0.194,0.188,0,0,0,0,0,0,0,0,0,0.000,0,0,2.813,0.002,-2.640,-0.240,0.940,0.014,0.999,0.005,0.002,0.000,-0.002,0.000,0.000,0.000,0.000,0,2,0,2,7,255,1200,300,0,0,-89.511,0.621,-31.304
EX0521-092111,8,C16,prep,138,138,0,566949.092,0.685,-0.677,0.194,0.188,0,0,0,0,0,0,0,0,0,0.000,0,0,0.385,0.002,0.180,-0.300,-0.160,0.016,0.990,0.018,0.002,0.000,-0.016,0.000,0.000,0.000,0.000,0,2,0,2,7,255,1200,300,0,0,-89.503,0.620,-31.304
EX0521-092111,8,C16,prep,138,138,0,566954.092,0.685,-0.677,0.194,0.188,0,0,0,0,0,0,0,0,0,0.000,0,0,3.370,0.024,3.160,0.500,-1.060,0.017,0.986,0.010,0.024,0.002,-0.040,0.000,0.000,0.000,0.000,0,2,0,2,7,255,1200,300,0,0,-89.519,0.616,-31.304
EX0521-092111,8,C16,prep,138,138,0,566959.092,0.685,-0.677,0.194,0.188,0,0,0,0,0,0,0,0,0,0.000,0,0,3.242,0.022,-3.120,-0.060,0.880,0.012,1.012,0.003,0.022,0.002,-0.040,0.000,0.000,0.000,0.000,0,2,0,2,7,255,1200,300,0,0,-89.505,0.620,-31.304
EX0521-092111,8,C16,prep,138,138,0,566964.093,0.685,-0.677,0.194,0.188,0,0,0,0,0,0,0,0,0,0.000,0,0,0.629,0.022,-0.320,-0.540,0.040,0.015,0.984,0.023,0.022,0.002,-0.078,0.000,0.000,0.000,0.000,0,2,0,2,7,255,1200,300,0,0,-89.492,0.620,-31.304
EX0521-092111,8,C16,prep,150,150,0,566969.092,0.685,-0.677,0.194,0.188,0,0,0,0,0,0,0,0,0,0.000,0,0,3.682,0.022,3.540,0.380,-0.940,0.017,0.983,0.012,0.018,-0.012,-0.100,0.000,0.000,0.000,0.000,0,2,0,2,7,255,1200,300,0,0,-89.510,0.616,-31.304
EX0521-092111,8,C16,prep,150,150,0,566974.092,0.685,-0.677,0.194,0.188,0,0,0,0,0,0,0,0,0,0.000,0,0,2.334,0.022,-1.160,2.020,-0.140,0.014,1.023,-0.001,0.018,-0.012,-0.100,0.000,0.000,0.000,0.000,0,2,0,2,7,255,1200,300,0,0,-89.507,0.616,-31.294
EX0521-092111,8,C16,prep,150,150,0,566979.092,0.685,-0.677,0.194,0.188,0,0,0,0,0,0,0,0,0,0.000,0,0,3.149,0.022,-2.940,-0.480,1.020,0.012,0.969,0.016,0.018,-0.012,-0.106,0.000,0.000,0.000,0.000,0,2,0,2,7,255,1200,300,0,0,-89.490,0.621,-31.294
EX0521-092111,8,C16,prep,150,150,0,566984.092,0.685,-0.677,0.194,0.188,0,0,0,0,0,0,0,0,0,0.000,0,0,2.148,0.042,2.120,-0.060,-0.340,0.015,0.997,0.027,-0.036,-0.022,0.024,0.000,0.000,0.000,0.000,0,2,0,2,7,255,1200,300,0,0,-89.495,0.621,-31.294
EX0521-092111,8,C16,prep,150,150,0,566989.092,0.685,-0.677,0.194,0.188,0,0,0,0,0,0,0,0,0,0.000,0,0,3.718,0.042,3.340,0.200,-1.620,0.013,1.008,-0.010,-0.036,-0.022,0.024,0.000,0.000,0.000,0.000,0,2,0,2,7,255,1200,300,0,0,-89.518,0.612,-31.294
EX0521-092111,8,C16,prep,150,150,0,566994.092,0.685,-0.677,0.194,0.188,0,0,0,0,0,0,0,0,0,0.000,0,0,6.793,0.022,-6.180,-1.340,2.480,0.015,0.978,0.014,-0.008,-0.020,0.024,0.000,0.000,0.000,0.000,0,2,0,2,7,255,1200,300,0,0,-89.486,0.625,-31.301
EX0521-092111,8,C16,prep,166,166,0,566999.092,0.685,-0.677,0.194,0.188,0,0,0,0,0,0,0,0,0,0.000,0,0,2.853,0.022,2.560,0.680,-1.060,0.014,1.006,0.022,-0.008,-0.020,0.114,0.000,0.000,0.000,0.000,0,2,0,2,7,255,1200,300,0,0,-89.494,0.619,-31.297
EX0521-092111,8,C16,prep,166,166,0,567004.092,0.685,-0.677,0.194,0.188,0,0,0,0,0,0,0,0,0,0.000,0,0,2.042,0.022,1.940,-0.540,-0.340,0.016,0.979,0.002,-0.008,-0.020,-0.146,0.000,0.000,0.000,0.000,0,2,0,2,7,255,1200,300,0,0,-89.506,0.620,-31.297
EX0521-092111,8,C16,prep,182,182,0,567009.092,0.685,-0.677,0.194,0.188,0,0,0,0,0,0,0,0,0,0.000,0,0,3.162,0.025,-3.060,-0.240,0.760,0.012,1.013,0.012,-0.022,0.012,0.114,0.000,0.000,0.000,0.000,0,2,0,2,7,255,1200,300,0,0,-89.491,0.624,-31.297
EX0521-092111,8,C16,prep,182,182,0,567014.092,0.685,-0.677,0.194,0.188,0,0,0,0,0,0,0,0,0,0.000,0,0,1.753,0.013,1.580,0.020,-0.760,0.016,0.984,0.013,0.004,0.012,-0.096,0.000,0.000,0.000,0.000,0,2,0,2,7,255,1200,300,0,0,-89.499,0.620,-31.297
EX0521-092111,8,C16,prep,198,198,0,567019.092,0.685,-0.677,0.194,0.188,0,0,0,0,2,0,0,0,0,0.000,0,0,0.747,0.004,-0.380,-0.060,0.640,0.015,0.986,0.012,0.004,-0.002,-0.076,0.000,0.000,0.000,0.000,0,2,0,2,7,255,1200,300,0,0,-89.499,0.623,-31.297
EX0521-092111,8,C16,prep,198,198,0,567024.092,0.685,-0.677,0.194,0.188,0,0,0,0,0,0,0,0,0,0.000,0,0,0.658,0.006,0.300,0.080,-0.580,0.012,1.012,0.005,0.006,-0.002,-0.076,0.000,0.000,0.000,0.000,0,2,0,2,7,255,1200,300,0,0,-89.499,0.620,-31.297
EX0521-092111,8,C16,prep,198,198,0,567029.092,0.685,-0.677,0.194,0.188,0,0,0,0,0,0,0,0,0,0.000,0,0,1.365,0.006,-1.300,-0.120,0.400,0.018,0.973,0.019,0.006,-0.002,-0.076,0.000,0.000,0.000,0.000,0,2,0,2,7,255,1200,300,0,0,-89.490,0.621,-31.297
EX0521-092111,8,C16,prep,198,198,0,567034.092,0.685,-0.677,0.194,0.188,0,0,0,0,0,0,0,0,0,0.000,0,0,0.789,0.027,0.780,-0.120,-0.020,0.013,1.010,0.010,-0.006,0.026,0.152,0.000,0.000,0.000,0.000,0,2,0,2,7,255,1200,300,0,0,-89.494,0.621,-31.297
EX0521-092111,8,C16,prep,214,214,0,567039.092,0.685,-0.677,0.194,0.188,0,0,0,0,0,0,0,0,0,0.000,0,0,1.239,0.027,1.020,-0.060,-0.700,0.016,0.992,0.007,-0.006,0.026,-0.020,0.000,0.000,0.000,0.000,0,2,0,2,7,255,1200,300,0,0,-89.500,0.617,-31.297
EX0521-092111,8,C16,prep,214,214,0,567044.092,0.685,-0.677,0.194,0.188,0,0,0,0,0,0,0,0,0,0.000,0,0,2.662,0.027,-2.440,-0.300,1.020,0.016,0.989,0.013,0.006,0.026,-0.020,0.000,0.000,0.000,0.000,0,2,0,2,7,255,1200,300,0,0,-89.487,0.623,-31.297
EX0521-092111,8,C16,prep,231,231,0,567049.092,0.685,-0.677,0.194,0.188,0,0,0,0,0,0,0,0,0,0.000,0,0,2.141,0.007,2.000,0.080,-0.760,0.013,1.002,0.012,0.006,0.004,-0.020,0.000,0.000,0.000,0.000,0,2,0,2,7,255,1200,300,0,0,-89.498,0.619,-31.297
EX0521-092111,8,C16,prep,231,231,0,567054.092,0.685,-0.677,0.194,0.188,0,0,0,0,0,0,0,0,0,0.000,0,0,0.602,0.007,-0.560,0.020,0.220,0.017,0.983,0.009,0.006,0.004,-0.048,0.000,0.000,0.000,0.000,0,2,0,2,7,255,1200,300,0,0,-89.498,0.620,-31.297
EX0521-092111,8,C16,prep,232,232,0,567059.092,0.685,-0.677,0.194,0.188,0,0,0,0,0,0,0,0,0,0.000,0,0,1.136,0.013,-1.100,-0.180,0.220,0.013,1.003,0.013,-0.012,0.004,0.080,0.000,0.000,0.000,0.000,0,2,0,2,7,255,1200,300,0,0,-89.492,0.620,-31.297
EX0521-092111,8,C16,prep,232,232,0,567064.093,0.685,-0.677,0.194,0.188,0,0,0,0,0,0,0,0,0,0.000,0,0,1.494,0.008,1.400,0.020,-0.520,0.015,0.988,0.014,-0.008,0.002,-0.058,0.000,0.000,0.000,0.000,0,2,0,2,7,255,1200,300,0,0,-89.500,0.620,-31.297
EX0521-092111,8,C16,prep,232,232,0,567069.091,0.685,-0.677,0.194,0.188,0,0,0,0,0,0,0,0,0,0.000,0,0,0.651,0.008,-0.500,-0.120,0.400,0.015,0.994,0.006,-0.008,0.002,-0.006,0.000,0.000,0.000,0.000,0,2,0,2,7,255,1200,300,0,0,-89.500,0.620,-31.297
EX0521-092111,8,C16,prep,232,232,0,567074.091,0.685,-0.677,0.194,0.188,0,0,0,0,0,0,0,0,0,0.000,0,0,0.286,0.011,-0.200,-0.040,-0.200,0.014,1.001,0.011,-0.004,0.010,-0.006,0.000,0.000,0.000,0.000,0,2,0,2,7,255,1200,300,0,0,-89.500,0.620,-31.297
EX0521-092111,8,C16,prep,246,246,0,567079.091,0.685,-0.677,0.194,0.188,0,0,0,0,0,0,0,0,0,0.000,0,0,0.082,0.010,0.060,-0.040,0.040,0.016,0.983,0.015,0.000,0.010,-0.006,0.000,0.000,0.000,0.000,0,2,0,2,7,255,1200,300,0,0,-89.495,0.622,-31.297
EX0521-092111,8,C16,prep,246,246,0,567084.091,0.685,-0.677,0.194,0.188,0,0,0,0,0,0,0,0,0,0.000,0,0,0.428,0.010,0.420,0.020,-0.080,0.015,1.003,0.007,0.000,0.010,0.066,0.000,0.000,0.000,0.000,0,2,0,2,7,255,1200,300,0,0,-89.495,0.622,-31.297
EX0521-092111,8,C16,prep,262,262,0,567089.091,0.685,-0.677,0.194,0.188,0,0,0,0,0,0,0,0,0,0.000,0,0,0.622,0.002,-0.620,0.020,0.040,0.014,0.992,0.012,0.000,0.002,-0.024,0.000,0.000,0.000,0.000,0,2,0,2,7,255,1200,300,0,0,-89.492,0.622,-31.297
EX0521-092111,8,C16,prep,262,262,0,567094.092,0.685,-0.677,0.194,0.188,0,0,0,0,0,0,0,0,0,0.000,0,0,0.614,0.003,-0.560,-0.120,0.220,0.015,0.989,0.014,-0.002,0.002,-0.024,0.000,0.000,0.000,0.000,0,2,0,2,7,255,1200,300,0,0,-89.492,0.621,-31.297
EX0521-092111,8,C16,prep,262,262,0,567099.091,0.685,-0.677,0.194,0.188,0,0,0,0,0,0,0,0,0,0.000,0,0,1.278,0.003,1.220,-0.040,-0.380,0.013,0.998,0.009,-0.002,0.002,-0.024,0.000,0.000,0.000,0.000,0,2,0,2,7,255,1200,300,0,0,-89.498,0.621,-31.297
EX0521-092111,8,C16,prep,262,262,0,567104.091,0.685,-0.677,0.194,0.188,0,0,0,0,0,0,0,0,0,0.000,0,0,0.912,0.028,-0.860,-0.120,0.280,0.014,0.990,0.008,0.002,0.028,-0.044,0.000,0.000,0.000,0.000,0,2,0,2,7,255,1200,300,0,0,-89.494,0.621,-31.297
EX0521-092111,8,C16,prep,278,278,0,567109.091,0.685,-0.677,0.194,0.188,0,0,0,0,0,0,0,0,0,0.000,0,0,0.516,0.028,-0.500,-0.120,0.040,0.015,0.997,0.014,0.002,0.028,0.024,0.000,0.000,0.000,0.000,0,2,0,2,7,255,1200,300,0,0,-89.489,0.621,-31.297
EX0521-092111,8,C16,prep,278,278,0,567114.091,0.685,-0.677,0.194,0.188,0,0,0,0,0,0,0,0,0,0.000,0,0,1.164,0.008,1.100,0.020,-0.380,0.014,0.992,0.012,-0.008,0.000,-0.024,0.000,0.000,0.000,0.000,0,2,0,2,7,255,1200,300,0,0,-89.495,0.621,-31.297
EX0521-092111,8,C16,prep,294,294,0,567119.091,0.685,-0.677,0.194,0.188,0,0,0,0,0,0,0,0,0,0.000,0,0,0.681,0.008,-0.620,0.020,0.280,0.014,0.996,0.008,-0.008,0.000,0.014,0.000,0.000,0.000,0.000,0,2,0,2,7,255,1200,300,0,0,-89.492,0.621,-31.297
EX0521-092111,8,C16,prep,294,294,0,567124.091,0.685,-0.677,0.194,0.188,0,0,0,0,0,0,0,0,0,0.000,0,0,0.442,0.006,-0.440,0.020,0.040,0.015,0.995,0.013,-0.006,0.000,0.004,0.000,0.000,0.000,0.000,0,2,0,2,7,255,1200,300,0,0,-89.492,0.621,-31.297
EX0521-092111,8,C16,prep,294,294,0,567129.091,0.685,-0.677,0.194,0.188,0,0,0,0,0,0,0,0,0,0.000,0,0,0.502,0.013,0.480,-0.040,-0.140,0.015,0.990,0.013,-0.006,-0.012,0.004,0.000,0.000,0.000,0.000,0,2,0,2,7,255,1200,300,0,0,-89.492,0.621,-31.297
EX0521-092111,8,C16,prep,294,294,0,567134.091,0.685,-0.677,0.194,0.188,0,0,0,0,0,0,0,0,0,0.000,0,0,0.313,0.013,0.300,-0.040,-0.080,0.014,0.998,0.008,-0.006,-0.012,0.004,0.000,0.000,0.000,0.000,0,2,0,2,7,255,1200,300,0,0,-89.492,0.621,-31.297
EX0521-092111,8,C16,prep,327,327,0,567139.091,0.685,-0.677,0.194,0.188,0,0,0,0,0,0,0,0,0,0.000,0,0,0.688,0.004,-0.680,-0.040,0.100,0.015,0.991,0.012,0.000,-0.004,-0.028,0.000,0.000,0.000,0.000,0,2,0,2,7,255,1200,300,0,0,-89.489,0.621,-31.297
EX0521-092111,8,C16,prep,327,327,0,567144.091,0.685,-0.677,0.194,0.188,0,0,0,0,0,0,0,0,0,0.000,0,0,0.171,0.004,0.120,-0.120,-0.020,0.015,0.992,0.013,0.000,-0.004,-0.018,0.000,0.000,0.000,0.000,0,2,0,2,7,255,1200,300,0,0,-89.489,0.621,-31.297
EX0521-092111,8,C16,prep,342,342,0,567149.091,0.685,-0.677,0.194,0.188,0,0,0,0,0,0,0,0,0,0.000,0,0,0.822,0.004,0.780,0.020,-0.260,0.014,0.998,0.010,0.000,-0.004,-0.018,0.000,0.000,0.000,0.000,0,2,0,2,7,255,1200,300,0,0,-89.493,0.621,-31.297
EX0521-092111,8,C16,prep,342,342,0,567154.093,0.685,-0.677,0.194,0.188,0,0,0,0,0,0,0,0,0,0.000,0,0,0.889,0.011,-0.860,-0.040,0.220,0.014,0.992,0.011,0.004,0.010,-0.018,0.000,0.000,0.000,0.000,0,2,0,2,7,255,1200,300,0,0,-89.489,0.621,-31.297
EX0521-092111,8,C16,prep,342,342,0,567159.091,0.685,-0.677,0.194,0.188,0,0,0,0,0,0,0,0,0,0.000,0,0,0.066,0.011,-0.020,-0.060,-0.020,0.014,0.994,0.014,0.004,0.010,0.000,0.000,0.000,0.000,0.000,0,2,0,2,7,255,1200,300,0,0,-89.489,0.621,-31.297
EX0521-092111,8,C16,prep,342,342,0,567164.093,0.685,-0.677,0.194,0.188,0,0,0,0,0,0,0,0,0,0.000,0,0,0.696,0.011,0.660,0.000,-0.220,0.015,0.995,0.010,0.004,0.010,0.000,0.000,0.000,0.000,0.000,0,2,0,2,7,255,1200,300,0,0,-89.493,0.621,-31.297
EX0521-092111,8,C16,prep,358,358,0,567169.091,0.685,-0.677,0.194,0.188,0,0,0,0,0,0,0,0,0,0.000,0,0,0.539,0.014,-0.500,-0.120,0.160,0.015,0.996,0.010,0.010,0.010,0.004,0.000,0.000,0.000,0.000,0,2,0,2,7,255,1200,300,0,0,-89.493,0.621,-31.297
EX0521-092111,8,C16,prep,358,358,0,567174.091,0.685,-0.677,0.194,0.188,0,0,0,0,0,0,0,0,0,0.000,0,0,0.234,0.014,-0.200,-0.120,-0.020,0.013,0.994,0.013,0.010,0.010,0.004,0.000,0.000,0.000,0.000,0,2,0,2,7,255,1200,300,0,0,-89.493,0.621,-31.297
EX0521-092111,8,C16,prep,358,358,0,567179.091,0.685,-0.677,0.194,0.188,0,0,0,0,0,0,0,0,0,0.000,0,0,0.487,0.009,0.480,0.000,-0.080,0.014,0.993,0.011,-0.004,0.008,-0.004,0.000,0.000,0.000,0.000,0,2,0,2,7,255,1200,300,0,0,-89.493,0.621,-31.297
EX0521-092111,8,C16,prep,358,358,0,567184.091,0.685,-0.677,0.194,0.188,0,0,0,0,0,0,0,0,0,0.000,0,0,0.082,0.009,-0.080,0.000,-0.020,0.014,0.996,0.010,-0.004,0.008,-0.004,0.000,0.000,0.000,0.000,0,2,0,2,7,255,1200,300,0,0,-89.493,0.621,-31.297
EX0521-092111,8,C16,prep,358,358,0,567189.091,0.685,-0.677,0.194,0.188,0,0,0,0,0,0,0,0,0,0.000,0,0,0.446,0.009,-0.440,-0.060,0.040,0.013,0.992,0.012,-0.004,0.008,-0.010,0.000,0.000,0.000,0.000,0,2,0,2,7,255,1200,300,0,0,-89.494,0.620,-31.297
EX0521-092111,8,C16,prep,358,358,0,567194.092,0.685,-0.677,0.194,0.188,0,0,0,0,0,0,0,0,0,0.000,0,0,0.307,0.012,0.300,-0.060,-0.020,0.013,0.994,0.012,-0.010,0.006,-0.004,0.000,0.000,0.000,0.000,0,2,0,2,7,255,1200,300,0,0,-89.494,0.620,-31.297
EX0521-092111,8,C16,prep,374,374,0,567199.092,0.685,-0.677,0.194,0.188,0,0,0,0,0,0,0,0,0,0.000,0,0,0.260,0.012,0.240,-0.060,-0.080,0.014,0.995,0.010,-0.010,0.006,-0.004,0.000,0.000,0.000,0.000,0,2,0,2,7,255,1200,300,0,0,-89.494,0.620,-31.297
EX0521-092111,8,C16,prep,374,374,0,567204.091,0.685,-0.677,0.194,0.188,0,0,0,0,0,0,0,0,0,0.000,0,0,0.581,0.010,-0.560,-0.120,0.100,0.014,0.994,0.012,-0.008,0.006,0.000,0.000,0.000,0.000,0.000,0,2,0,2,7,255,1200,300,0,0,-89.494,0.620,-31.297
EX0521-092111,8,C16,prep,374,374,0,567209.091,0.685,-0.677,0.194,0.188,0,0,0,0,0,0,0,0,0,0.000,0,0,0.231,0.002,0.180,-0.120,-0.080,0.015,0.993,0.012,0.002,0.000,0.000,0.000,0.000,0.000,0.000,0,2,0,2,7,255,1200,300,0,0,-89.494,0.620,-31.297
EX0521-092111,8,C16,prep,374,374,0,567214.091,0.685,-0.677,0.194,0.188,0,0,0,0,0,0,0,0,0,0.000,0,0,0.369,0.002,0.360,0.020,-0.080,0.015,0.995,0.009,0.002,0.000,0.000,0.000,0.000,0.000,0.000,0,2,0,2,7,255,1200,300,0,0,-89.494,0.620,-31.297
EX0521-092111,8,C16,prep,395,395,0,567219.091,0.685,-0.677,0.194,0.188,0,0,0,0,0,0,0,0,0,0.000,0,0,0.505,0.011,-0.500,-0.060,0.040,0.015,0.995,0.011,0.010,0.004,0.004,0.000,0.000,0.000,0.000,0,2,0,2,7,255,1200,300,0,0,-89.494,0.620,-31.297
EX0521-092111,8,C16,prep,395,395,0,567224.091,0.685,-0.677,0.194,0.188,0,0,0,0,0,0,0,0,0,0.000,0,0,0.100,0.011,0.000,-0.060,-0.080,0.014,0.993,0.013,0.010,0.004,0.004,0.000,0.000,0.000,0.000,0,2,0,2,7,255,1200,300,0,0,-89.495,0.620,-31.297
EX0521-092111,8,C16,prep,395,395,0,567229.091,0.685,-0.677,0.194,0.188,0,0,0,0,0,0,0,0,0,0.000,0,0,0.316,0.007,0.300,-0.060,-0.080,0.014,0.994,0.010,0.006,0.004,0.000,0.000,0.000,0.000,0.000,0,2,0,2,7,255,1200,300,0,0,-89.495,0.620,-31.297
EX0521-092111,8,C16,prep,395,395,0,567234.091,0.685,-0.677,0.194,0.188,0,0,0,0,0,0,0,0,0,0.000,0,0,0.289,0.010,-0.260,-0.120,0.040,0.015,0.994,0.010,0.006,0.008,0.000,0.000,0.000,0.000,0.000,0,2,0,2,7,255,1200,300,0,0,-89.495,0.620,-31.297
EX0521-092111,8,C16,prep,438,438,0,567239.091,0.685,-0.677,0.194,0.188,0,0,0,0,0,0,0,0,0,0.000,0,0,0.213,0.010,-0.200,-0.060,0.040,0.015,0.993,0.013,0.006,0.008,0.000,0.000,0.000,0.000,0.000,0,2,0,2,7,255,1200,300,0,0,-89.495,0.620,-31.297
EX0521-092111,8,C16,prep,438,438,0,567244.091,0.685,-0.677,0.194,0.188,0,0,0,0,0,0,0,0,0,0.000,0,0,0.311,0.007,0.300,0.020,-0.080,0.015,0.993,0.012,0.006,-0.004,-0.014,0.000,0.000,0.000,0.000,0,2,0,2,7,255,1200,300,0,0,-89.495,0.620,-31.297
EX0521-092111,8,C16,prep,438,438,0,567249.091,0.685,-0.677,0.194,0.188,0,0,0,0,0,0,0,0,0,0.000,0,0,0.066,0.007,-0.060,0.020,-0.020,0.015,0.996,0.009,0.006,-0.004,-0.014,0.000,0.000,0.000,0.000,0,2,0,2,7,255,1200,300,0,0,-89.495,0.620,-31.297
EX0521-092111,8,C16,prep,438,438,0,567254.092,0.685,-0.677,0.194,0.188,0,0,0,0,0,0,0,0,0,0.000,0,0,0.400,0.014,-0.380,-0.120,0.040,0.015,0.994,0.010,0.012,0.008,-0.004,0.000,0.000,0.000,0.000,0,2,0,2,7,255,1200,300,0,0,-89.495,0.620,-31.297
EX0521-092111,8,C16,prep,438,438,0,567259.091,0.685,-0.677,0.194,0.188,0,0,0,0,0,0,0,0,0,0.000,0,0,0.256,0.014,0.240,-0.040,-0.080,0.014,0.994,0.012,0.012,0.008,0.000,0.000,0.000,0.000,0.000,0,2,0,2,7,255,1200,300,0,0,-89.496,0.620,-31.297
EX0521-092111,8,C16,prep,438,438,0,567264.093,0.685,-0.677,0.194,0.188,0,0,0,0,0,0,0,0,0,0.000,0,0,0.150,0.014,0.120,-0.040,-0.080,0.015,0.995,0.010,0.012,0.008,0.000,0.000,0.000,0.000,0.000,0,2,0,2,7,255,1200,300,0,0,-89.496,0.620,-31.297
EX0521-092111,8,C16,prep,460,460,0,567269.091,0.685,-0.677,0.194,0.188,0,0,0,0,0,0,0,0,0,0.000,0,0,0.289,0.003,-0.260,-0.120,0.040,0.015,0.995,0.012,-0.002,-0.002,0.006,0.000,0.000,0.000,0.000,0,2,0,2,7,255,1200,300,0,0,-89.496,0.620,-31.297
EX0521-092111,8,C16,prep,460,460,0,567274.091,0.685,-0.677,0.194,0.188,0,0,0,0,0,0,0,0,0,0.000,0,0,0.231,0.006,0.180,-0.120,-0.080,0.015,0.993,0.012,0.002,-0.006,0.006,0.000,0.000,0.000,0.000,0,2,0,2,7,255,1200,300,0,0,-89.496,0.620,-31.297
EX0521-092111,8,C16,prep,460,460,0,567279.091,0.685,-0.677,0.194,0.188,0,0,0,0,0,0,0,0,0,0.000,0,0,0.150,0.006,0.120,-0.040,-0.080,0.015,0.994,0.009,0.002,-0.006,-0.004,0.000,0.000,0.000,0.000,0,2,0,2,7,255,1200,300,0,0,-89.496,0.620,-31.297
EX0521-092111,8,C16,prep,460,460,0,567284.091,0.685,-0.677,0.194,0.188,0,0,0,0,0,0,0,0,0,0.000,0,0,0.264,0.002,-0.260,-0.040,-0.020,0.014,0.994,0.012,0.002,0.000,-0.004,0.000,0.000,0.000,0.000,0,2,0,2,7,255,1200,300,0,0,-89.496,0.620,-31.297
EX0521-092111,8,C16,prep,460,460,0,567289.091,0.685,-0.677,0.194,0.188,0,0,0,0,0,0,0,0,0,0.000,0,0,0.102,0.004,0.060,0.020,-0.080,0.013,0.993,0.012,-0.002,0.004,-0.004,0.000,0.000,0.000,0.000,0,2,0,2,7,255,1200,300,0,0,-89.497,0.619,-31.297
EX0521-092111,8,C16,prep,460,460,0,567294.092,0.685,-0.677,0.194,0.188,0,0,0,0,0,0,0,0,0,0.000,0,0,0.201,0.002,0.180,-0.040,-0.080,0.015,0.994,0.011,-0.002,0.000,-0.004,0.000,0.000,0.000,0.000,0,2,0,2,7,255,1200,300,0,0,-89.497,0.619,-31.297
EX0521-092111,8,C16,prep,470,470,0,567299.091,0.685,-0.677,0.194,0.188,0,0,0,0,0,0,0,0,0,0.000,0,0,0.136,0.006,-0.060,-0.120,-0.020,0.014,0.995,0.010,0.004,0.004,-0.004,0.000,0.000,0.000,0.000,0,2,0,2,7,255,1200,300,0,0,-89.497,0.619,-31.297
EX0521-092111,8,C16,prep,470,470,0,567304.091,0.685,-0.677,0.194,0.188,0,0,0,0,0,0,0,0,0,0.000,0,0,0.201,0.004,-0.140,-0.120,-0.080,0.015,0.993,0.012,0.004,0.000,-0.004,0.000,0.000,0.000,0.000,0,2,0,2,7,255,1200,300,0,0,-89.497,0.619,-31.297
EX0521-092111,8,C16,prep,470,470,0,567309.092,0.685,-0.677,0.194,0.188,0,0,0,0,0,0,0,0,0,0.000,0,0,0.206,0.002,0.180,-0.060,-0.080,0.014,0.994,0.012,0.002,0.000,0.000,0.000,0.000,0.000,0.000,0,2,0,2,7,255,1200,300,0,0,-89.497,0.619,-31.297
EX0521-092111,8,C16,prep,470,470,0,567314.091,0.685,-0.677,0.194,0.188,0,0,0,0,0,0,0,0,0,0.000,0,0,0.087,0.002,-0.060,-0.060,-0.020,0.014,0.995,0.011,-0.002,0.000,0.000,0.000,0.000,0.000,0.000,0,2,0,2,7,255,1200,300,0,0,-89.497,0.619,-31.297
EX0521-092111,8,C16,prep,492,492,0,567319.091,0.685,-0.677,0.194,0.188,0,0,0,0,0,0,0,0,0,0.000,0,0,0.326,0.002,-0.320,-0.060,-0.020,0.014,0.994,0.012,-0.002,0.000,0.000,0.000,0.000,0.000,0.000,0,2,0,2,7,255,1200,300,0,0,-89.497,0.619,-31.297
EX0521-092111,8,C16,prep,492,492,0,567324.091,0.685,-0.677,0.194,0.188,0,0,0,0,0,0,0,0,0,0.000,0,0,0.248,0.003,0.240,-0.060,-0.020,0.015,0.993,0.012,-0.002,-0.002,0.000,0.000,0.000,0.000,0.000,0,2,0,2,7,255,1200,300,0,0,-89.498,0.619,-31.297
EX0521-092111,8,C16,prep,504,504,0,567329.092,0.685,-0.677,0.194,0.188,0,0,0,0,0,0,0,0,0,0.000,0,0,0.087,0.004,0.060,-0.060,-0.020,0.014,0.995,0.010,0.004,-0.002,0.000,0.000,0.000,0.000,0.000,0,2,0,2,7,255,1200,300,0,0,-89.498,0.619,-31.297
EX0521-092111,8,C16,prep,504,504,0,567334.092,0.685,-0.677,0.194,0.188,0,0,0,0,0,0,0,0,0,0.000,0,0,0.210,0.004,-0.200,-0.060,-0.020,0.014,0.995,0.012,0.004,-0.002,0.006,0.000,0.000,0.000,0.000,0,2,0,2,7,255,1200,300,0,0,-89.498,0.619,-31.297
EX0521-092111,8,C16,prep,504,504,0,567339.092,0.685,-0.677,0.194,0.188,0,0,0,0,0,0,0,0,0,0.000,0,0,0.156,0.004,0.120,-0.060,-0.080,0.015,0.993,0.012,0.004,-0.002,0.006,0.000,0.000,0.000,0.000,0,2,0,2,7,255,1200,300,0,0,-89.498,0.619,-31.297
EX0521-092111,8,C16,prep,504,504,0,567344.092,0.685,-0.677,0.194,0.188,0,0,0,0,0,0,0,0,0,0.000,0,0,0.100,0.006,0.000,-0.060,-0.080,0.016,0.994,0.010,0.006,-0.002,0.000,0.000,0.000,0.000,0.000,0,2,0,2,7,255,1200,300,0,0,-89.498,0.619,-31.297
EX0521-092111,8,C16,prep,534,534,0,567349.092,0.685,-0.677,0.194,0.188,0,0,0,0,0,0,0,0,0,0.000,0,0,0.270,0.017,-0.260,-0.060,0.040,0.016,0.994,0.011,0.016,-0.006,0.000,0.000,0.000,0.000,0.000,0,2,0,2,7,255,1200,300,0,0,-89.498,0.620,-31.297
EX0521-092111,8,C16,prep,534,534,0,567354.092,0.685,-0.677,0.194,0.188,0,0,0,0,0,0,0,0,0,0.000,0,0,0.100,0.017,0.000,-0.060,-0.080,0.016,0.993,0.011,0.016,-0.006,0.000,0.000,0.000,0.000,0.000,0,2,0,2,7,255,1200,300,0,0,-89.498,0.622,-31.297
EX0521-092111,8,C16,prep,534,534,0,567359.093,0.685,-0.677,0.194,0.188,0,0,0,0,0,0,0,0,0,0.000,0,0,0.191,0.017,0.180,-0.060,-0.020,0.014,0.994,0.011,0.016,-0.006,0.000,0.000,0.000,0.000,0.000,0,2,0,2,7,255,1200,300,0,0,-89.499,0.622,-31.297
EX0521-092111,8,C16,prep,534,534,0,567364.093,0.685,-0.677,0.194,0.188,0,0,0,0,0,0,0,0,0,0.000,0,0,0.172,0.006,-0.140,-0.060,-0.080,0.014,0.995,0.011,0.002,0.006,0.000,0.000,0.000,0.000,0.000,0,2,0,2,7,255,1200,300,0,0,-89.499,0.622,-31.297
EX0521-092111,8,C16,prep,534,534,0,567369.092,0.685,-0.677,0.194,0.188,0,0,0,0,0,0,0,0,0,0.000,0,0,0.150,0.008,-0.080,-0.120,0.040,0.014,0.994,0.012,-0.006,0.006,0.000,0.000,0.000,0.000,0.000,0,2,0,2,7,255,1200,300,0,0,-89.499,0.622,-31.297
EX0521-092111,8,C16,prep,534,534,0,567374.092,0.685,-0.677,0.194,0.188,0,0,0,0,0,0,0,0,0,0.000,0,0,0.191,0.004,0.180,-0.060,-0.020,0.014,0.995,0.012,-0.004,0.000,0.006,0.000,0.000,0.000,0.000,0,2,0,2,7,255,1200,300,0,0,-89.499,0.622,-31.297
EX0521-092111,8,C16,prep,550,550,0,567379.092,0.685,-0.677,0.194,0.188,0,0,0,0,0,0,0,0,0,0.000,0,0,0.102,0.004,-0.080,-0.060,-0.020,0.015,0.993,0.010,-0.004,0.000,-0.004,0.000,0.000,0.000,0.000,0,2,0,2,7,255,1200,300,0,0,-89.499,0.622,-31.297
EX0521-092111,8,C16,prep,550,550,0,567384.092,0.685,-0.677,0.194,0.188,0,0,0,0,0,0,0,0,0,0.000,0,0,0.210,0.004,-0.200,-0.060,-0.020,0.014,0.994,0.011,-0.002,0.004,0.000,0.000,0.000,0.000,0.000,0,2,0,2,7,255,1200,300,0,0,-89.499,0.622,-31.297
EX0521-092111,8,C16,prep,566,566,0,567389.092,0.685,-0.677,0.194,0.188,0,0,0,0,0,0,0,0,0,0.000,0,0,0.156,0.004,0.120,-0.060,-0.080,0.015,0.995,0.012,0.000,0.004,0.000,0.000,0.000,0.000,0.000,0,2,0,2,7,255,1200,300,0,0,-89.499,0.621,-31.297
EX0521-092111,8,C16,prep,566,566,0,567394.092,0.685,-0.677,0.194,0.188,0,0,0,0,0,0,0,0,0,0.000,0,0,0.063,0.004,0.000,-0.060,-0.020,0.015,0.993,0.011,0.000,0.004,0.000,0.000,0.000,0.000,0.000,0,2,0,2,7,255,1200,300,0,0,-89.500,0.621,-31.297
EX0521-092111,8,C16,prep,566,566,0,567399.092,0.685,-0.677,0.194,0.188,0,0,0,0,0,0,0,0,0,0.000,0,0,0.154,0.004,-0.140,-0.060,-0.020,0.014,0.994,0.011,0.000,0.004,0.000,0.000,0.000,0.000,0.000,0,2,0,2,7,255,1200,300,0,0,-89.500,0.621,-31.297
EX0521-092111,8,C16,prep,566,566,0,567404.092,0.685,-0.677,0.194,0.188,0,0,0,0,0,0,0,0,0,0.000,0,0,0.136,0.006,0.120,-0.060,-0.020,0.014,0.994,0.011,0.002,0.006,-0.004,0.000,0.000,0.000,0.000,0,2,0,2,7,255,1200,300,0,0,-89.500,0.621,-31.297
EX0521-092111,8,C16,prep,582,582,0,567409.092,0.685,-0.677,0.194,0.188,0,0,0,0,0,0,0,0,0,0.000,0,0,0.075,0.006,0.060,-0.040,-0.020,0.015,0.995,0.011,0.002,0.006,0.000,0.000,0.000,0.000,0.000,0,2,0,2,7,255,1200,300,0,0,-89.500,0.621,-31.297
EX0521-092111,8,C16,prep,582,582,0,567414.092,0.685,-0.677,0.194,0.188,0,0,0,0,0,0,0,0,0,0.000,0,0,0.210,0.006,-0.180,-0.100,0.040,0.013,0.994,0.012,0.002,0.006,-0.004,0.000,0.000,0.000,0.000,0,2,0,2,7,255,1200,300,0,0,-89.500,0.621,-31.297
EX0521-092111,8,C16,prep,582,582,0,567419.092,0.685,-0.677,0.194,0.188,0,0,0,0,0,0,0,0,0,0.000,0,0,0.045,0.006,0.000,-0.040,-0.020,0.015,0.994,0.012,0.004,0.004,0.000,0.000,0.000,0.000,0.000,0,2,0,2,7,255,1200,300,0,0,-89.500,0.621,-31.297
EX0521-092111,8,C16,prep,582,582,0,567424.092,0.685,-0.677,0.194,0.188,0,0,0,0,0,0,0,0,0,0.000,0,0,0.128,0.003,0.120,-0.040,-0.020,0.015,0.996,0.011,0.002,0.002,0.000,0.000,0.000,0.000,0.000,0,2,0,2,7,255,1200,300,0,0,-89.500,0.621,-31.297
EX0521-092111,8,C16,prep,598,598,0,567429.092,0.685,-0.677,0.194,0.188,0,0,0,0,0,0,0,0,0,0.000,0,0,0.128,0.003,-0.120,-0.040,-0.020,0.014,0.994,0.010,0.002,0.002,0.000,0.000,0.000,0.000,0.000,0,2,0,2,7,255,1200,300,0,0,-89.501,0.621,-31.297
EX0521-092111,8,C16,prep,598,598,0,567434.092,0.685,-0.677,0.194,0.188,0,0,0,0,0,0,0,0,0,0.000,0,0,0.075,0.003,-0.060,-0.040,-0.020,0.015,0.994,0.012,0.002,0.002,0.000,0.000,0.000,0.000,0.000,0,2,0,2,7,255,1200,300,0,0,-89.501,0.621,-31.297
EX0521-092111,8,C16,prep,630,630,0,567439.092,0.685,-0.677,0.194,0.188,0,0,0,0,0,0,0,0,0,0.000,0,0,0.123,0.002,0.120,0.020,-0.020,0.014,0.994,0.012,0.000,0.002,-0.004,0.000,0.000,0.000,0.000,0,2,0,2,7,255,1200,300,0,0,-89.501,0.621,-31.297
EX0521-092111,8,C16,prep,630,630,0,567444.092,0.685,-0.677,0.194,0.188,0,0,0,0,0,0,0,0,0,0.000,0,0,0.075,0.004,-0.060,-0.040,-0.020,0.015,0.995,0.010,0.004,0.002,-0.004,0.000,0.000,0.000,0.000,0,2,0,2,7,255,1200,300,0,0,-89.501,0.621,-31.297
EX0521-092111,8,C16,prep,630,630,0,567449.092,0.685,-0.677,0.194,0.188,0,0,0,0,0,0,0,0,0,0.000,0,0,0.128,0.004,-0.120,-0.040,-0.020,0.014,0.994,0.012,-0.004,0.002,0.000,0.000,0.000,0.000,0.000,0,2,0,2,7,255,1200,300,0,0,-89.501,0.621,-31.297
EX0521-092111,8,C16,prep,630,630,0,567454.092,0.685,-0.677,0.194,0.188,0,0,0,0,0,0,0,0,0,0.000,0,0,0.075,0.002,0.060,-0.040,-0.020,0.015,0.995,0.011,0.002,0.000,0.006,0.000,0.000,0.000,0.000,0,2,0,2,7,255,1200,300,0,0,-89.501,0.621,-31.297
EX0521-092111,8,C16,prep,630,630,0,567459.092,0.685,-0.677,0.194,0.188,0,0,0,0,0,0,0,0,0,0.000,0,0,0.102,0.002,-0.060,0.020,-0.080,0.015,0.993,0.011,0.002,0.000,0.000,0.000,0.000,0.000,0.000,0,2,0,2,7,255,1200,300,0,0,-89.501,0.621,-31.297
EX0521-092111,8,C16,prep,630,630,0,567464.093,0.685,-0.677,0.194,0.188,0,0,0,0,0,0,0,0,0,0.000,0,0,0.154,0.004,-0.140,-0.060,-0.020,0.015,0.994,0.012,0.004,0.000,-0.004,0.000,0.000,0.000,0.000,0,2,0,2,7,255,1200,300,0,0,-89.502,0.621,-31.297
EX0521-092111,8,C16,prep,662,662,0,567469.092,0.685,-0.677,0.194,0.188,0,0,0,0,0,0,0,0,0,0.000,0,0,0.094,0.007,0.060,-0.060,0.040,0.014,0.994,0.014,0.004,-0.006,-0.004,0.000,0.000,0.000,0.000,0,2,0,2,7,255,1200,300,0,0,-89.497,0.621,-31.297
EX0521-092111,8,C16,prep,662,662,0,567474.092,0.685,-0.677,0.194,0.188,0,0,0,0,0,0,0,0,0,0.000,0,0,0.072,0.007,0.000,-0.060,0.040,0.014,0.994,0.010,0.004,-0.006,0.000,0.000,0.000,0.000,0.000,0,2,0,2,7,255,1200,300,0,0,-89.497,0.621,-31.297
EX0521-092111,8,C16,prep,662,662,0,567479.092,0.685,-0.677,0.194,0.188,0,0,0,0,0,0,0,0,0,0.000,0,0,0.172,0.008,-0.140,-0.060,-0.080,0.015,0.993,0.010,0.006,0.006,0.000,0.000,0.000,0.000,0.000,0,2,0,2,7,255,1200,300,0,0,-89.498,0.621,-31.297
EX0521-092111,8,C16,prep,662,662,0,567484.092,0.685,-0.677,0.194,0.188,0,0,0,0,0,0,0,0,0,0.000,0,0,0.117,0.012,-0.060,-0.060,-0.080,0.015,0.992,0.011,0.010,0.006,-0.014,0.000,0.000,0.000,0.000,0,2,0,2,7,255,1200,300,0,0,-89.498,0.620,-31.297
EX0521-092111,8,C16,prep,662,662,0,567489.092,0.685,-0.677,0.194,0.188,0,0,0,0,0,0,0,0,0,0.000,0,0,0.117,0.010,0.060,-0.060,-0.080,0.015,0.996,0.012,0.010,0.002,-0.014,0.000,0.000,0.000,0.000,0,2,0,2,7,255,1200,300,0,0,-89.498,0.620,-31.297
EX0521-092111,8,C16,prep,662,662,0,567494.092,0.685,-0.677,0.194,0.188,0,0,0,0,0,0,0,0,0,0.000,0,0,0.087,0.006,-0.060,-0.060,-0.020,0.015,0.994,0.011,0.006,0.002,0.000,0.000,0.000,0.000,0.000,0,2,0,2,7,255,1200,300,0,0,-89.498,0.620,-31.297
EX0521-092111,8,C16,prep,678,678,0,567499.092,0.685,-0.677,0.194,0.188,0,0,0,0,0,0,0,0,0,0.000,0,0,0.063,0.010,0.000,-0.060,-0.020,0.016,0.993,0.012,0.006,-0.008,0.000,0.000,0.000,0.000,0.000,0,2,0,2,7,255,1200,300,0,0,-89.498,0.620,-31.297
EX0521-092111,8,C16,prep,678,678,0,567504.092,0.685,-0.677,0.194,0.188,0,0,0,0,0,0,0,0,0,0.000,0,0,0.087,0.008,0.060,-0.060,-0.020,0.014,0.994,0.011,0.006,0.006,0.000,0.000,0.000,0.000,0.000,0,2,0,2,7,255,1200,300,0,0,-89.498,0.620,-31.297
EX0521-092111,8,C16,prep,678,678,0,567509.092,0.685,-0.677,0.194,0.188,0,0,0,0,0,0,0,0,0,0.000,0,0,0.102,0.006,-0.060,0.020,-0.080,0.014,0.994,0.010,0.000,0.006,-0.004,0.000,0.000,0.000,0.000,0,2,0,2,7,255,1200,300,0,0,-89.498,0.620,-31.297
EX0521-092111,8,C16,prep,678,678,0,567514.092,0.685,-0.677,0.194,0.188,0,0,0,0,0,0,0,0,0,0.000,0,0,0.075,0.010,-0.060,-0.040,-0.020,0.013,0.995,0.011,-0.006,0.008,0.000,0.000,0.000,0.000,0.000,0,2,0,2,7,255,1200,300,0,0,-89.499,0.620,-31.297
EX0521-092111,8,C16,prep,678,678,0,567519.092,0.685,-0.677,0.194,0.188,0,0,0,0,0,0,0,0,0,0.000,0,0,0.122,0.013,0.000,-0.120,-0.020,0.014,0.996,0.012,-0.010,0.008,0.010,0.000,0.000,0.000,0.000,0,2,0,2,7,255,1200,300,0,0,-89.499,0.620,-31.297
EX0521-092111,8,C16,prep,678,678,0,567524.092,0.685,-0.677,0.194,0.188,0,0,0,0,0,0,0,0,0,0.000,0,0,0.108,0.010,0.060,-0.040,-0.080,0.015,0.994,0.011,-0.010,-0.002,0.010,0.000,0.000,0.000,0.000,0,2,0,2,7,255,1200,300,0,0,-89.499,0.620,-31.297
EX0521-092111,8,C16,prep,695,695,0,567529.092,0.685,-0.677,0.194,0.188,0,0,0,0,0,0,0,0,0,0.000,0,0,0.128,0.003,-0.120,-0.040,-0.020,0.015,0.994,0.011,0.002,-0.002,-0.004,0.000,0.000,0.000,0.000,0,2,0,2,7,255,1200,300,0,0,-89.499,0.620,-31.297
EX0521-092111,8,C16,prep,695,695,0,567534.092,0.685,-0.677,0.194,0.188,0,0,0,0,0,0,0,0,0,0.000,0,0,0.136,0.006,0.060,-0.120,-0.020,0.015,0.994,0.010,0.006,0.000,-0.004,0.000,0.000,0.000,0.000,0,2,0,2,7,255,1200,300,0,0,-89.499,0.620,-31.297
EX0521-092111,8,C16,prep,743,743,0,567539.092,0.685,-0.677,0.194,0.188,0,0,0,0,0,0,0,0,0,0.000,0,0,0.136,0.010,0.060,-0.120,-0.020,0.015,0.993,0.010,0.008,0.006,-0.004,0.000,0.000,0.000,0.000,0,2,0,2,7,255,1200,300,0,0,-89.499,0.620,-31.297
EX0521-092111,8,C16,prep,743,743,0,567544.092,0.685,-0.677,0.194,0.188,0,0,0,0,0,0,0,0,0,0.000,0,0,0.066,0.010,-0.060,0.020,-0.020,0.015,0.995,0.012,0.008,0.006,-0.004,0.000,0.000,0.000,0.000,0,2,0,2,7,255,1200,300,0,0,-89.499,0.620,-31.297
EX0521-092111,8,C16,prep,743,743,0,567549.092,0.685,-0.677,0.194,0.188,0,0,0,0,0,0,0,0,0,0.000,0,0,0.028,0.002,0.000,0.020,-0.020,0.014,0.994,0.012,0.000,0.002,-0.004,0.000,0.000,0.000,0.000,0,2,0,2,7,255,1200,300,0,0,-89.500,0.620,-31.297
EX0521-092111,8,C16,prep,743,743,0,567554.092,0.685,-0.677,0.194,0.188,0,0,0,0,0,0,0,0,0,0.000,0,0,0.108,0.004,0.060,-0.040,-0.080,0.015,0.994,0.012,0.000,-0.004,0.000,0.000,0.000,0.000,0.000,0,2,0,2,7,255,1200,300,0,0,-89.500,0.620,-31.297
EX0521-092111,8,C16,prep,743,743,0,567559.092,0.685,-0.677,0.194,0.188,0,0,0,0,0,0,0,0,0,0.000,0,0,0.172,0.004,-0.140,-0.060,-0.080,0.014,0.992,0.012,-0.004,-0.002,-0.004,0.000,0.000,0.000,0.000,0,2,0,2,7,255,1200,300,0,0,-89.500,0.620,-31.297
EX0521-092111,8,C16,prep,743,743,0,567564.093,0.685,-0.677,0.194,0.188,0,0,0,0,0,0,0,0,0,0.000,0,0,0.087,0.006,-0.060,-0.060,-0.020,0.014,0.994,0.012,-0.004,-0.004,-0.004,0.000,0.000,0.000,0.000,0,2,0,2,7,255,1200,300,0,0,-89.500,0.620,-31.297
EX0521-092111,8,C16,prep,759,759,0,567569.092,0.685,-0.677,0.194,0.188,0,0,0,0,0,0,0,0,0,0.000,0,0,0.136,0.006,0.060,-0.120,-0.020,0.014,0.994,0.011,-0.006,-0.002,-0.004,0.000,0.000,0.000,0.000,0,2,0,2,7,255,1200,300,0,0,-89.500,0.620,-31.297
EX0521-092111,8,C16,prep,759,759,0,567574.092,0.685,-0.677,0.194,0.188,0,0,0,0,0,0,0,0,0,0.000,0,0,0.136,0.008,-0.060,-0.120,-0.020,0.014,0.996,0.011,-0.006,0.006,-0.004,0.000,0.000,0.000,0.000,0,2,0,2,7,255,1200,300,0,0,-89.500,0.620,-31.297
EX0521-092111,8,C16,prep,759,759,0,567579.092,0.685,-0.677,0.194,0.188,0,0,0,0,0,0,0,0,0,0.000,0,0,0.100,0.006,0.000,-0.060,-0.080,0.015,0.994,0.011,0.000,0.006,0.002,0.000,0.000,0.000,0.000,0,2,0,2,7,255,1200,300,0,0,-89.500,0.620,-31.297
EX0521-092111,8,C16,prep,759,759,0,567584.092,0.685,-0.677,0.194,0.188,0,0,0,0,0,0,0,0,0,0.000,0,0,0.082,0.008,0.000,0.020,-0.080,0.015,0.993,0.010,0.006,0.006,0.002,0.000,0.000,0.000,0.000,0,2,0,2,7,255,1200,300,0,0,-89.501,0.619,-31.297
EX0521-092111,8,C16,prep,759,759,0,567589.092,0.685,-0.677,0.194,0.188,0,0,0,0,0,0,0,0,0,0.000,0,0,0.087,0.008,0.060,-0.060,-0.020,0.014,0.994,0.011,0.006,0.006,-0.004,0.000,0.000,0.000,0.000,0,2,0,2,7,255,1200,300,0,0,-89.501,0.619,-31.297
EX0521-092111,8,C16,prep,759,759,0,567594.092,0.685,-0.677,0.194,0.188,0,0,0,0,0,0,0,0,0,0.000,0,0,0.087,0.007,-0.060,-0.060,-0.020,0.015,0.994,0.012,0.004,0.006,-0.004,0.000,0.000,0.000,0.000,0,2,0,2,7,255,1200,300,0,0,-89.501,0.619,-31.297
EX0521-092111,8,C16,prep,775,775,0,567599.092,0.685,-0.677,0.194,0.188,0,0,0,0,0,0,0,0,0,0.000,0,0,0.136,0.002,0.060,-0.120,-0.020,0.015,0.995,0.011,0.002,0.000,-0.004,0.000,0.000,0.000,0.000,0,2,0,2,7,255,1200,300,0,0,-89.501,0.619,-31.297
EX0521-092111,8,C16,prep,775,775,0,567604.092,0.685,-0.677,0.194,0.188,0,0,0,0,0,0,0,0,0,0.000,0,0,0.066,0.004,0.060,0.020,-0.020,0.015,0.994,0.011,0.004,0.000,-0.004,0.000,0.000,0.000,0.000,0,2,0,2,7,255,1200,300,0,0,-89.501,0.619,-31.297
EX0521-092111,8,C16,prep,775,775,0,567609.092,0.685,-0.677,0.194,0.188,0,0,0,0,0,0,0,0,0,0.000,0,0,0.057,0.006,0.000,-0.040,0.040,0.015,0.993,0.011,0.004,0.004,-0.004,0.000,0.000,0.000,0.000,0,2,0,2,7,255,1200,300,0,0,-89.501,0.619,-31.297
EX0521-092111,8,C16,prep,775,775,0,567614.092,0.685,-0.677,0.194,0.188,0,0,0,0,0,0,0,0,0,0.000,0,0,0.102,0.006,0.060,0.020,-0.080,0.015,0.994,0.010,0.004,0.004,-0.004,0.000,0.000,0.000,0.000,0,2,0,2,7,255,1200,300,0,0,-89.501,0.619,-31.297
EX0521-092111,8,C16,prep,790,790,0,567619.092,0.685,-0.677,0.194,0.188,0,0,0,0,0,0,0,0,0,0.000,0,0,0.045,0.006,0.000,-0.040,-0.020,0.014,0.994,0.011,0.004,0.004,-0.004,0.000,0.000,0.000,0.000,0,2,0,2,7,255,1200,300,0,0,-89.502,0.619,-31.297
EX0521-092111,8,C16,prep,790,790,0,567624.092,0.685,-0.677,0.194,0.188,0,0,0,0,0,0,0,0,0,0.000,0,0,0.075,0.003,-0.060,-0.040,-0.020,0.015,0.993,0.011,0.002,0.002,-0.004,0.000,0.000,0.000,0.000,0,2,0,2,7,255,1200,300,0,0,-89.502,0.619,-31.297
EX0521-092111,8,C16,prep,806,806,0,567629.091,0.685,-0.677,0.194,0.188,0,0,0,0,0,0,0,0,0,0.000,0,0,0.102,0.002,0.000,-0.100,-0.020,0.014,0.995,0.013,-0.002,0.000,-0.004,0.000,0.000,0.000,0.000,0,2,0,2,7,255,1200,300,0,0,-89.502,0.619,-31.297
EX0521-092111,8,C16,prep,806,806,0,567634.092,0.685,-0.677,0.194,0.188,0,0,0,0,0,0,0,0,0,0.000,0,0,0.118,0.004,0.060,-0.100,-0.020,0.015,0.993,0.012,0.000,-0.004,-0.008,0.000,0.000,0.000,0.000,0,2,0,2,7,255,1200,300,0,0,-89.502,0.619,-31.297
EX0521-092111,8,C16,prep,806,806,0,567639.091,0.685,-0.677,0.194,0.188,0,0,0,0,0,0,0,0,0,0.000,0,0,0.075,0.006,-0.060,-0.040,-0.020,0.014,0.994,0.011,-0.004,-0.004,-0.004,0.000,0.000,0.000,0.000,0,2,0,2,7,255,1200,300,0,0,-89.502,0.619,-31.297
EX0521-092111,8,C16,prep,806,806,0,567644.091,0.685,-0.677,0.194,0.188,0,0,0,0,0,0,0,0,0,0.000,0,0,0.045,0.004,0.000,-0.040,-0.020,0.014,0.993,0.012,-0.004,-0.002,-0.008,0.000,0.000,0.000,0.000,0,2,0,2,7,255,1200,300,0,0,-89.502,0.619,-31.297
EX0521-092111,8,C16,prep,838,838,0,567649.091,0.685,-0.677,0.194,0.188,0,0,0,0,0,0,0,0,0,0.000,0,0,0.075,0.004,0.060,-0.040,-0.020,0.015,0.993,0.012,-0.004,-0.002,-0.008,0.000,0.000,0.000,0.000,0,2,0,2,7,255,1200,300,0,0,-89.502,0.619,-31.297
EX0521-092111,8,C16,prep,838,838,0,567654.092,0.685,-0.677,0.194,0.188,0,0,0,0,0,0,0,0,0,0.000,0,0,0.045,0.004,0.000,-0.040,-0.020,0.015,0.995,0.012,0.000,-0.004,-0.008,0.000,0.000,0.000,0.000,0,2,0,2,7,255,1200,300,0,0,-89.503,0.619,-31.297
EX0521-092111,8,C16,prep,838,838,0,567659.091,0.685,-0.677,0.194,0.188,0,0,0,0,0,0,0,0,0,0.000,0,0,0.087,0.004,-0.060,-0.060,-0.020,0.014,0.994,0.010,0.000,-0.004,0.002,0.000,0.000,0.000,0.000,0,2,0,2,7,255,1200,300,0,0,-89.503,0.619,-31.297
EX0521-092111,8,C16,prep,838,838,0,567664.093,0.685,-0.677,0.194,0.188,0,0,0,0,0,0,0,0,0,0.000,0,0,0.063,0.002,0.000,-0.060,-0.020,0.014,0.994,0.011,0.000,0.002,0.002,0.000,0.000,0.000,0.000,0,2,0,2,7,255,1200,300,0,0,-89.503,0.619,-31.297
EX0521-092111,8,C16,prep,838,838,0,567669.091,0.685,-0.677,0.194,0.188,0,0,0,0,0,0,0,0,0,0.000,0,0,0.136,0.004,0.060,-0.120,-0.020,0.014,0.995,0.011,-0.002,0.004,0.002,0.000,0.000,0.000,0.000,0,2,0,2,7,255,1200,300,0,0,-89.503,0.619,-31.297
EX0521-092111,8,C16,prep,838,838,0,567674.091,0.685,-0.677,0.194,0.188,0,0,0,0,0,0,0,0,0,0.000,0,0,0.028,0.004,0.000,0.020,-0.020,0.014,0.994,0.012,-0.004,0.002,0.002,0.000,0.000,0.000,0.000,0,2,0,2,7,255,1200,300,0,0,-89.503,0.619,-31.297
EX0521-092111,8,C16,prep,857,857,0,567679.091,0.685,-0.677,0.194,0.188,0,0,0,0,0,0,0,0,0,0.000,0,0,0.117,0.004,-0.060,-0.060,-0.080,0.015,0.993,0.012,-0.004,-0.002,-0.004,0.000,0.000,0.000,0.000,0,2,0,2,7,255,1200,300,0,0,-89.503,0.619,-31.297
EX0521-092111,8,C16,prep,857,857,0,567684.091,0.685,-0.677,0.194,0.188,0,0,0,0,0,0,0,0,0,0.000,0,0,0.066,0.004,0.060,0.020,-0.020,0.016,0.995,0.010,0.004,-0.002,-0.004,0.000,0.000,0.000,0.000,0,2,0,2,7,255,1200,300,0,0,-89.504,0.620,-31.297
EX0521-092111,8,C16,prep,857,857,0,567689.091,0.685,-0.677,0.194,0.188,0,0,0,0,0,0,0,0,0,0.000,0,0,0.063,0.004,0.000,-0.060,-0.020,0.014,0.993,0.012,0.004,-0.002,-0.008,0.000,0.000,0.000,0.000,0,2,0,2,7,255,1200,300,0,0,-89.504,0.620,-31.297
EX0521-092111,8,C16,prep,857,857,0,567694.092,0.685,-0.677,0.194,0.188,0,0,0,0,0,0,0,0,0,0.000,0,0,0.100,0.004,0.000,-0.060,-0.080,0.015,0.994,0.012,-0.004,-0.002,0.002,0.000,0.000,0.000,0.000,0,2,0,2,7,255,1200,300,0,0,-89.504,0.620,-31.297
EX0521-092111,8,C16,prep,870,870,0,567699.091,0.685,-0.677,0.194,0.188,0,0,0,0,0,0,0,0,0,0.000,0,0,0.063,0.009,0.000,-0.060,-0.020,0.015,0.993,0.012,-0.004,-0.008,-0.008,0.000,0.000,0.000,0.000,0,2,0,2,7,255,1200,300,0,0,-89.504,0.620,-31.297
EX0521-092111,8,C16,prep,870,870,0,567704.091,0.685,-0.677,0.194,0.188,0,0,0,0,0,0,0,0,0,0.000,0,0,0.063,0.008,0.000,-0.060,-0.020,0.014,0.993,0.011,-0.002,-0.008,-0.008,0.000,0.000,0.000,0.000,0,2,0,2,7,255,1200,300,0,0,-89.504,0.620,-31.297
EX0521-092111,8,C16,prep,895,895,0,567709.091,0.685,-0.677,0.194,0.188,0,0,0,0,0,0,0,0,0,0.000,0,0,0.020,0.003,0.000,0.000,-0.020,0.014,0.993,0.011,-0.002,0.002,-0.008,0.000,0.000,0.000,0.000,0,2,0,2,7,255,1200,300,0,0,-89.504,0.620,-31.297
EX0521-092111,8,C16,prep,895,895,0,567714.091,0.685,-0.677,0.194,0.188,0,0,0,0,0,0,0,0,0,0.000,0,0,0.063,0.003,0.000,-0.060,-0.020,0.014,0.994,0.011,-0.002,0.002,-0.008,0.000,0.000,0.000,0.000,0,2,0,2,7,255,1200,300,0,0,-89.504,0.620,-31.297
EX0521-092111,8,C16,prep,895,895,0,567719.091,0.685,-0.677,0.194,0.188,0,0,0,0,0,0,0,0,0,0.000,0,0,0.102,0.003,-0.080,-0.060,-0.020,0.013,0.993,0.010,-0.002,0.002,-0.008,0.000,0.000,0.000,0.000,0,2,0,2,7,255,1200,300,0,0,-89.505,0.620,-31.297
EX0521-092111,8,C16,prep,895,895,0,567724.091,0.685,-0.677,0.194,0.188,0,0,0,0,0,0,0,0,0,0.000,0,0,0.063,0.006,0.000,-0.060,-0.020,0.014,0.993,0.012,-0.006,0.002,-0.008,0.000,0.000,0.000,0.000,0,2,0,2,7,255,1200,300,0,0,-89.505,0.620,-31.297
EX0521-092111,8,C16,prep,895,895,0,567729.091,0.685,-0.677,0.194,0.188,0,0,0,0,0,0,0,0,0,0.000,0,0,0.063,0.007,0.000,-0.060,-0.020,0.015,0.994,0.011,-0.006,0.004,-0.008,0.000,0.000,0.000,0.000,0,2,0,2,7,255,1200,300,0,0,-89.505,0.620,-31.297
EX0521-092111,8,C16,prep,895,895,0,567734.091,0.685,-0.677,0.194,0.188,0,0,0,0,0,0,0,0,0,0.000,0,0,0.063,0.003,0.000,-0.060,-0.020,0.014,0.993,0.011,-0.002,0.002,-0.008,0.000,0.000,0.000,0.000,0,2,0,2,7,255,1200,300,0,0,-89.505,0.619,-31.297
EX0521-092111,8,C16,prep,929,929,0,567739.091,0.685,-0.677,0.194,0.188,0,0,0,0,0,0,0,0,0,0.000,0,0,0.063,0.006,0.000,-0.060,-0.020,0.015,0.995,0.010,0.004,0.004,-0.002,0.000,0.000,0.000,0.000,0,2,0,2,7,255,1200,300,0,0,-89.505,0.619,-31.297
EX0521-092111,8,C16,prep,929,929,0,567744.091,0.685,-0.677,0.194,0.188,0,0,0,0,0,0,0,0,0,0.000,0,0,0.063,0.003,0.000,-0.060,-0.020,0.014,0.994,0.012,-0.002,0.002,0.002,0.000,0.000,0.000,0.000,0,2,0,2,7,255,1200,300,0,0,-89.505,0.619,-31.297
EX0521-092111,8,C16,prep,967,967,0,567749.091,0.685,-0.677,0.194,0.188,0,0,0,0,0,0,0,0,0,0.000,0,0,0.063,0.006,0.000,-0.060,-0.020,0.014,0.994,0.011,0.000,0.006,0.002,0.000,0.000,0.000,0.000,0,2,0,2,7,255,1200,300,0,0,-89.505,0.619,-31.297
EX0521-092111,8,C16,prep,967,967,0,567754.092,0.685,-0.677,0.194,0.188,0,0,0,0,0,0,0,0,0,0.000,0,0,0.063,0.000,0.000,-0.060,-0.020,0.015,0.994,0.012,0.000,0.000,0.002,0.000,0.000,0.000,0.000,0,2,0,2,7,255,1200,300,0,0,-89.506,0.619,-31.297
EX0521-092111,8,C16,prep,967,967,0,567759.092,0.685,-0.677,0.194,0.188,0,0,0,0,0,0,0,0,0,0.000,0,0,0.063,0.004,0.000,-0.060,-0.020,0.016,0.993,0.010,0.004,0.002,-0.002,0.000,0.000,0.000,0.000,0,2,0,2,7,255,1200,300,0,0,-89.506,0.619,-31.297
EX0521-092111,8,C16,prep,967,967,0,567764.093,0.685,-0.677,0.194,0.188,0,0,0,0,0,0,0,0,0,0.000,0,0,0.156,0.014,0.060,-0.120,-0.080,0.015,0.994,0.010,0.014,0.002,-0.002,0.000,0.000,0.000,0.000,0,2,0,2,7,255,1200,300,0,0,-89.506,0.619,-31.297
EX0521-092111,8,C16,prep,967,967,0,567769.091,0.685,-0.677,0.194,0.188,0,0,0,0,0,0,0,0,0,0.000,0,0,0.094,0.016,-0.060,-0.060,0.040,0.014,0.994,0.010,0.014,0.008,-0.002,0.000,0.000,0.000,0.000,0,2,0,2,7,255,1200,300,0,0,-89.506,0.619,-31.297
EX0521-092111,8,C16,prep,967,967,0,567774.091,0.685,-0.677,0.194,0.188,0,0,0,0,0,0,0,0,0,0.000,0,0,0.063,0.008,0.000,-0.060,-0.020,0.014,0.994,0.012,-0.002,0.008,-0.002,0.000,0.000,0.000,0.000,0,2,0,2,7,255,1200,300,0,0,-89.506,0.619,-31.297
EX0521-092111,8,C16,prep,967,967,0,567779.091,0.685,-0.677,0.194,0.188,0,0,0,0,0,0,0,0,0,0.000,0,0,0.063,0.002,0.000,-0.060,-0.020,0.015,0.994,0.012,-0.002,0.000,-0.002,0.000,0.000,0.000,0.000,0,2,0,2,7,255,1200,300,0,0,-89.506,0.619,-31.297
EX0521-092111,8,C16,prep,967,967,0,567784.091,0.685,-0.677,0.194,0.188,0,0,0,0,0,0,0,0,0,0.000,0,0,0.087,0.010,-0.060,-0.060,-0.020,0.014,0.994,0.012,-0.008,-0.006,-0.002,0.000,0.000,0.000,0.000,0,2,0,2,7,255,1200,300,0,0,-89.506,0.619,-31.297
EX0521-092111,8,C16,prep,967,967,0,567789.091,0.685,-0.677,0.194,0.188,0,0,0,0,0,0,0,0,0,0.000,0,0,0.063,0.006,0.000,-0.060,-0.020,0.015,0.995,0.012,0.000,-0.006,0.002,0.000,0.000,0.000,0.000,0,2,0,2,7,255,1200,300,0,0,-89.507,0.619,-31.297
EX0521-092111,8,C16,prep,967,967,0,567794.093,0.685,-0.677,0.194,0.188,0,0,0,0,0,0,0,0,0,0.000,0,0,0.102,0.007,0.060,0.020,-0.080,0.014,0.994,0.012,-0.004,-0.006,0.002,0.000,0.000,0.000,0.000,0,2,0,2,7,255,1200,300,0,0,-89.507,0.619,-31.297
EX0521-092111,8,C16,prep,967,967,0,567799.091,0.685,-0.677,0.194,0.188,0,0,0,0,0,0,0,0,0,0.000,0,0,0.100,0.006,0.000,-0.060,-0.080,0.016,0.993,0.012,0.000,-0.006,0.002,0.000,0.000,0.000,0.000,0,2,0,2,7,255,1200,300,0,0,-89.507,0.619,-31.297
EX0521-092111,8,C16,prep,967,967,0,567804.091,0.685,-0.677,0.194,0.188,0,0,0,0,0,0,0,0,0,0.000,0,0,0.028,0.003,0.000,0.020,-0.020,0.014,0.994,0.011,-0.002,-0.002,-0.002,0.000,0.000,0.000,0.000,0,2,0,2,7,255,1200,300,0,0,-89.507,0.619,-31.297
EX0521-092111,8,C16,prep,982,982,0,567809.091,0.685,-0.677,0.194,0.188,0,0,0,0,0,0,0,0,0,0.000,0,0,0.063,0.003,0.000,-0.060,-0.020,0.014,0.993,0.010,0.002,0.002,-0.008,0.000,0.000,0.000,0.000,0,2,0,2,7,255,1200,300,0,0,-89.507,0.619,-31.297
EX0521-092111,8,C16,prep,982,982,0,567814.091,0.685,-0.677,0.194,0.188,0,0,0,0,0,0,0,0,0,0.000,0,0,0.063,0.003,0.000,-0.060,-0.020,0.015,0.993,0.011,0.002,0.002,-0.008,0.000,0.000,0.000,0.000,0,2,0,2,7,255,1200,300,0,0,-89.507,0.619,-31.297
EX0521-092111,8,C16,prep,982,982,0,567819.091,0.685,-0.677,0.194,0.188,0,0,0,0,0,0,0,0,0,0.000,0,0,0.028,0.010,0.000,0.020,-0.020,0.014,0.994,0.010,0.002,0.010,-0.008,0.000,0.000,0.000,0.000,0,2,0,2,7,255,1200,300,0,0,-89.507,0.619,-31.297
EX0521-092111,8,C16,prep,982,982,0,567824.091,0.685,-0.677,0.194,0.188,0,0,0,0,0,0,0,0,0,0.000,0,0,0.122,0.004,0.000,-0.120,-0.020,0.015,0.994,0.012,0.002,-0.004,-0.002,0.000,0.000,0.000,0.000,0,2,0,2,7,255,1200,300,0,0,-89.508,0.619,-31.297
EX0521-092111,8,C16,prep,998,998,0,567829.091,0.685,-0.677,0.194,0.188,0,0,0,0,0,0,0,0,0,0.000,0,0,0.122,0.006,0.000,-0.120,-0.020,0.014,0.994,0.011,0.000,0.006,-0.002,0.000,0.000,0.000,0.000,0,2,0,2,7,255,1200,300,0,0,-89.508,0.619,-31.297
EX0521-092111,8,C16,prep,998,998,0,567834.091,0.685,-0.677,0.194,0.188,0,0,0,0,0,0,0,0,0,0.000,0,0,0.144,0.007,0.000,-0.120,-0.080,0.014,0.994,0.011,-0.004,0.006,-0.002,0.000,0.000,0.000,0.000,0,2,0,2,7,255,1200,300,0,0,-89.508,0.618,-31.297
EX0521-092111,8,C16,prep,1016,1016,0,567839.092,0.685,-0.677,0.194,0.188,0,0,0,0,0,0,0,0,0,0.000,0,0,0.063,0.006,0.000,-0.060,-0.020,0.016,0.994,0.012,0.000,0.006,-0.002,0.000,0.000,0.000,0.000,0,2,0,2,7,255,1200,300,0,0,-89.508,0.618,-31.297
EX0521-092111,8,C16,prep,1016,1016,0,567844.091,0.685,-0.677,0.194,0.188,0,0,0,0,0,0,0,0,0,0.000,0,0,0.063,0.004,0.000,-0.060,-0.020,0.015,0.995,0.011,0.004,0.000,-0.002,0.000,0.000,0.000,0.000,0,2,0,2,7,255,1200,300,0,0,-89.508,0.618,-31.297
EX0521-092111,8,C16,prep,1046,1046,0,567849.092,0.685,-0.677,0.194,0.188,0,0,0,0,0,0,0,0,0,0.000,0,0,0.066,0.007,-0.060,0.020,-0.020,0.014,0.994,0.012,0.004,-0.006,0.002,0.000,0.000,0.000,0.000,0,2,0,2,7,255,1200,300,0,0,-89.508,0.618,-31.297
EX0521-092111,8,C16,prep,1046,1046,0,567854.093,0.685,-0.677,0.194,0.188,0,0,0,0,0,0,0,0,0,0.000,0,0,0.063,0.007,0.000,-0.060,-0.020,0.015,0.995,0.012,0.004,-0.006,0.008,0.000,0.000,0.000,0.000,0,2,0,2,7,255,1200,300,0,0,-89.508,0.618,-31.297
EX0521-092111,8,C16,prep,1046,1046,0,567859.091,0.685,-0.677,0.194,0.188,0,0,0,0,0,0,0,0,0,0.000,0,0,0.089,0.007,0.000,-0.040,-0.080,0.015,0.995,0.011,0.004,-0.006,0.008,0.000,0.000,0.000,0.000,0,2,0,2,7,255,1200,300,0,0,-89.509,0.618,-31.297
EX0521-092111,8,C16,prep,1046,1046,0,567864.093,0.685,-0.677,0.194,0.188,0,0,0,0,0,0,0,0,0,0.000,0,0,0.089,0.009,0.000,-0.040,-0.080,0.015,0.995,0.012,0.004,-0.008,0.008,0.000,0.000,0.000,0.000,0,2,0,2,7,255,1200,300,0,0,-89.509,0.618,-31.297
EX0521-092111,8,C16,prep,1046,1046,0,567869.092,0.685,-0.677,0.194,0.188,0,0,0,0,0,0,0,0,0,0.000,0,0,0.045,0.006,0.000,-0.040,-0.020,0.013,0.993,0.011,0.004,-0.004,0.008,0.000,0.000,0.000,0.000,0,2,0,2,7,255,1200,300,0,0,-89.509,0.618,-31.297
EX0521-092111,8,C16,prep,1046,1046,0,567874.092,0.685,-0.677,0.194,0.188,0,0,0,0,0,0,0,0,0,0.000,0,0,0.075,0.003,-0.060,-0.040,-0.020,0.015,0.993,0.011,0.002,-0.002,-0.008,0.000,0.000,0.000,0.000,0,2,0,2,7,255,1200,300,0,0,-89.509,0.618,-31.297
EX0521-092111,8,C16,prep,1062,1062,0,567879.092,0.685,-0.677,0.194,0.188,0,0,0,0,0,0,0,0,0,0.000,0,0,0.118,0.002,-0.060,-0.100,-0.020,0.015,0.994,0.011,0.002,0.000,-0.008,0.000,0.000,0.000,0.000,0,2,0,2,7,255,1200,300,0,0,-89.509,0.618,-31.297
EX0521-092111,8,C16,prep,1062,1062,0,567884.092,0.685,-0.677,0.194,0.188,0,0,0,0,0,0,0,0,0,0.000,0,0,0.075,0.002,-0.060,-0.040,-0.020,0.014,0.994,0.011,0.002,0.000,0.002,0.000,0.000,0.000,0.000,0,2,0,2,7,255,1200,300,0,0,-89.509,0.618,-31.297
EX0521-092111,8,C16,prep,1062,1062,0,567889.092,0.685,-0.677,0.194,0.188,0,0,0,0,0,0,0,0,0,0.000,0,0,0.045,0.002,0.000,-0.040,-0.020,0.014,0.995,0.011,0.000,0.002,0.002,0.000,0.000,0.000,0.000,0,2,0,2,7,255,1200,300,0,0,-89.510,0.618,-31.297
EX0521-092111,8,C16,prep,1062,1062,0,567894.092,0.685,-0.677,0.194,0.188,0,0,0,0,0,0,0,0,0,0.000,0,0,0.118,0.006,-0.060,-0.100,-0.020,0.014,0.993,0.011,-0.002,0.006,0.002,0.000,0.000,0.000,0.000,0,2,0,2,7,255,1200,300,0,0,-89.510,0.618,-31.297
EX0521-092111,8,C16,prep,1062,1062,0,567899.092,0.685,-0.677,0.194,0.188,0,0,0,0,0,0,0,0,0,0.000,0,0,0.045,0.003,0.000,-0.040,-0.020,0.015,0.994,0.012,-0.002,0.002,0.002,0.000,0.000,0.000,0.000,0,2,0,2,7,255,1200,300,0,0,-89.510,0.618,-31.297
EX0521-092111,8,C16,prep,1062,1062,0,567904.092,0.685,-0.677,0.194,0.188,0,0,0,0,0,0,0,0,0,0.000,0,0,0.045,0.007,0.000,-0.040,-0.020,0.015,0.994,0.012,-0.004,-0.006,0.002,0.000,0.000,0.000,0.000,0,2,0,2,7,255,1200,300,0,0,-89.510,0.618,-31.297
EX0521-092111,8,C16,prep,1078,1078,0,567909.092,0.685,-0.677,0.194,0.188,0,0,0,0,0,0,0,0,0,0.000,0,0,0.063,0.006,0.000,-0.060,-0.020,0.015,0.994,0.012,0.000,-0.006,0.002,0.000,0.000,0.000,0.000,0,2,0,2,7,255,1200,300,0,0,-89.510,0.618,-31.297
EX0521-092111,8,C16,prep,1078,1078,0,567914.092,0.685,-0.677,0.194,0.188,0,0,0,0,0,0,0,0,0,0.000,0,0,0.102,0.006,-0.080,-0.060,-0.020,0.014,0.993,0.010,0.000,-0.006,0.002,0.000,0.000,0.000,0.000,0,2,0,2,7,255,1200,300,0,0,-89.510,0.618,-31.297
EX0521-092111,8,C16,prep,1095,1095,0,567919.092,0.685,-0.677,0.194,0.188,0,0,0,0,0,0,0,0,0,0.000,0,0,0.122,0.004,0.000,-0.120,-0.020,0.014,0.993,0.011,0.000,0.004,-0.012,0.000,0.000,0.000,0.000,0,2,0,2,7,255,1200,300,0,0,-89.510,0.618,-31.297
EX0521-092111,8,C16,prep,1095,1095,0,567924.092,0.685,-0.677,0.194,0.188,0,0,0,0,0,0,0,0,0,0.000,0,0,0.063,0.004,0.000,-0.060,-0.020,0.014,0.995,0.011,-0.002,0.004,-0.012,0.000,0.000,0.000,0.000,0,2,0,2,7,255,1200,300,0,0,-89.511,0.618,-31.297
EX0521-092111,8,C16,prep,1110,1110,0,567929.092,0.685,-0.677,0.194,0.188,0,0,0,0,0,0,0,0,0,0.000,0,0,0.144,0.003,0.000,-0.120,-0.080,0.015,0.994,0.011,-0.002,0.002,0.002,0.000,0.000,0.000,0.000,0,2,0,2,7,255,1200,300,0,0,-89.511,0.617,-31.297
EX0521-092111,8,C16,prep,1110,1110,0,567934.092,0.685,-0.677,0.194,0.188,0,0,0,0,0,0,0,0,0,0.000,0,0,0.102,0.003,-0.080,-0.060,-0.020,0.015,0.994,0.011,0.002,-0.002,0.002,0.000,0.000,0.000,0.000,0,2,0,2,7,255,1200,300,0,0,-89.511,0.617,-31.297
EX0521-092111,8,C16,prep,1110,1110,0,567939.092,0.685,-0.677,0.194,0.188,0,0,0,0,0,0,0,0,0,0.000,0,0,0.063,0.003,0.000,-0.060,-0.020,0.015,0.995,0.012,0.002,-0.002,0.002,0.000,0.000,0.000,0.000,0,2,0,2,7,255,1200,300,0,0,-89.511,0.617,-31.297
EX0521-092111,8,C16,prep,1110,1110,0,567944.092,0.685,-0.677,0.194,0.188,0,0,0,0,0,0,0,0,0,0.000,0,0,0.100,0.003,0.000,-0.060,-0.080,0.014,0.994,0.010,0.002,-0.002,0.002,0.000,0.000,0.000,0.000,0,2,0,2,7,255,1200,300,0,0,-89.511,0.617,-31.297
EX0521-092111,8,C16,prep,1129,1129,0,567949.092,0.685,-0.677,0.194,0.188,0,0,0,0,0,0,0,0,0,0.000,0,0,0.102,0.003,-0.080,-0.060,-0.020,0.015,0.994,0.011,0.002,0.002,0.002,0.000,0.000,0.000,0.000,0,2,0,2,7,255,1200,300,0,0,-89.511,0.617,-31.297
EX0521-092111,8,C16,prep,1129,1129,0,567954.092,0.685,-0.677,0.194,0.188,0,0,0,0,0,0,0,0,0,0.000,0,0,0.063,0.003,0.000,-0.060,-0.020,0.014,0.994,0.012,0.002,0.002,0.002,0.000,0.000,0.000,0.000,0,2,0,2,7,255,1200,300,0,0,-89.511,0.617,-31.297
EX0521-092111,8,C16,prep,1142,1142,0,567959.092,0.685,-0.677,0.194,0.188,0,0,0,0,0,0,0,0,0,0.000,0,0,0.045,0.003,0.000,-0.040,-0.020,0.015,0.994,0.011,0.002,-0.002,0.002,0.000,0.000,0.000,0.000,0,2,0,2,7,255,1200,300,0,0,-89.512,0.617,-31.297
EX0521-092111,8,C16,prep,1142,1142,0,567964.093,0.685,-0.677,0.194,0.188,0,0,0,0,0,0,0,0,0,0.000,0,0,0.089,0.004,0.000,-0.040,-0.080,0.015,0.995,0.012,0.002,-0.004,0.002,0.000,0.000,0.000,0.000,0,2,0,2,7,255,1200,300,0,0,-89.512,0.617,-31.297
EX0521-092111,8,C16,prep,1142,1142,0,567969.092,0.685,-0.677,0.194,0.188,0,0,0,0,0,0,0,0,0,0.000,0,0,0.045,0.003,0.000,-0.040,-0.020,0.014,0.993,0.011,0.002,-0.002,0.002,0.000,0.000,0.000,0.000,0,2,0,2,7,255,1200,300,0,0,-89.512,0.617,-31.297
EX0521-092111,8,C16,prep,1142,1142,0,567974.092,0.685,-0.677,0.194,0.188,0,0,0,0,0,0,0,0,0,0.000,0,0,0.045,0.002,0.000,-0.040,-0.020,0.014,0.994,0.011,-0.002,0.000,0.002,0.000,0.000,0.000,0.000,0,2,0,2,7,255,1200,300,0,0,-89.512,0.617,-31.297
EX0521-092111,8,C16,prep,1161,1161,0,567979.092,0.685,-0.677,0.194,0.188,0,0,0,0,0,0,0,0,0,0.000,0,0,0.089,0.002,0.000,-0.040,-0.080,0.016,0.993,0.012,-0.002,0.000,-0.008,0.000,0.000,0.000,0.000,0,2,0,2,7,255,1200,300,0,0,-89.512,0.617,-31.297
EX0521-092111,8,C16,prep,1161,1161,0,567984.092,0.685,-0.677,0.194,0.188,0,0,0,0,0,0,0,0,0,0.000,0,0,0.045,0.009,0.000,-0.040,-0.020,0.015,0.994,0.012,0.004,-0.008,0.002,0.000,0.000,0.000,0.000,0,2,0,2,7,255,1200,300,0,0,-89.512,0.617,-31.297
EX0521-092111,8,C16,prep,1161,1161,0,567989.092,0.685,-0.677,0.194,0.188,0,0,0,0,0,0,0,0,0,0.000,0,0,0.075,0.009,0.060,-0.040,-0.020,0.014,0.994,0.011,0.004,-0.008,-0.002,0.000,0.000,0.000,0.000,0,2,0,2,7,255,1200,300,0,0,-89.512,0.617,-31.297
EX0521-092111,8,C16,prep,1161,1161,0,567994.092,0.685,-0.677,0.194,0.188,0,0,0,0,0,0,0,0,0,0.000,0,0,0.075,0.004,0.060,-0.040,-0.020,0.014,0.993,0.010,0.002,0.004,-0.002,0.000,0.000,0.000,0.000,0,2,0,2,7,255,1200,300,0,0,-89.513,0.617,-31.297
EX0521-092111,8,C16,prep,1175,1175,0,567999.092,0.685,-0.677,0.194,0.188,0,0,0,0,0,0,0,0,0,0.000,0,0,0.122,0.004,0.000,-0.120,-0.020,0.015,0.994,0.011,0.002,0.004,-0.002,0.000,0.000,0.000,0.000,0,2,0,2,7,255,1200,300,0,0,-89.513,0.617,-31.297
EX0521-092111,8,C16,prep,1175,1175,0,568004.092,0.685,-0.677,0.194,0.188,0,0,0,0,0,0,0,0,0,0.000,0,0,0.045,0.004,0.000,-0.040,-0.020,0.015,0.994,0.012,0.004,0.000,-0.002,0.000,0.000,0.000,0.000,0,2,0,2,7,255,1200,300,0,0,-89.513,0.617,-31.297
EX0521-092111,8,C16,prep,1175,1175,0,568009.092,0.685,-0.677,0.194,0.188,0,0,0,0,0,0,0,0,0,0.000,0,0,0.117,0.004,-0.060,-0.060,-0.080,0.014,0.993,0.012,0.004,0.000,-0.002,0.000,0.000,0.000,0.000,0,2,0,2,7,255,1200,300,0,0,-89.513,0.617,-31.297
EX0521-092111,8,C16,prep,1175,1175,0,568014.092,0.685,-0.677,0.194,0.188,0,0,0,0,0,0,0,0,0,0.000,0,0,0.063,0.002,0.000,-0.060,-0.020,0.014,0.994,0.011,-0.002,0.000,0.002,0.000,0.000,0.000,0.000,0,2,0,2,7,255,1200,300,0,0,-89.513,0.617,-31.297
EX0521-092111,8,C16,prep,1190,1190,0,568019.092,0.685,-0.677,0.194,0.188,0,0,0,0,0,0,0,0,0,0.000,0,0,0.136,0.002,0.060,-0.120,-0.020,0.015,0.995,0.011,-0.002,0.000,0.002,0.000,0.000,0.000,0.000,0,2,0,2,7,255,1200,300,0,0,-89.513,0.617,-31.297
EX0521-092111,8,C16,prep,1190,1190,0,568024.092,0.685,-0.677,0.194,0.188,0,0,0,0,0,0,0,0,0,0.000,0,0,0.122,0.004,0.000,-0.120,-0.020,0.015,0.994,0.011,0.004,0.002,0.002,0.000,0.000,0.000,0.000,0,2,0,2,7,255,1200,300,0,0,-89.513,0.617,-31.297
EX0521-092111,8,C16,prep,1190,1190,0,568029.092,0.685,-0.677,0.194,0.188,0,0,0,0,0,0,0,0,0,0.000,0,0,0.087,0.004,-0.060,-0.060,-0.020,0.015,0.995,0.011,0.004,0.002,0.008,0.000,0.000,0.000,0.000,0,2,0,2,7,255,1200,300,0,0,-89.514,0.616,-31.297
EX0521-092111,8,C16,prep,1190,1190,0,568034.092,0.685,-0.677,0.194,0.188,0,0,0,0,0,0,0,0,0,0.000,0,0,0.028,0.003,0.000,0.020,-0.020,0.013,0.994,0.012,0.002,0.002,0.002,0.000,0.000,0.000,0.000,0,2,0,2,7,255,1200,300,0,0,-89.514,0.616,-31.297
EX0521-092111,8,C16,prep,1227,1227,0,568039.092,0.685,-0.677,0.194,0.188,0,0,0,0,0,0,0,0,0,0.000,0,0,0.156,0.002,-0.060,-0.120,-0.080,0.014,0.996,0.011,-0.002,0.000,0.008,0.000,0.000,0.000,0.000,0,2,0,2,7,255,1200,300,0,0,-89.514,0.616,-31.297
EX0521-092111,8,C16,prep,1227,1227,0,568044.092,0.685,-0.677,0.194,0.188,0,0,0,0,0,0,0,0,0,0.000,0,0,0.087,0.003,-0.060,-0.060,-0.020,0.015,0.993,0.011,-0.002,0.002,0.002,0.000,0.000,0.000,0.000,0,2,0,2,7,255,1200,300,0,0,-89.514,0.616,-31.297
EX0521-092111,8,C16,prep,1238,1238,0,568049.092,0.685,-0.677,0.194,0.188,0,0,0,0,0,0,0,0,0,0.000,0,0,0.087,0.002,0.060,-0.060,-0.020,0.014,0.995,0.011,0.000,0.002,0.012,0.000,0.000,0.000,0.000,0,2,0,2,7,255,1200,300,0,0,-89.514,0.616,-31.297
EX0521-092111,8,C16,prep,1238,1238,0,568054.092,0.685,-0.677,0.194,0.188,0,0,0,0,0,0,0,0,0,0.000,0,0,0.063,0.006,0.000,-0.060,-0.020,0.015,0.994,0.010,0.004,0.004,-0.002,0.000,0.000,0.000,0.000,0,2,0,2,7,255,1200,300,0,0,-89.514,0.616,-31.297
EX0521-092111,8,C16,prep,1238,1238,0,568059.092,0.685,-0.677,0.194,0.188,0,0,0,0,0,0,0,0,0,0.000,0,0,0.045,0.011,0.000,-0.040,-0.020,0.016,0.994,0.011,0.010,0.004,0.002,0.000,0.000,0.000,0.000,0,2,0,2,7,255,1200,300,0,0,-89.514,0.616,-31.297
EX0521-092111,8,C16,prep,1238,1238,0,568064.093,0.685,-0.677,0.194,0.188,0,0,0,0,0,0,0,0,0,0.000,0,0,0.075,0.011,-0.060,-0.040,-0.020,0.015,0.993,0.010,0.010,0.004,-0.002,0.000,0.000,0.000,0.000,0,2,0,2,7,255,1200,300,0,0,-89.515,0.616,-31.297
EX0521-092111,8,C16,prep,1257,1257,0,568069.092,0.685,-0.677,0.194,0.188,0,0,0,0,0,0,0,0,0,0.000,0,0,0.066,0.011,-0.060,0.020,-0.020,0.014,0.994,0.011,0.010,0.004,0.002,0.000,0.000,0.000,0.000,0,2,0,2,7,255,1200,300,0,0,-89.515,0.616,-31.297
EX0521-092111,8,C16,prep,1257,1257,0,568074.092,0.685,-0.677,0.194,0.188,0,0,0,0,0,0,0,0,0,0.000,0,0,0.057,0.007,0.000,-0.040,0.040,0.015,0.994,0.010,0.006,0.004,-0.002,0.000,0.000,0.000,0.000,0,2,0,2,7,255,1200,300,0,0,-89.515,0.616,-31.297
EX0521-092111,8,C16,prep,1257,1257,0,568079.092,0.685,-0.677,0.194,0.188,0,0,0,0,0,0,0,0,0,0.000,0,0,0.075,0.004,-0.060,-0.040,-0.020,0.014,0.993,0.011,0.000,0.004,-0.002,0.000,0.000,0.000,0.000,0,2,0,2,7,255,1200,300,0,0,-89.515,0.616,-31.297
EX0521-092111,8,C16,prep,1257,1257,0,568084.092,0.685,-0.677,0.194,0.188,0,0,0,0,0,0,0,0,0,0.000,0,0,0.045,0.004,0.000,-0.040,-0.020,0.015,0.994,0.011,0.004,0.002,-0.002,0.000,0.000,0.000,0.000,0,2,0,2,7,255,1200,300,0,0,-89.515,0.616,-31.297
EX0521-092111,8,C16,prep,1271,1271,0,568089.092,0.685,-0.677,0.194,0.188,0,0,0,0,0,0,0,0,0,0.000,0,0,0.102,0.002,0.000,-0.100,-0.020,0.014,0.993,0.011,-0.002,0.000,-0.008,0.000,0.000,0.000,0.000,0,2,0,2,7,255,1200,300,0,0,-89.515,0.616,-31.297
EX0521-092111,8,C16,prep,1271,1271,0,568094.092,0.685,-0.677,0.194,0.188,0,0,0,0,0,0,0,0,0,0.000,0,0,0.082,0.002,-0.060,-0.040,0.040,0.015,0.995,0.012,-0.002,0.000,0.002,0.000,0.000,0.000,0.000,0,2,0,2,7,255,1200,300,0,0,-89.516,0.616,-31.297
EX0521-092111,8,C16,prep,1271,1271,0,568099.091,0.685,-0.677,0.194,0.188,0,0,0,0,0,0,0,0,0,0.000,0,0,0.108,0.006,0.060,-0.040,-0.080,0.016,0.994,0.011,-0.002,-0.006,-0.002,0.000,0.000,0.000,0.000,0,2,0,2,7,255,1200,300,0,0,-89.516,0.616,-31.297
EX0521-092111,8,C16,prep,1271,1271,0,568104.091,0.685,-0.677,0.194,0.188,0,0,0,0,0,0,0,0,0,0.000,0,0,0.082,0.007,0.000,0.020,-0.080,0.015,0.994,0.011,0.004,-0.006,0.002,0.000,0.000,0.000,0.000,0,2,0,2,7,255,1200,300,0,0,-89.516,0.616,-31.297
EX0521-092111,8,C16,prep,1271,1271,0,568109.091,0.685,-0.677,0.194,0.188,0,0,0,0,0,0,0,0,0,0.000,0,0,0.122,0.007,0.000,-0.120,-0.020,0.015,0.994,0.012,0.004,-0.006,-0.002,0.000,0.000,0.000,0.000,0,2,0,2,7,255,1200,300,0,0,-89.516,0.616,-31.297
EX0521-092111,8,C16,prep,1271,1271,0,568114.091,0.685,-0.677,0.194,0.188,0,0,0,0,0,0,0,0,0,0.000,0,0,0.045,0.006,0.000,-0.040,-0.020,0.015,0.994,0.012,-0.002,-0.006,0.002,0.000,0.000,0.000,0.000,0,2,0,2,7,255,1200,300,0,0,-89.516,0.616,-31.297
EX0521-092111,8,C16,prep,1287,1287,0,568119.091,0.685,-0.677,0.194,0.188,0,0,0,0,0,0,0,0,0,0.000,0,0,0.075,0.006,-0.060,-0.040,-0.020,0.015,0.994,0.010,-0.002,-0.006,-0.002,0.000,0.000,0.000,0.000,0,2,0,2,7,255,1200,300,0,0,-89.516,0.616,-31.297
EX0521-092111,8,C16,prep,1287,1287,0,568124.091,0.685,-0.677,0.194,0.188,0,0,0,0,0,0,0,0,0,0.000,0,0,0.108,0.006,0.060,-0.040,-0.080,0.015,0.994,0.012,-0.002,-0.006,-0.002,0.000,0.000,0.000,0.000,0,2,0,2,7,255,1200,300,0,0,-89.516,0.615,-31.297
EX0521-092111,8,C16,prep,1302,1302,0,568129.091,0.685,-0.677,0.194,0.188,0,0,0,0,0,0,0,0,0,0.000,0,0,0.089,0.006,0.000,-0.040,-0.080,0.015,0.994,0.012,0.002,-0.006,-0.002,0.000,0.000,0.000,0.000,0,2,0,2,7,255,1200,300,0,0,-89.517,0.615,-31.297
EX0521-092111,8,C16,prep,1302,1302,0,568134.091,0.685,-0.677,0.194,0.188,0,0,0,0,0,0,0,0,0,0.000,0,0,0.075,0.006,-0.060,-0.040,-0.020,0.014,0.993,0.011,-0.002,-0.006,-0.002,0.000,0.000,0.000,0.000,0,2,0,2,7,255,1200,300,0,0,-89.517,0.615,-31.297
EX0521-092111,8,C16,prep,1334,1334,0,568139.091,0.685,-0.677,0.194,0.188,0,0,0,0,0,0,0,0,0,0.000,0,0,0.045,0.004,0.000,-0.040,-0.020,0.014,0.993,0.011,-0.004,0.000,-0.008,0.000,0.000,0.000,0.000,0,2,0,2,7,255,1200,300,0,0,-89.517,0.615,-31.297
EX0521-092111,8,C16,prep,1334,1334,0,568144.091,0.685,-0.677,0.194,0.188,0,0,0,0,0,0,0,0,0,0.000,0,0,0.075,0.004,-0.060,-0.040,-0.020,0.015,0.994,0.010,-0.004,0.000,-0.008,0.000,0.000,0.000,0.000,0,2,0,2,7,255,1200,300,0,0,-89.517,0.615,-31.297
EX0521-092111,8,C16,prep,1334,1334,0,568149.091,0.685,-0.677,0.194,0.188,0,0,0,0,0,0,0,0,0,0.000,0,0,0.075,0.006,0.060,-0.040,-0.020,0.014,0.994,0.010,0.004,0.004,-0.002,0.000,0.000,0.000,0.000,0,2,0,2,7,255,1200,300,0,0,-89.517,0.615,-31.297
EX0521-092111,8,C16,prep,1334,1334,0,568154.093,0.685,-0.677,0.194,0.188,0,0,0,0,0,0,0,0,0,0.000,0,0,0.028,0.006,0.000,0.020,-0.020,0.015,0.994,0.011,0.004,0.004,0.002,0.000,0.000,0.000,0.000,0,2,0,2,7,255,1200,300,0,0,-89.517,0.615,-31.297
EX0521-092111,8,C16,prep,1334,1334,0,568159.093,0.685,-0.677,0.194,0.188,0,0,0,0,0,0,0,0,0,0.000,0,0,0.082,0.004,-0.080,0.000,-0.020,0.014,0.994,0.011,0.004,0.002,0.002,0.000,0.000,0.000,0.000,0,2,0,2,7,255,1200,300,0,0,-89.517,0.615,-31.297
EX0521-092111,8,C16,prep,1334,1334,0,568164.091,0.685,-0.677,0.194,0.188,0,0,0,0,0,0,0,0,0,0.000,0,0,0.066,0.004,-0.020,-0.060,-0.020,0.015,0.994,0.011,0.004,0.002,0.002,0.000,0.000,0.000,0.000,0,2,0,2,7,255,1200,300,0,0,-89.518,0.615,-31.297
EX0521-092111,8,C16,prep,1355,1355,0,568169.091,0.685,-0.677,0.194,0.188,0,0,0,0,0,0,0,0,0,0.000,0,0,0.118,0.004,-0.020,-0.060,-0.100,0.013,0.994,0.011,-0.004,0.002,0.002,0.000,0.000,0.000,0.000,0,2,0,2,7,255,1200,300,0,0,-89.518,0.615,-31.297
EX0521-092111,8,C16,prep,1355,1355,0,568174.091,0.685,-0.677,0.194,0.188,0,0,0,0,0,0,0,0,0,0.000,0,0,0.087,0.004,0.060,-0.060,-0.020,0.016,0.993,0.011,0.004,0.002,0.002,0.000,0.000,0.000,0.000,0,2,0,2,7,255,1200,300,0,0,-89.518,0.616,-31.297
EX0521-092111,8,C16,prep,1355,1355,0,568179.091,0.685,-0.677,0.194,0.188,0,0,0,0,0,0,0,0,0,0.000,0,0,0.087,0.004,0.060,-0.060,-0.020,0.015,0.994,0.012,-0.002,-0.004,-0.002,0.000,0.000,0.000,0.000,0,2,0,2,7,255,1200,300,0,0,-89.518,0.616,-31.297
EX0521-092111,8,C16,prep,1355,1355,0,568184.091,0.685,-0.677,0.194,0.188,0,0,0,0,0,0,0,0,0,0.000,0,0,0.131,0.004,0.060,-0.060,-0.100,0.014,0.993,0.012,-0.002,-0.004,-0.012,0.000,0.000,0.000,0.000,0,2,0,2,7,255,1200,300,0,0,-89.518,0.616,-31.297
EX0521-092111,8,C16,prep,1356,1356,0,568189.091,0.685,-0.677,0.194,0.188,0,0,0,0,0,0,0,0,0,0.000,0,0,0.066,0.003,-0.020,-0.060,-0.020,0.015,0.995,0.011,-0.002,-0.002,-0.002,0.000,0.000,0.000,0.000,0,2,0,2,7,255,1200,300,0,0,-89.518,0.616,-31.297
EX0521-092111,8,C16,prep,1356,1356,0,568194.091,0.685,-0.677,0.194,0.188,0,0,0,0,0,0,0,0,0,0.000,0,0,0.117,0.003,0.060,0.000,-0.100,0.014,0.994,0.010,-0.002,-0.002,0.002,0.000,0.000,0.000,0.000,0,2,0,2,7,255,1200,300,0,0,-89.518,0.616,-31.297
EX0521-092111,8,C16,prep,1366,1366,0,568199.092,0.685,-0.677,0.194,0.188,0,0,0,0,0,0,0,0,0,0.000,0,0,0.102,0.003,-0.080,-0.060,-0.020,0.015,0.995,0.012,-0.002,-0.002,0.008,0.000,0.000,0.000,0.000,0,2,0,2,7,255,1200,300,0,0,-89.519,0.616,-31.297
EX0521-092111,8,C16,prep,1366,1366,0,568204.091,0.685,-0.677,0.194,0.188,0,0,0,0,0,0,0,0,0,0.000,0,0,0.082,0.006,-0.080,0.000,-0.020,0.015,0.994,0.012,-0.002,-0.006,0.002,0.000,0.000,0.000,0.000,0,2,0,2,7,255,1200,300,0,0,-89.519,0.616,-31.297
EX0521-092111,8,C16,prep,1391,1391,0,568209.091,0.685,-0.677,0.194,0.188,0,0,0,0,0,0,0,0,0,0.000,0,0,0.122,0.007,0.000,-0.120,-0.020,0.014,0.994,0.011,-0.004,-0.006,0.002,0.000,0.000,0.000,0.000,0,2,0,2,7,255,1200,300,0,0,-89.519,0.616,-31.297
EX0521-092111,8,C16,prep,1391,1391,0,568214.091,0.685,-0.677,0.194,0.188,0,0,0,0,0,0,0,0,0,0.000,0,0,0.063,0.004,0.000,-0.060,-0.020,0.014,0.993,0.011,-0.004,0.002,0.002,0.000,0.000,0.000,0.000,0,2,0,2,7,255,1200,300,0,0,-89.519,0.616,-31.297
EX0521-092111,8,C16,prep,1392,1392,0,568219.091,0.685,-0.677,0.194,0.188,0,0,0,0,0,0,0,0,0,0.000,0,0,0.063,0.004,0.000,-0.060,-0.020,0.015,0.993,0.012,-0.004,0.002,-0.006,0.000,0.000,0.000,0.000,0,2,0,2,7,255,1200,300,0,0,-89.519,0.616,-31.297
EX0521-092111,8,C16,prep,1392,1392,0,568224.091,0.685,-0.677,0.194,0.188,0,0,0,0,0,0,0,0,0,0.000,0,0,0.122,0.003,0.000,-0.120,-0.020,0.015,0.995,0.010,-0.002,0.002,-0.006,0.000,0.000,0.000,0.000,0,2,0,2,7,255,1200,300,0,0,-89.519,0.616,-31.297
EX0521-092111,8,C16,prep,1398,1398,0,568229.091,0.685,-0.677,0.194,0.188,0,0,0,0,0,0,0,0,0,0.000,0,0,0.063,0.008,0.000,-0.060,-0.020,0.016,0.994,0.012,0.006,-0.006,-0.002,0.000,0.000,0.000,0.000,0,2,0,2,7,255,1200,300,0,0,-89.519,0.616,-31.297
EX0521-092111,8,C16,prep,1398,1398,0,568234.091,0.685,-0.677,0.194,0.188,0,0,0,0,0,0,0,0,0,0.000,0,0,0.063,0.006,0.000,-0.060,-0.020,0.014,0.993,0.011,0.006,0.002,-0.002,0.000,0.000,0.000,0.000,0,2,0,2,7,255,1200,300,0,0,-89.520,0.616,-31.297
EX0521-092111,8,C16,prep,1414,1414,0,568239.092,0.685,-0.677,0.194,0.188,0,0,0,0,0,0,0,0,0,0.000,0,0,0.122,0.008,0.000,-0.120,-0.020,0.014,0.994,0.011,-0.008,0.002,-0.002,0.000,0.000,0.000,0.000,0,2,0,2,7,255,1200,300,0,0,-89.520,0.616,-31.297
EX0521-092111,8,C16,prep,1414,1414,0,568244.091,0.685,-0.677,0.194,0.188,0,0,0,0,0,0,0,0,0,0.000,0,0,0.063,0.008,0.000,-0.060,-0.020,0.014,0.995,0.011,-0.008,0.002,0.002,0.000,0.000,0.000,0.000,0,2,0,2,7,255,1200,300,0,0,-89.520,0.616,-31.297
EX0521-092111,8,C16,prep,1430,1430,0,568249.092,0.685,-0.677,0.194,0.188,0,0,0,0,0,0,0,0,0,0.000,0,0,0.063,0.004,0.000,-0.060,-0.020,0.015,0.993,0.011,-0.004,0.002,0.002,0.000,0.000,0.000,0.000,0,2,0,2,7,255,1200,300,0,0,-89.520,0.616,-31.297
EX0521-092111,8,C16,prep,1430,1430,0,568254.091,0.685,-0.677,0.194,0.188,0,0,0,0,0,0,0,0,0,0.000,0,0,0.045,0.002,0.000,0.020,0.040,0.014,0.995,0.011,0.000,0.002,0.008,0.000,0.000,0.000,0.000,0,2,0,2,7,255,1200,300,0,0,-89.520,0.616,-31.297
EX0521-092111,8,C16,prep,1430,1430,0,568259.093,0.685,-0.677,0.194,0.188,0,0,0,0,0,0,0,0,0,0.000,0,0,0.028,0.004,0.000,0.020,-0.020,0.015,0.995,0.011,0.004,0.002,0.008,0.000,0.000,0.000,0.000,0,2,0,2,7,255,1200,300,0,0,-89.520,0.616,-31.297
EX0521-092111,8,C16,prep,1430,1430,0,568264.091,0.685,-0.677,0.194,0.188,0,0,0,0,0,0,0,0,0,0.000,0,0,0.045,0.003,0.000,-0.040,-0.020,0.015,0.994,0.012,0.002,0.002,0.008,0.000,0.000,0.000,0.000,0,2,0,2,7,255,1200,300,0,0,-89.520,0.615,-31.297
EX0521-092111,8,C16,prep,1430,1430,0,568269.091,0.685,-0.677,0.194,0.188,0,0,0,0,0,0,0,0,0,0.000,0,0,0.045,0.003,0.000,-0.040,-0.020,0.014,0.994,0.011,0.002,0.002,-0.002,0.000,0.000,0.000,0.000,0,2,0,2,7,255,1200,300,0,0,-89.521,0.615,-31.297
EX0521-092111,8,C16,prep,1430,1430,0,568274.092,0.685,-0.677,0.194,0.188,0,0,0,0,0,0,0,0,0,0.000,0,0,0.045,0.006,0.000,-0.040,-0.020,0.015,0.994,0.011,0.002,-0.006,-0.002,0.000,0.000,0.000,0.000,0,2,0,2,7,255,1200,300,0,0,-89.521,0.615,-31.297
EX0521-092111,8,C16,prep,1446,1446,0,568279.092,0.685,-0.677,0.194,0.188,0,0,0,0,0,0,0,0,0,0.000,0,0,0.118,0.002,0.060,-0.100,-0.020,0.015,0.994,0.011,0.000,-0.002,-0.002,0.000,0.000,0.000,0.000,0,2,0,2,7,255,1200,300,0,0,-89.521,0.615,-31.297
EX0521-092111,8,C16,prep,1446,1446,0,568284.092,0.685,-0.677,0.194,0.188,0,0,0,0,0,0,0,0,0,0.000,0,0,0.045,0.002,0.000,-0.040,-0.020,0.015,0.994,0.011,0.000,-0.002,-0.002,0.000,0.000,0.000,0.000,0,2,0,2,7,255,1200,300,0,0,-89.521,0.615,-31.297
EX0521-092111,8,C16,prep,1462,1462,0,568289.092,0.685,-0.677,0.194,0.188,0,0,0,0,0,0,0,0,0,0.000,0,0,0.102,0.002,0.000,-0.100,-0.020,0.016,0.994,0.011,0.000,-0.002,0.002,0.000,0.000,0.000,0.000,0,2,0,2,7,255,1200,300,0,0,-89.521,0.617,-31.297
EX0521-092111,8,C16,prep,1462,1462,0,568294.092,0.685,-0.677,0.194,0.188,0,0,0,0,0,0,0,0,0,0.000,0,0,0.045,0.002,0.000,-0.040,-0.020,0.014,0.994,0.011,0.000,-0.002,0.002,0.000,0.000,0.000,0.000,0,2,0,2,7,255,1200,300,0,0,-89.521,0.617,-31.297
EX0521-092111,8,C16,prep,1462,1462,0,568299.092,0.685,-0.677,0.194,0.188,0,0,0,0,0,0,0,0,0,0.000,0,0,0.075,0.004,-0.060,-0.040,-0.020,0.014,0.994,0.012,-0.004,-0.002,0.002,0.000,0.000,0.000,0.000,0,2,0,2,7,255,1200,300,0,0,-89.522,0.617,-31.297
EX0521-092111,8,C16,prep,1462,1462,0,568304.092,0.685,-0.677,0.194,0.188,0,0,0,0,0,0,0,0,0,0.000,0,0,0.045,0.004,0.000,-0.040,-0.020,0.015,0.993,0.011,-0.004,-0.002,-0.002,0.000,0.000,0.000,0.000,0,2,0,2,7,255,1200,300,0,0,-89.522,0.617,-31.297
EX0521-092111,8,C16,prep,1479,1479,0,568309.092,0.685,-0.677,0.194,0.188,0,0,0,0,0,0,0,0,0,0.000,0,0,0.028,0.002,0.000,0.020,-0.020,0.015,0.994,0.011,0.000,-0.002,-0.002,0.000,0.000,0.000,0.000,0,2,0,2,7,255,1200,300,0,0,-89.522,0.617,-31.297
EX0521-092111,8,C16,prep,1479,1479,0,568314.092,0.685,-0.677,0.194,0.188,0,0,0,0,0,0,0,0,0,0.000,0,0,0.045,0.003,0.000,-0.040,-0.020,0.015,0.995,0.010,0.002,0.002,0.002,0.000,0.000,0.000,0.000,0,2,0,2,7,255,1200,300,0,0,-89.522,0.617,-31.297
EX0521-092111,8,C16,prep,1494,1494,0,568319.092,0.685,-0.677,0.194,0.188,0,0,0,0,0,0,0,0,0,0.000,0,0,0.045,0.006,0.000,-0.040,-0.020,0.015,0.995,0.011,0.006,0.002,0.008,0.000,0.000,0.000,0.000,0,2,0,2,7,255,1200,300,0,0,-89.522,0.616,-31.297
EX0521-092111,8,C16,prep,1494,1494,0,568324.092,0.685,-0.677,0.194,0.188,0,0,0,0,0,0,0,0,0,0.000,0,0,0.045,0.008,0.000,-0.040,-0.020,0.014,0.994,0.010,0.006,0.006,0.008,0.000,0.000,0.000,0.000,0,2,0,2,7,255,1200,300,0,0,-89.522,0.616,-31.297
EX0521-092111,8,C16,prep,1494,1494,0,568329.092,0.685,-0.677,0.194,0.188,0,0,0,0,0,0,0,0,0,0.000,0,0,0.045,0.012,0.000,-0.040,-0.020,0.013,0.995,0.011,0.000,0.012,0.008,0.000,0.000,0.000,0.000,0,2,0,2,7,255,1200,300,0,0,-89.522,0.616,-31.297
EX0521-092111,8,C16,prep,1494,1494,0,568334.092,0.685,-0.677,0.194,0.188,0,0,0,0,0,0,0,0,0,0.000,0,0,0.075,0.013,-0.060,-0.040,-0.020,0.014,0.994,0.011,-0.006,0.012,0.002,0.000,0.000,0.000,0.000,0,2,0,2,7,255,1200,300,0,0,-89.523,0.616,-31.297
EX0521-092111,8,C16,prep,1526,1526,0,568339.092,0.685,-0.677,0.194,0.188,0,0,0,0,0,0,0,0,0,0.000,0,0,0.089,0.010,0.000,-0.040,-0.080,0.014,0.994,0.011,-0.008,0.006,0.002,0.000,0.000,0.000,0.000,0,2,0,2,7,255,1200,300,0,0,-89.523,0.616,-31.297
EX0521-092111,8,C16,prep,1526,1526,0,568344.092,0.685,-0.677,0.194,0.188,0,0,0,0,0,0,0,0,0,0.000,0,0,0.075,0.006,-0.060,-0.040,-0.020,0.016,0.996,0.011,-0.006,0.002,0.002,0.000,0.000,0.000,0.000,0,2,0,2,7,255,1200,300,0,0,-89.523,0.616,-31.297
EX0521-092111,8,C16,prep,1542,1542,0,568349.092,0.685,-0.677,0.194,0.188,0,0,0,0,0,0,0,0,0,0.000,0,0,0.089,0.002,0.000,-0.040,-0.080,0.015,0.994,0.011,0.002,0.000,0.002,0.000,0.000,0.000,0.000,0,2,0,2,7,255,1200,300,0,0,-89.523,0.616,-31.297
EX0521-092111,8,C16,prep,1542,1542,0,568354.092,0.685,-0.677,0.194,0.188,0,0,0,0,0,0,0,0,0,0.000,0,0,0.089,0.010,0.000,-0.040,-0.080,0.016,0.994,0.010,0.010,0.000,0.002,0.000,0.000,0.000,0.000,0,2,0,2,7,255,1200,300,0,0,-89.523,0.616,-31.297
EX0521-092111,8,C16,prep,1542,1542,0,568359.094,0.685,-0.677,0.194,0.188,0,0,0,0,0,0,0,0,0,0.000,0,0,0.066,0.006,-0.020,-0.060,-0.020,0.015,0.994,0.011,0.006,0.000,-0.002,0.000,0.000,0.000,0.000,0,2,0,2,7,255,1200,300,0,0,-89.523,0.616,-31.297
EX0521-092111,8,C16,prep,1542,1542,0,568364.092,0.685,-0.677,0.194,0.188,0,0,0,0,0,0,0,0,0,0.000,0,0,0.066,0.006,-0.020,-0.060,-0.020,0.014,0.995,0.012,0.006,-0.002,-0.002,0.000,0.000,0.000,0.000,0,2,0,2,7,255,1200,300,0,0,-89.523,0.616,-31.297
EX0521-092111,8,C16,prep,1561,1561,0,568369.092,0.685,-0.677,0.194,0.188,0,0,0,0,0,0,0,0,0,0.000,0,0,0.066,0.007,-0.020,-0.060,-0.020,0.016,0.994,0.011,0.006,-0.004,0.002,0.000,0.000,0.000,0.000,0,2,0,2,7,255,1200,300,0,0,-89.524,0.616,-31.297
EX0521-092111,8,C16,prep,1561,1561,0,568374.092,0.685,-0.677,0.194,0.188,0,0,0,0,0,0,0,0,0,0.000,0,0,0.066,0.007,-0.020,-0.060,-0.020,0.014,0.993,0.011,-0.006,-0.004,0.002,0.000,0.000,0.000,0.000,0,2,0,2,7,255,1200,300,0,0,-89.524,0.616,-31.297
EX0521-092111,8,C16,prep,1562,1562,0,568379.092,0.685,-0.677,0.194,0.188,0,0,0,0,0,0,0,0,0,0.000,0,0,0.102,0.004,-0.020,-0.060,-0.080,0.014,0.993,0.011,-0.004,0.000,-0.012,0.000,0.000,0.000,0.000,0,2,0,2,7,255,1200,300,0,0,-89.524,0.616,-31.297
EX0521-092111,8,C16,prep,1562,1562,0,568384.092,0.685,-0.677,0.194,0.188,0,0,0,0,0,0,0,0,0,0.000,0,0,0.028,0.004,-0.020,0.000,-0.020,0.015,0.994,0.012,-0.004,0.000,-0.012,0.000,0.000,0.000,0.000,0,2,0,2,7,255,1200,300,0,0,-89.524,0.616,-31.297
EX0521-092111,8,C16,prep,1562,1562,0,568389.092,0.685,-0.677,0.194,0.188,0,0,0,0,0,0,0,0,0,0.000,0,0,0.087,0.010,0.060,-0.060,-0.020,0.015,0.995,0.012,0.002,-0.010,-0.002,0.000,0.000,0.000,0.000,0,2,0,2,7,255,1200,300,0,0,-89.524,0.616,-31.297
EX0521-092111,8,C16,prep,1562,1562,0,568394.092,0.685,-0.677,0.194,0.188,0,0,0,0,0,0,0,0,0,0.000,0,0,0.087,0.010,0.060,-0.060,-0.020,0.014,0.994,0.012,0.002,-0.010,0.002,0.000,0.000,0.000,0.000,0,2,0,2,7,255,1200,300,0,0,-89.524,0.616,-31.297
EX0521-092111,8,C16,prep,1574,1574,0,568399.092,0.685,-0.677,0.194,0.188,0,0,0,0,0,0,0,0,0,0.000,0,0,0.102,0.010,-0.080,-0.060,-0.020,0.013,0.995,0.011,-0.010,-0.002,0.006,0.000,0.000,0.000,0.000,0,2,0,2,7,255,1200,300,0,0,-89.524,0.616,-31.297
EX0521-092111,8,C16,prep,1574,1574,0,568404.092,0.685,-0.677,0.194,0.188,0,0,0,0,0,0,0,0,0,0.000,0,0,0.066,0.010,-0.020,-0.060,-0.020,0.014,0.995,0.011,-0.010,0.002,0.006,0.000,0.000,0.000,0.000,0,2,0,2,7,255,1200,300,0,0,-89.525,0.616,-31.297
EX0521-092111,8,C16,prep,1574,1574,0,568409.092,0.685,-0.677,0.194,0.188,0,0,0,0,0,0,0,0,0,0.000,0,0,0.100,0.008,0.000,-0.060,-0.080,0.014,0.992,0.011,-0.008,0.002,0.006,0.000,0.000,0.000,0.000,0,2,0,2,7,255,1200,300,0,0,-89.525,0.616,-31.297
EX0521-092111,8,C16,prep,1574,1574,0,568414.092,0.685,-0.677,0.194,0.188,0,0,0,0,0,0,0,0,0,0.000,0,0,0.063,0.004,0.000,-0.060,-0.020,0.015,0.995,0.011,-0.004,-0.002,0.006,0.000,0.000,0.000,0.000,0,2,0,2,7,255,1200,300,0,0,-89.525,0.616,-31.297
EX0521-092111,8,C16,prep,1592,1592,0,568419.092,0.685,-0.677,0.194,0.188,0,0,0,0,0,0,0,0,0,0.000,0,0,0.020,0.004,0.000,0.000,-0.020,0.014,0.994,0.011,-0.004,-0.002,-0.002,0.000,0.000,0.000,0.000,0,2,0,2,7,255,1200,300,0,0,-89.525,0.615,-31.297
EX0521-092111,8,C16,prep,1592,1592,0,568424.092,0.685,-0.677,0.194,0.188,0,0,0,0,0,0,0,0,0,0.000,0,0,0.122,0.004,0.000,-0.120,-0.020,0.015,0.994,0.012,-0.002,-0.004,0.002,0.000,0.000,0.000,0.000,0,2,0,2,7,255,1200,300,0,0,-89.525,0.615,-31.297
EX0521-092111,8,C16,prep,1607,1607,0,568429.092,0.685,-0.677,0.194,0.188,0,0,0,0,0,0,0,0,0,0.000,0,0,0.063,0.004,0.000,-0.060,-0.020,0.014,0.993,0.011,-0.002,0.004,-0.002,0.000,0.000,0.000,0.000,0,2,0,2,7,255,1200,300,0,0,-89.525,0.615,-31.297
EX0521-092111,8,C16,prep,1607,1607,0,568434.092,0.685,-0.677,0.194,0.188,0,0,0,0,0,0,0,0,0,0.000,0,0,0.102,0.004,-0.080,-0.060,-0.020,0.014,0.994,0.011,-0.002,0.004,0.002,0.000,0.000,0.000,0.000,0,2,0,2,7,255,1200,300,0,0,-89.525,0.615,-31.297
EX0521-092111,8,C16,prep,1607,1607,0,568439.092,0.685,-0.677,0.194,0.188,0,0,0,0,0,0,0,0,0,0.000,0,0,0.128,0.004,-0.080,-0.060,-0.080,0.015,0.994,0.011,0.000,0.004,0.002,0.000,0.000,0.000,0.000,0,2,0,2,7,255,1200,300,0,0,-89.526,0.615,-31.297
EX0521-092111,8,C16,prep,1607,1607,0,568444.092,0.685,-0.677,0.194,0.188,0,0,0,0,0,0,0,0,0,0.000,0,0,0.063,0.000,0.000,-0.060,-0.020,0.015,0.994,0.011,0.000,0.000,0.002,0.000,0.000,0.000,0.000,0,2,0,2,7,255,1200,300,0,0,-89.526,0.615,-31.297
EX0521-092111,8,C16,prep,1638,1638,0,568449.092,0.685,-0.677,0.194,0.188,0,0,0,0,0,0,0,0,0,0.000,0,0,0.100,0.002,0.000,-0.060,-0.080,0.015,0.994,0.011,0.002,0.000,-0.002,0.000,0.000,0.000,0.000,0,2,0,2,7,255,1200,300,0,0,-89.526,0.615,-31.297
EX0521-092111,8,C16,prep,1638,1638,0,568454.092,0.685,-0.677,0.194,0.188,0,0,0,0,0,0,0,0,0,0.000,0,0,0.128,0.004,-0.080,-0.060,-0.080,0.015,0.995,0.011,0.002,-0.004,-0.002,0.000,0.000,0.000,0.000,0,2,0,2,7,255,1200,300,0,0,-89.526,0.615,-31.297
EX0521-092111,8,C16,prep,1638,1638,0,568459.093,0.685,-0.677,0.194,0.188,0,0,0,0,0,0,0,0,0,0.000,0,0,0.102,0.007,-0.080,-0.060,-0.020,0.015,0.993,0.011,0.004,-0.006,-0.002,0.000,0.000,0.000,0.000,0,2,0,2,7,255,1200,300,0,0,-89.526,0.615,-31.297
EX0521-092111,8,C16,prep,1638,1638,0,568464.091,0.685,-0.677,0.194,0.188,0,0,0,0,0,0,0,0,0,0.000,0,0,0.100,0.007,0.000,-0.060,-0.080,0.014,0.994,0.010,0.004,-0.006,0.002,0.000,0.000,0.000,0.000,0,2,0,2,7,255,1200,300,0,0,-89.526,0.615,-31.297
EX0521-092111,8,C16,prep,1638,1638,0,568469.091,0.685,-0.677,0.194,0.188,0,0,0,0,0,0,0,0,0,0.000,0,0,0.063,0.007,0.000,-0.060,-0.020,0.015,0.994,0.012,0.004,-0.006,0.002,0.000,0.000,0.000,0.000,0,2,0,2,7,255,1200,300,0,0,-89.527,0.615,-31.297
EX0521-092111,8,C16,prep,1638,1638,0,568474.091,0.685,-0.677,0.194,0.188,0,0,0,0,0,0,0,0,0,0.000,0,0,0.063,0.006,0.000,-0.060,-0.020,0.014,0.995,0.012,0.002,-0.006,0.002,0.000,0.000,0.000,0.000,0,2,0,2,7,255,1200,300,0,0,-89.527,0.615,-31.297
EX0521-092111,8,C16,prep,1657,1657,0,568479.091,0.685,-0.677,0.194,0.188,0,0,0,0,0,0,0,0,0,0.000,0,0,0.102,0.007,-0.080,-0.060,-0.020,0.014,0.994,0.011,-0.004,-0.006,0.002,0.000,0.000,0.000,0.000,0,2,0,2,7,255,1200,300,0,0,-89.527,0.615,-31.297
EX0521-092111,8,C16,prep,1657,1657,0,568484.091,0.685,-0.677,0.194,0.188,0,0,0,0,0,0,0,0,0,0.000,0,0,0.063,0.004,0.000,-0.060,-0.020,0.014,0.993,0.011,-0.004,-0.002,-0.002,0.000,0.000,0.000,0.000,0,2,0,2,7,255,1200,300,0,0,-89.527,0.615,-31.297
EX0521-092111,8,C16,prep,1670,1670,0,568489.091,0.685,-0.677,0.194,0.188,0,0,0,0,0,0,0,0,0,0.000,0,0,0.102,0.004,-0.080,-0.060,-0.020,0.013,0.994,0.011,-0.004,0.002,-0.002,0.000,0.000,0.000,0.000,0,2,0,2,7,255,1200,300,0,0,-89.527,0.615,-31.297
EX0521-092111,8,C16,prep,1670,1670,0,568494.091,0.685,-0.677,0.194,0.188,0,0,0,0,0,0,0,0,0,0.000,0,0,0.102,0.011,-0.080,-0.060,-0.020,0.013,0.994,0.011,-0.010,0.004,0.002,0.000,0.000,0.000,0.000,0,2,0,2,7,255,1200,300,0,0,-89.527,0.615,-31.297
EX0521-092111,8,C16,prep,1670,1670,0,568499.092,0.685,-0.677,0.194,0.188,0,0,0,0,0,0,0,0,0,0.000,0,0,0.063,0.011,0.000,-0.060,-0.020,0.014,0.994,0.011,-0.010,0.004,0.002,0.000,0.000,0.000,0.000,0,2,0,2,7,255,1200,300,0,0,-89.527,0.615,-31.297
EX0521-092111,8,C16,prep,1670,1670,0,568504.091,0.685,-0.677,0.194,0.188,0,0,0,0,0,0,0,0,0,0.000,0,0,0.063,0.004,0.000,-0.060,-0.020,0.014,0.996,0.011,-0.004,-0.002,0.002,0.000,0.000,0.000,0.000,0,2,0,2,7,255,1200,300,0,0,-89.528,0.615,-31.297
EX0521-092111,8,C16,prep,1686,1686,0,568509.091,0.685,-0.677,0.194,0.188,0,0,0,0,0,0,0,0,0,0.000,0,0,0.063,0.004,0.000,-0.060,-0.020,0.014,0.994,0.012,-0.004,-0.002,-0.002,0.000,0.000,0.000,0.000,0,2,0,2,7,255,1200,300,0,0,-89.528,0.615,-31.297
EX0521-092111,8,C16,prep,1686,1686,0,568514.091,0.685,-0.677,0.194,0.188,0,0,0,0,0,0,0,0,0,0.000,0,0,0.117,0.006,-0.060,-0.060,-0.080,0.014,0.995,0.012,-0.006,-0.002,0.006,0.000,0.000,0.000,0.000,0,2,0,2,7,255,1200,300,0,0,-89.528,0.615,-31.297
EX0521-092111,8,C16,prep,1686,1686,0,568519.091,0.685,-0.677,0.194,0.188,0,0,0,0,0,0,0,0,0,0.000,0,0,0.117,0.008,0.060,-0.060,-0.080,0.016,0.995,0.012,-0.006,-0.006,0.006,0.000,0.000,0.000,0.000,0,2,0,2,7,255,1200,300,0,0,-89.528,0.614,-31.297
EX0521-092111,8,C16,prep,1686,1686,0,568524.091,0.685,-0.677,0.194,0.188,0,0,0,0,0,0,0,0,0,0.000,0,0,0.087,0.003,0.060,-0.060,-0.020,0.014,0.994,0.010,0.002,-0.002,0.006,0.000,0.000,0.000,0.000,0,2,0,2,7,255,1200,300,0,0,-89.528,0.614,-31.297
EX0521-092111,8,C16,prep,1702,1702,0,568529.091,0.685,-0.677,0.194,0.188,0,0,0,0,0,0,0,0,0,0.000,0,0,0.063,0.007,0.000,-0.060,-0.020,0.015,0.993,0.011,0.004,-0.006,-0.004,0.000,0.000,0.000,0.000,0,2,0,2,7,255,1200,300,0,0,-89.528,0.614,-31.297
EX0521-092111,8,C16,prep,1702,1702,0,568534.091,0.685,-0.677,0.194,0.188,0,0,0,0,0,0,0,0,0,0.000,0,0,0.087,0.007,-0.060,-0.060,-0.020,0.016,0.995,0.011,0.004,-0.006,-0.004,0.000,0.000,0.000,0.000,0,2,0,2,7,255,1200,300,0,0,-89.528,0.614,-31.297
EX0521-092111,8,C16,prep,1702,1702,0,568539.091,0.685,-0.677,0.194,0.188,0,0,0,0,0,0,0,0,0,0.000,0,0,0.087,0.010,-0.060,-0.060,-0.020,0.016,0.994,0.011,0.008,-0.006,0.002,0.000,0.000,0.000,0.000,0,2,0,2,7,255,1200,300,0,0,-89.529,0.616,-31.297
EX0521-092111,8,C16,prep,1702,1702,0,568544.091,0.685,-0.677,0.194,0.188,0,0,0,0,0,0,0,0,0,0.000,0,0,0.063,0.010,0.000,-0.060,-0.020,0.014,0.994,0.011,0.008,-0.006,0.002,0.000,0.000,0.000,0.000,0,2,0,2,7,255,1200,300,0,0,-89.529,0.616,-31.297
EX0521-092111,8,C16,prep,1734,1734,0,568549.091,0.685,-0.677,0.194,0.188,0,0,0,0,0,0,0,0,0,0.000,0,0,0.072,0.007,0.000,-0.060,0.040,0.014,0.994,0.012,-0.004,-0.006,0.002,0.000,0.000,0.000,0.000,0,2,0,2,7,255,1200,300,0,0,-89.529,0.616,-31.297
EX0521-092111,8,C16,prep,1734,1734,0,568554.091,0.685,-0.677,0.194,0.188,0,0,0,0,0,0,0,0,0,0.000,0,0,0.028,0.004,0.000,0.020,-0.020,0.014,0.994,0.011,-0.004,0.000,0.002,0.000,0.000,0.000,0.000,0,2,0,2,7,255,1200,300,0,0,-89.529,0.616,-31.297
EX0521-092111,8,C16,prep,1734,1734,0,568559.095,0.685,-0.677,0.194,0.188,0,0,0,0,0,0,0,0,0,0.000,0,0,0.063,0.007,0.000,-0.060,-0.020,0.015,0.994,0.012,-0.004,-0.006,0.002,0.000,0.000,0.000,0.000,0,2,0,2,7,255,1200,300,0,0,-89.529,0.616,-31.297
EX0521-092111,8,C16,prep,1734,1734,0,568564.091,0.685,-0.677,0.194,0.188,0,0,0,0,0,0,0,0,0,0.000,0,0,0.063,0.004,0.000,-0.060,-0.020,0.015,0.995,0.010,-0.004,0.000,0.002,0.000,0.000,0.000,0.000,0,2,0,2,7,255,1200,300,0,0,-89.529,0.616,-31.297
