experiment_id,condition_order_index,condition_id,condition_phase,condition_phase_elapsed_ms,condition_elapsed_ms,is_stimulation_on,t_ms,R_q0,R_q1,R_q2,R_q3,R_heel1,R_mid1,R_fore1,R_heel2,R_fore3,R_mid2,R_fore4,R_fore2,R_cadence,R_speed,R_steps,R_zupt,R_gyroNorm,R_accH,R_gyro_x,R_gyro_y,R_gyro_z,R_acc_x,R_acc_y,R_acc_z,R_nav_ax,R_nav_ay,R_nav_az,R_stepVel,R_stepVelj,R_stepDispRaw,R_stepDispZUPT,R_gaitEvent,R_motorMode,R_motorActive,R_motorAlignment,R_motorRegionMask,R_motorAmplitude,R_motorIntervalMs,R_motorDurationMs,R_motorPhaseMs,R_motorCycleMs,R_roll,R_pitch,R_yaw
EX0521-092111,16,C19,prep,14,14,0,837219.092,0.686,-0.676,0.195,0.188,0,0,0,0,0,0,0,0,0,0.000,0,0,0.502,0.031,-0.020,0.500,-0.040,0.012,0.992,0.015,-0.016,-0.026,-0.016,0.000,0.000,0.000,0.000,0,2,0,3,7,255,960,250,0,0,-89.394,0.733,-31.380
EX0521-092111,16,C19,prep,14,14,0,837224.093,0.686,-0.676,0.195,0.188,0,0,0,0,0,0,0,0,0,0.000,0,0,0.511,0.023,-0.260,0.440,0.020,0.015,0.994,0.009,-0.016,-0.016,-0.016,0.000,0.000,0.000,0.000,0,2,0,3,7,255,960,250,0,0,-89.394,0.733,-31.380
EX0521-092111,16,C19,prep,72,72,0,837229.092,0.686,-0.676,0.195,0.188,0,0,0,0,0,0,0,0,0,0.000,0,0,0.332,0.028,-0.080,0.320,-0.040,0.016,1.001,0.006,0.022,0.018,-0.002,0.000,0.000,0.000,0.000,0,2,0,3,7,255,960,250,0,0,-89.394,0.733,-31.380
EX0521-092111,16,C19,prep,72,72,0,837234.091,0.686,-0.676,0.195,0.188,0,0,0,0,0,0,0,0,0,0.000,0,0,0.516,0.042,0.460,0.080,-0.220,0.013,0.999,0.008,0.022,0.036,0.048,0.000,0.000,0.000,0.000,0,2,0,3,7,255,960,250,0,0,-89.394,0.733,-31.380
EX0521-092111,16,C19,prep,73,73,0,837239.092,0.686,-0.676,0.195,0.188,0,0,0,0,0,0,0,0,0,0.000,0,0,0.616,0.037,0.280,-0.540,-0.100,0.014,0.992,0.012,0.010,0.036,0.048,0.000,0.000,0.000,0.000,0,2,0,3,7,255,960,250,0,0,-89.394,0.733,-31.380
EX0521-092111,16,C19,prep,73,73,0,837244.092,0.686,-0.676,0.195,0.188,0,0,0,0,0,0,0,0,0,0.000,0,0,1.018,0.003,-0.880,-0.400,0.320,0.014,0.988,0.017,-0.002,-0.002,-0.022,0.000,0.000,0.000,0.000,0,2,0,3,7,255,960,250,0,0,-89.388,0.733,-31.380
EX0521-092111,16,C19,prep,73,73,0,837249.092,0.686,-0.676,0.195,0.188,0,0,0,0,0,0,0,0,0,0.000,0,0,0.390,0.006,-0.380,-0.040,0.080,0.014,0.999,0.012,-0.006,-0.002,-0.022,0.000,0.000,0.000,0.000,0,2,0,3,7,255,960,250,0,0,-89.388,0.733,-31.380
EX0521-092111,16,C19,prep,73,73,0,837254.093,0.686,-0.676,0.195,0.188,0,0,0,0,0,0,0,0,0,0.000,0,0,1.065,0.006,0.960,0.020,-0.460,0.015,0.997,0.009,-0.006,0.002,0.026,0.000,0.000,0.000,0.000,0,2,0,3,7,255,960,250,0,0,-89.392,0.733,-31.380
EX0521-092111,16,C19,prep,78,78,0,837259.092,0.686,-0.676,0.195,0.188,0,0,0,0,0,0,0,0,0,0.000,0,0,0.487,0.003,-0.400,-0.100,0.260,0.015,0.984,0.014,-0.002,0.002,0.026,0.000,0.000,0.000,0.000,0,2,0,3,7,255,960,250,0,0,-89.392,0.733,-31.380
EX0521-092111,16,C19,prep,78,78,0,837264.091,0.686,-0.676,0.195,0.188,0,0,0,0,0,0,0,0,0,0.000,0,0,1.108,0.004,-1.060,-0.040,0.320,0.014,1.002,0.012,-0.002,0.004,0.026,0.000,0.000,0.000,0.000,0,2,0,3,7,255,960,250,0,0,-89.387,0.733,-31.380
EX0521-092111,16,C19,prep,78,78,0,837269.092,0.686,-0.676,0.195,0.188,0,0,0,0,0,0,0,0,0,0.000,0,0,1.288,0.002,1.140,0.020,-0.600,0.015,0.992,0.011,-0.002,0.000,-0.022,0.000,0.000,0.000,0.000,0,2,0,3,7,255,960,250,0,0,-89.393,0.730,-31.380
EX0521-092111,16,C19,prep,78,78,0,837274.091,0.686,-0.676,0.195,0.188,0,0,0,0,0,0,0,0,0,0.000,0,0,0.974,0.006,-0.820,-0.160,0.500,0.016,0.990,0.011,0.006,0.000,-0.022,0.000,0.000,0.000,0.000,0,2,0,3,7,255,960,250,0,0,-89.389,0.730,-31.380
EX0521-092111,16,C19,prep,78,78,0,837279.092,0.686,-0.676,0.195,0.188,0,0,0,0,0,0,0,0,0,0.000,0,0,0.454,0.006,0.340,0.020,-0.300,0.013,1.005,0.010,0.006,0.000,-0.022,0.000,0.000,0.000,0.000,0,2,0,3,7,255,960,250,0,0,-89.389,0.730,-31.380
EX0521-092111,16,C19,prep,78,78,0,837284.092,0.686,-0.676,0.195,0.188,0,0,0,0,0,0,0,0,0,0.000,0,0,0.098,0.015,0.040,-0.040,0.080,0.017,0.979,0.012,0.014,-0.004,-0.036,0.000,0.000,0.000,0.000,0,2,0,3,7,255,960,250,0,0,-89.389,0.730,-31.380
EX0521-092111,16,C19,prep,78,78,0,837289.092,0.686,-0.676,0.195,0.188,0,0,0,0,0,0,0,0,0,0.000,0,0,0.352,0.022,-0.340,-0.040,0.080,0.012,1.009,0.009,0.000,0.022,0.112,0.000,0.000,0.000,0.000,0,2,0,3,7,255,960,250,0,0,-89.389,0.730,-31.380
EX0521-092111,16,C19,prep,78,78,0,837294.092,0.686,-0.676,0.195,0.188,0,0,0,0,0,0,0,0,0,0.000,0,0,0.970,0.016,0.900,0.020,-0.360,0.015,0.983,0.013,0.002,-0.016,-0.102,0.000,0.000,0.000,0.000,0,2,0,3,7,255,960,250,0,0,-89.393,0.730,-31.380
EX0521-092111,16,C19,prep,94,94,0,837299.092,0.686,-0.676,0.195,0.188,0,0,0,0,0,0,0,0,0,0.000,0,0,1.282,0.022,-1.180,-0.040,0.500,0.013,1.000,0.010,0.000,0.022,0.064,0.000,0.000,0.000,0.000,0,2,0,3,7,255,960,250,0,0,-89.387,0.730,-31.380
EX0521-092111,16,C19,prep,94,94,0,837304.092,0.686,-0.676,0.195,0.188,0,0,0,0,0,0,0,0,0,0.000,0,0,1.320,0.012,1.200,-0.100,-0.540,0.015,0.992,0.012,0.002,-0.012,-0.022,0.000,0.000,0.000,0.000,0,2,0,3,7,255,960,250,0,0,-89.393,0.730,-31.380
EX0521-092111,16,C19,prep,94,94,0,837309.091,0.686,-0.676,0.195,0.188,0,0,0,0,0,0,0,0,0,0.000,0,0,1.015,0.014,-0.940,-0.040,0.380,0.014,0.992,0.010,0.002,0.014,-0.022,0.000,0.000,0.000,0.000,0,2,0,3,7,255,960,250,0,0,-89.389,0.730,-31.380
EX0521-092111,16,C19,prep,94,94,0,837314.092,0.686,-0.676,0.195,0.188,0,0,0,0,0,0,0,0,0,0.000,0,0,0.227,0.006,-0.140,-0.160,0.080,0.013,0.998,0.013,0.002,-0.006,-0.022,0.000,0.000,0.000,0.000,0,2,0,3,7,255,960,250,0,0,-89.389,0.730,-31.380
EX0521-092111,16,C19,prep,110,110,0,837319.091,0.686,-0.676,0.195,0.188,0,0,0,0,0,0,0,0,0,0.000,0,0,1.269,0.004,1.140,0.200,-0.520,0.015,0.989,0.011,0.002,-0.004,-0.022,0.000,0.000,0.000,0.000,0,2,0,3,7,255,960,250,0,0,-89.395,0.730,-31.380
EX0521-092111,16,C19,prep,110,110,0,837324.092,0.686,-0.676,0.195,0.188,0,0,0,0,0,0,0,0,0,0.000,0,0,1.675,0.004,-1.540,-0.160,0.640,0.014,1.000,0.011,0.000,-0.004,0.036,0.000,0.000,0.000,0.000,0,2,0,3,7,255,960,250,0,0,-89.387,0.734,-31.380
EX0521-092111,16,C19,prep,142,142,0,837329.091,0.686,-0.676,0.195,0.188,0,0,0,0,0,0,0,0,0,0.000,0,0,1.477,0.004,1.380,0.080,-0.520,0.016,0.988,0.014,0.000,-0.004,-0.050,0.000,0.000,0.000,0.000,0,2,0,3,7,255,960,250,0,0,-89.394,0.734,-31.380
EX0521-092111,16,C19,prep,142,142,0,837334.092,0.686,-0.676,0.195,0.188,0,0,0,0,0,0,0,0,0,0.000,0,0,0.790,0.012,-0.760,0.080,0.200,0.014,0.998,0.008,0.000,0.012,0.036,0.000,0.000,0.000,0.000,0,2,0,3,7,255,960,250,0,0,-89.390,0.734,-31.380
EX0521-092111,16,C19,prep,142,142,0,837339.091,0.686,-0.676,0.195,0.188,0,0,0,0,0,0,0,0,0,0.000,0,0,0.433,0.016,-0.320,-0.280,0.080,0.015,0.995,0.013,-0.002,-0.016,0.012,0.000,0.000,0.000,0.000,0,2,0,3,7,255,960,250,0,0,-89.390,0.734,-31.380
EX0521-092111,16,C19,prep,142,142,0,837344.092,0.686,-0.676,0.195,0.188,0,0,0,0,0,0,0,0,0,0.000,0,0,1.537,0.009,1.440,0.140,-0.520,0.015,0.985,0.011,0.008,-0.004,0.012,0.000,0.000,0.000,0.000,0,2,0,3,7,255,960,250,0,0,-89.397,0.734,-31.380
EX0521-092111,16,C19,prep,142,142,0,837349.091,0.686,-0.676,0.195,0.188,0,0,0,0,0,0,0,0,0,0.000,0,0,1.223,0.009,-1.180,0.020,0.320,0.013,1.005,0.007,0.008,-0.004,0.012,0.000,0.000,0.000,0.000,0,2,0,3,7,255,960,250,0,0,-89.391,0.734,-31.380
EX0521-092111,16,C19,prep,142,142,0,837354.093,0.686,-0.676,0.195,0.188,0,0,0,0,0,0,0,0,0,0.000,0,0,0.308,0.009,-0.200,-0.220,0.080,0.015,0.989,0.017,0.008,-0.004,-0.050,0.000,0.000,0.000,0.000,0,2,0,3,7,255,960,250,0,0,-89.386,0.734,-31.380
EX0521-092111,16,C19,prep,168,168,0,837359.093,0.686,-0.676,0.195,0.188,0,0,0,0,0,0,0,0,0,0.000,0,0,1.439,0.011,1.380,0.080,-0.400,0.015,0.989,0.010,0.008,0.008,-0.046,0.000,0.000,0.000,0.000,0,2,0,3,7,255,960,250,0,0,-89.393,0.734,-31.380
EX0521-092111,16,C19,prep,168,168,0,837364.093,0.686,-0.676,0.195,0.188,0,0,0,0,0,0,0,0,0,0.000,0,0,0.705,0.013,-0.700,0.020,0.080,0.013,1.004,0.006,0.010,0.008,-0.046,0.000,0.000,0.000,0.000,0,2,0,3,7,255,960,250,0,0,-89.389,0.734,-31.380
EX0521-092111,16,C19,prep,169,169,0,837369.092,0.686,-0.676,0.195,0.188,0,0,0,0,0,0,0,0,0,0.000,0,0,1.017,0.013,-0.940,-0.220,0.320,0.016,0.985,0.018,0.010,0.008,-0.046,0.000,0.000,0.000,0.000,0,2,0,3,7,255,960,250,0,0,-89.382,0.734,-31.380
EX0521-092111,16,C19,prep,169,169,0,837374.091,0.686,-0.676,0.195,0.188,0,0,0,0,0,0,0,0,0,0.000,0,0,1.541,0.008,1.500,-0.100,-0.340,0.015,0.993,0.012,0.000,-0.008,-0.012,0.000,0.000,0.000,0.000,0,2,0,3,7,255,960,250,0,0,-89.390,0.734,-31.380
EX0521-092111,16,C19,prep,170,170,0,837379.092,0.686,-0.676,0.195,0.188,0,0,0,0,0,0,0,0,0,0.000,0,0,0.571,0.008,0.400,0.080,-0.400,0.014,1.001,0.004,0.000,-0.008,-0.012,0.000,0.000,0.000,0.000,0,2,0,3,7,255,960,250,0,0,-89.396,0.734,-31.380
EX0521-092111,16,C19,prep,170,170,0,837384.092,0.686,-0.676,0.195,0.188,0,0,0,0,0,0,0,0,0,0.000,0,0,2.577,0.008,-2.460,-0.100,0.760,0.015,0.987,0.017,0.000,-0.008,-0.012,0.000,0.000,0.000,0.000,0,2,0,3,7,255,960,250,0,0,-89.382,0.737,-31.379
EX0521-092111,16,C19,prep,192,192,0,837389.092,0.686,-0.676,0.195,0.188,0,0,0,0,0,0,0,0,0,0.000,0,0,1.305,0.028,1.260,0.020,-0.340,0.014,0.996,0.015,-0.018,-0.022,0.016,0.000,0.000,0.000,0.000,0,2,0,3,7,255,960,250,0,0,-89.388,0.737,-31.379
EX0521-092111,16,C19,prep,192,192,0,837394.091,0.686,-0.676,0.195,0.188,0,0,0,0,0,0,0,0,0,0.000,0,0,1.597,0.028,1.500,-0.100,-0.540,0.014,0.995,0.005,-0.018,-0.022,0.006,0.000,0.000,0.000,0.000,0,2,0,3,7,255,960,250,0,0,-89.397,0.737,-31.379
EX0521-092111,16,C19,prep,192,192,0,837399.092,0.686,-0.676,0.195,0.188,0,0,0,0,0,0,0,0,0,0.000,0,0,2.598,0.007,-2.460,-0.160,0.820,0.014,0.997,0.012,-0.006,-0.004,0.016,0.000,0.000,0.000,0.000,0,2,0,3,7,255,960,250,0,0,-89.385,0.741,-31.379
EX0521-092111,16,C19,prep,192,192,0,837404.091,0.686,-0.676,0.195,0.188,0,0,0,0,0,0,0,0,0,0.000,0,0,0.729,0.007,0.640,0.080,-0.340,0.015,0.992,0.016,-0.006,-0.004,0.006,0.000,0.000,0.000,0.000,0,2,0,3,7,255,960,250,0,0,-89.384,0.741,-31.379
EX0521-092111,16,C19,prep,206,206,0,837409.092,0.686,-0.676,0.195,0.188,0,0,0,0,0,0,0,0,0,0.000,0,0,0.582,0.007,0.580,0.020,-0.040,0.015,0.990,0.008,-0.006,-0.004,-0.018,0.000,0.000,0.000,0.000,0,2,0,3,7,255,960,250,0,0,-89.387,0.741,-31.379
EX0521-092111,16,C19,prep,206,206,0,837414.091,0.686,-0.676,0.195,0.188,0,0,0,0,0,0,0,0,0,0.000,0,0,0.607,0.029,-0.580,-0.160,0.080,0.014,1.002,0.009,0.008,0.028,-0.018,0.000,0.000,0.000,0.000,0,2,0,3,7,255,960,250,0,0,-89.387,0.741,-31.379
EX0521-092111,16,C19,prep,206,206,0,837419.092,0.686,-0.676,0.195,0.188,0,0,0,0,0,0,0,0,0,0.000,0,0,0.237,0.029,-0.200,-0.100,0.080,0.015,0.985,0.016,0.008,0.028,-0.042,0.000,0.000,0.000,0.000,0,2,0,3,7,255,960,250,0,0,-89.382,0.741,-31.379
EX0521-092111,16,C19,prep,206,206,0,837424.091,0.686,-0.676,0.195,0.188,0,0,0,0,0,0,0,0,0,0.000,0,0,0.649,0.016,0.640,-0.040,-0.100,0.014,0.998,0.010,0.000,0.016,0.040,0.000,0.000,0.000,0.000,0,2,0,3,7,255,960,250,0,0,-89.385,0.741,-31.379
EX0521-092111,16,C19,prep,226,226,0,837429.092,0.686,-0.676,0.195,0.188,0,0,0,0,0,0,0,0,0,0.000,0,0,0.255,0.016,0.100,0.080,-0.220,0.014,0.998,0.008,0.000,0.016,0.038,0.000,0.000,0.000,0.000,0,2,0,3,7,255,960,250,0,0,-89.385,0.742,-31.379
EX0521-092111,16,C19,prep,226,226,0,837434.091,0.686,-0.676,0.195,0.188,0,0,0,0,0,0,0,0,0,0.000,0,0,1.240,0.016,-1.180,-0.040,0.380,0.016,0.988,0.015,0.000,0.016,0.038,0.000,0.000,0.000,0.000,0,2,0,3,7,255,960,250,0,0,-89.379,0.742,-31.379
EX0521-092111,16,C19,prep,267,267,0,837439.092,0.686,-0.676,0.195,0.188,0,0,0,0,0,0,0,0,0,0.000,0,0,0.886,0.004,0.840,0.020,-0.280,0.014,0.998,0.012,0.000,0.004,0.038,0.000,0.000,0.000,0.000,0,2,0,3,7,255,960,250,0,0,-89.383,0.742,-31.379
EX0521-092111,16,C19,prep,267,267,0,837444.092,0.686,-0.676,0.195,0.188,0,0,0,0,0,0,0,0,0,0.000,0,0,0.193,0.004,0.160,-0.040,-0.100,0.015,0.992,0.009,0.000,0.004,-0.018,0.000,0.000,0.000,0.000,0,2,0,3,7,255,960,250,0,0,-89.383,0.742,-31.379
EX0521-092111,16,C19,prep,267,267,0,837449.092,0.686,-0.676,0.195,0.188,0,0,0,0,0,0,0,0,0,0.000,0,0,0.980,0.006,-0.940,-0.100,0.260,0.014,0.997,0.012,-0.004,0.004,0.026,0.000,0.000,0.000,0.000,0,2,0,3,7,255,960,250,0,0,-89.379,0.742,-31.379
EX0521-092111,16,C19,prep,267,267,0,837454.093,0.686,-0.676,0.195,0.188,0,0,0,0,0,0,0,0,0,0.000,0,0,0.986,0.002,0.900,-0.040,-0.400,0.015,0.993,0.012,0.000,-0.002,-0.008,0.000,0.000,0.000,0.000,0,2,0,3,7,255,960,250,0,0,-89.383,0.742,-31.379
EX0521-092111,16,C19,prep,267,267,0,837459.092,0.686,-0.676,0.195,0.188,0,0,0,0,0,0,0,0,0,0.000,0,0,0.098,0.002,0.040,-0.040,0.080,0.015,0.994,0.008,0.000,-0.002,0.000,0.000,0.000,0.000,0.000,0,2,0,3,7,255,960,250,0,0,-89.383,0.742,-31.379
EX0521-092111,16,C19,prep,267,267,0,837464.092,0.686,-0.676,0.195,0.188,0,0,0,0,0,0,0,0,0,0.000,0,0,0.774,0.004,-0.760,-0.040,0.140,0.014,0.997,0.012,0.000,0.004,0.000,0.000,0.000,0.000,0.000,0,2,0,3,7,255,960,250,0,0,-89.380,0.742,-31.379
EX0521-092111,16,C19,prep,269,269,0,837469.091,0.686,-0.676,0.195,0.188,0,0,0,0,0,0,0,0,0,0.000,0,0,0.284,0.007,0.280,0.020,-0.040,0.014,0.991,0.013,-0.006,0.004,0.000,0.000,0.000,0.000,0.000,0,2,0,3,7,255,960,250,0,0,-89.380,0.742,-31.379
EX0521-092111,16,C19,prep,269,269,0,837474.092,0.686,-0.676,0.195,0.188,0,0,0,0,0,0,0,0,0,0.000,0,0,0.355,0.007,0.340,0.020,-0.100,0.013,0.996,0.009,-0.006,0.004,0.020,0.000,0.000,0.000,0.000,0,2,0,3,7,255,960,250,0,0,-89.380,0.742,-31.379
EX0521-092111,16,C19,prep,269,269,0,837479.091,0.686,-0.676,0.195,0.188,0,0,0,0,0,0,0,0,0,0.000,0,0,0.279,0.026,-0.260,-0.100,0.020,0.013,0.996,0.009,0.002,0.026,0.020,0.000,0.000,0.000,0.000,0,2,0,3,7,255,960,250,0,0,-89.380,0.742,-31.379
EX0521-092111,16,C19,prep,269,269,0,837484.092,0.686,-0.676,0.195,0.188,0,0,0,0,0,0,0,0,0,0.000,0,0,0.190,0.026,-0.140,-0.100,0.080,0.014,0.991,0.013,0.002,0.026,0.020,0.000,0.000,0.000,0.000,0,2,0,3,7,255,960,250,0,0,-89.380,0.742,-31.379
EX0521-092111,16,C19,prep,296,296,0,837489.091,0.686,-0.676,0.195,0.188,0,0,0,0,0,0,0,0,0,0.000,0,0,0.810,0.018,0.760,0.020,-0.280,0.014,0.996,0.010,0.002,0.018,0.020,0.000,0.000,0.000,0.000,0,2,0,3,7,255,960,250,0,0,-89.384,0.742,-31.379
EX0521-092111,16,C19,prep,296,296,0,837494.092,0.686,-0.676,0.195,0.188,0,0,0,0,0,0,0,0,0,0.000,0,0,0.526,0.015,-0.520,0.020,0.080,0.015,0.994,0.010,0.004,0.014,-0.004,0.000,0.000,0.000,0.000,0,2,0,3,7,255,960,250,0,0,-89.384,0.742,-31.379
EX0521-092111,16,C19,prep,296,296,0,837499.091,0.686,-0.676,0.195,0.188,0,0,0,0,0,0,0,0,0,0.000,0,0,0.420,0.015,-0.400,-0.100,0.080,0.014,0.994,0.014,0.004,0.014,-0.004,0.000,0.000,0.000,0.000,0,2,0,3,7,255,960,250,0,0,-89.384,0.742,-31.379
EX0521-092111,16,C19,prep,296,296,0,837504.092,0.686,-0.676,0.195,0.188,0,0,0,0,0,0,0,0,0,0.000,0,0,0.603,0.010,0.580,-0.040,-0.160,0.015,0.995,0.011,0.010,0.002,-0.004,0.000,0.000,0.000,0.000,0,2,0,3,7,255,960,250,0,0,-89.387,0.742,-31.379
EX0521-092111,16,C19,prep,297,297,0,837509.091,0.686,-0.676,0.195,0.188,0,0,0,0,0,0,0,0,0,0.000,0,0,0.205,0.010,-0.200,-0.040,0.020,0.014,0.994,0.009,0.010,0.002,-0.004,0.000,0.000,0.000,0.000,0,2,0,3,7,255,960,250,0,0,-89.387,0.742,-31.379
EX0521-092111,16,C19,prep,297,297,0,837514.092,0.686,-0.676,0.195,0.188,0,0,0,0,0,0,0,0,0,0.000,0,0,0.345,0.010,-0.320,-0.100,0.080,0.015,0.995,0.013,0.010,0.002,0.006,0.000,0.000,0.000,0.000,0,2,0,3,7,255,960,250,0,0,-89.387,0.742,-31.379
EX0521-092111,16,C19,prep,302,302,0,837519.091,0.686,-0.676,0.195,0.188,0,0,0,0,0,0,0,0,0,0.000,0,0,0.489,0.006,0.460,-0.040,-0.160,0.014,0.992,0.013,-0.002,-0.006,-0.004,0.000,0.000,0.000,0.000,0,2,0,3,7,255,960,250,0,0,-89.387,0.742,-31.379
EX0521-092111,16,C19,prep,302,302,0,837524.092,0.686,-0.676,0.195,0.188,0,0,0,0,0,0,0,0,0,0.000,0,0,0.104,0.006,0.100,0.020,0.020,0.014,0.998,0.009,-0.002,-0.006,0.006,0.000,0.000,0.000,0.000,0,2,0,3,7,255,960,250,0,0,-89.387,0.742,-31.379
EX0521-092111,16,C19,prep,352,352,0,837529.092,0.686,-0.676,0.195,0.188,0,0,0,0,0,0,0,0,0,0.000,0,0,0.598,0.008,-0.580,-0.040,0.140,0.014,0.993,0.012,-0.006,-0.006,-0.008,0.000,0.000,0.000,0.000,0,2,0,3,7,255,960,250,0,0,-89.387,0.742,-31.379
EX0521-092111,16,C19,prep,352,352,0,837534.091,0.686,-0.676,0.195,0.188,0,0,0,0,0,0,0,0,0,0.000,0,0,0.115,0.008,0.100,-0.040,-0.040,0.014,0.991,0.012,-0.006,-0.006,-0.008,0.000,0.000,0.000,0.000,0,2,0,3,7,255,960,250,0,0,-89.387,0.742,-31.379
EX0521-092111,16,C19,prep,352,352,0,837539.092,0.686,-0.676,0.195,0.188,0,0,0,0,0,0,0,0,0,0.000,0,0,0.357,0.008,0.340,-0.040,-0.100,0.014,0.997,0.009,-0.006,-0.006,-0.008,0.000,0.000,0.000,0.000,0,2,0,3,7,255,960,250,0,0,-89.387,0.742,-31.379
EX0521-092111,16,C19,prep,352,352,0,837544.092,0.686,-0.676,0.195,0.188,0,0,0,0,0,0,0,0,0,0.000,0,0,0.336,0.006,-0.320,-0.100,0.020,0.014,0.994,0.011,0.002,0.006,-0.004,0.000,0.000,0.000,0.000,0,2,0,3,7,255,960,250,0,0,-89.387,0.742,-31.379
EX0521-092111,16,C19,prep,352,352,0,837549.092,0.686,-0.676,0.195,0.188,0,0,0,0,0,0,0,0,0,0.000,0,0,0.115,0.006,0.040,-0.100,-0.040,0.015,0.993,0.012,0.002,0.006,-0.004,0.000,0.000,0.000,0.000,0,2,0,3,7,255,960,250,0,0,-89.387,0.742,-31.379
EX0521-092111,16,C19,prep,352,352,0,837554.093,0.686,-0.676,0.195,0.188,0,0,0,0,0,0,0,0,0,0.000,0,0,0.546,0.006,0.520,-0.040,-0.160,0.013,0.995,0.011,0.002,0.006,-0.004,0.000,0.000,0.000,0.000,0,2,0,3,7,255,960,250,0,0,-89.387,0.742,-31.379
EX0521-092111,16,C19,prep,366,366,0,837559.092,0.686,-0.676,0.195,0.188,0,0,0,0,0,0,0,0,0,0.000,0,0,0.540,0.012,-0.520,-0.040,0.140,0.015,0.995,0.010,0.002,0.012,0.010,0.000,0.000,0.000,0.000,0,2,0,3,7,255,960,250,0,0,-89.387,0.742,-31.379
EX0521-092111,16,C19,prep,366,366,0,837564.093,0.686,-0.676,0.195,0.188,0,0,0,0,0,0,0,0,0,0.000,0,0,0.205,0.013,-0.200,0.020,-0.040,0.013,0.993,0.013,-0.006,0.012,0.010,0.000,0.000,0.000,0.000,0,2,0,3,7,255,960,250,0,0,-89.387,0.742,-31.379
EX0521-092111,16,C19,prep,366,366,0,837569.092,0.686,-0.676,0.195,0.188,0,0,0,0,0,0,0,0,0,0.000,0,0,0.300,0.008,0.280,-0.040,-0.100,0.015,0.994,0.012,0.006,-0.006,0.000,0.000,0.000,0.000,0.000,0,2,0,3,7,255,960,250,0,0,-89.387,0.742,-31.379
EX0521-092111,16,C19,prep,366,366,0,837574.091,0.686,-0.676,0.195,0.188,0,0,0,0,0,0,0,0,0,0.000,0,0,0.147,0.006,-0.140,-0.040,0.020,0.014,0.996,0.010,0.000,-0.006,0.000,0.000,0.000,0.000,0.000,0,2,0,3,7,255,960,250,0,0,-89.387,0.742,-31.379
EX0521-092111,16,C19,prep,366,366,0,837579.092,0.686,-0.676,0.195,0.188,0,0,0,0,0,0,0,0,0,0.000,0,0,0.208,0.006,-0.200,-0.040,-0.040,0.014,0.993,0.012,0.000,-0.006,0.000,0.000,0.000,0.000,0.000,0,2,0,3,7,255,960,250,0,0,-89.387,0.742,-31.379
EX0521-092111,16,C19,prep,366,366,0,837584.092,0.686,-0.676,0.195,0.188,0,0,0,0,0,0,0,0,0,0.000,0,0,0.300,0.002,0.280,-0.040,-0.100,0.014,0.993,0.011,0.000,0.002,-0.008,0.000,0.000,0.000,0.000,0,2,0,3,7,255,960,250,0,0,-89.387,0.742,-31.379
EX0521-092111,16,C19,prep,382,382,0,837589.092,0.686,-0.676,0.195,0.188,0,0,0,0,0,0,0,0,0,0.000,0,0,0.143,0.003,0.100,0.020,-0.100,0.013,0.997,0.009,-0.002,0.002,-0.008,0.000,0.000,0.000,0.000,0,2,0,3,7,255,960,250,0,0,-89.387,0.742,-31.379
EX0521-092111,16,C19,prep,382,382,0,837594.091,0.686,-0.676,0.195,0.188,0,0,0,0,0,0,0,0,0,0.000,0,0,0.390,0.003,-0.380,-0.040,0.080,0.014,0.992,0.012,-0.002,0.002,-0.008,0.000,0.000,0.000,0.000,0,2,0,3,7,255,960,250,0,0,-89.387,0.742,-31.379
EX0521-092111,16,C19,prep,400,400,0,837599.092,0.686,-0.676,0.195,0.188,0,0,0,0,0,0,0,0,0,0.000,0,0,0.115,0.008,0.100,-0.040,-0.040,0.014,0.995,0.013,-0.006,-0.006,0.006,0.000,0.000,0.000,0.000,0,2,0,3,7,255,960,250,0,0,-89.387,0.742,-31.379
EX0521-092111,16,C19,prep,400,400,0,837604.092,0.686,-0.676,0.195,0.188,0,0,0,0,0,0,0,0,0,0.000,0,0,0.170,0.008,0.160,-0.040,-0.040,0.013,0.995,0.010,-0.006,-0.006,0.006,0.000,0.000,0.000,0.000,0,2,0,3,7,255,960,250,0,0,-89.387,0.742,-31.379
EX0521-092111,16,C19,prep,401,401,0,837609.092,0.686,-0.676,0.195,0.188,0,0,0,0,0,0,0,0,0,0.000,0,0,0.290,0.010,-0.260,-0.100,0.080,0.013,0.994,0.012,-0.008,0.006,0.006,0.000,0.000,0.000,0.000,0,2,0,3,7,255,960,250,0,0,-89.387,0.742,-31.379
EX0521-092111,16,C19,prep,401,401,0,837614.092,0.686,-0.676,0.195,0.188,0,0,0,0,0,0,0,0,0,0.000,0,0,0.069,0.007,0.040,-0.040,-0.040,0.016,0.994,0.011,-0.004,0.006,-0.004,0.000,0.000,0.000,0.000,0,2,0,3,7,255,960,250,0,0,-89.387,0.742,-31.379
EX0521-092111,16,C19,prep,414,414,0,837619.091,0.686,-0.676,0.195,0.188,0,0,0,0,0,0,0,0,0,0.000,0,0,0.300,0.013,0.280,-0.040,-0.100,0.016,0.994,0.011,0.012,-0.004,-0.004,0.000,0.000,0.000,0.000,0,2,0,3,7,255,960,250,0,0,-89.387,0.742,-31.379
EX0521-092111,16,C19,prep,414,414,0,837624.092,0.686,-0.676,0.195,0.188,0,0,0,0,0,0,0,0,0,0.000,0,0,0.275,0.013,-0.260,-0.040,0.080,0.015,0.994,0.011,0.012,-0.004,-0.004,0.000,0.000,0.000,0.000,0,2,0,3,7,255,960,250,0,0,-89.387,0.742,-31.379
EX0521-092111,16,C19,prep,446,446,0,837629.091,0.686,-0.676,0.195,0.188,0,0,0,0,0,0,0,0,0,0.000,0,0,0.098,0.008,-0.080,-0.040,-0.040,0.015,0.993,0.013,0.006,-0.006,-0.004,0.000,0.000,0.000,0.000,0,2,0,3,7,255,960,250,0,0,-89.387,0.742,-31.379
EX0521-092111,16,C19,prep,446,446,0,837634.092,0.686,-0.676,0.195,0.188,0,0,0,0,0,0,0,0,0,0.000,0,0,0.224,0.006,0.220,0.020,-0.040,0.015,0.994,0.011,0.006,0.002,0.000,0.000,0.000,0.000,0.000,0,2,0,3,7,255,960,250,0,0,-89.387,0.742,-31.379
EX0521-092111,16,C19,prep,446,446,0,837639.091,0.686,-0.676,0.195,0.188,0,0,0,0,0,0,0,0,0,0.000,0,0,0.110,0.002,-0.020,-0.100,-0.040,0.014,0.995,0.010,0.000,0.002,0.000,0.000,0.000,0.000,0.000,0,2,0,3,7,255,960,250,0,0,-89.388,0.742,-31.379
EX0521-092111,16,C19,prep,446,446,0,837644.092,0.686,-0.676,0.195,0.188,0,0,0,0,0,0,0,0,0,0.000,0,0,0.098,0.002,-0.080,-0.040,-0.040,0.014,0.992,0.012,0.000,0.002,0.000,0.000,0.000,0.000,0.000,0,2,0,3,7,255,960,250,0,0,-89.388,0.742,-31.379
EX0521-092111,16,C19,prep,446,446,0,837649.091,0.686,-0.676,0.195,0.188,0,0,0,0,0,0,0,0,0,0.000,0,0,0.193,0.003,0.160,-0.100,-0.040,0.014,0.995,0.012,-0.002,-0.002,0.006,0.000,0.000,0.000,0.000,0,2,0,3,7,255,960,250,0,0,-89.388,0.742,-31.379
EX0521-092111,16,C19,prep,446,446,0,837654.093,0.686,-0.676,0.195,0.188,0,0,0,0,0,0,0,0,0,0.000,0,0,0.069,0.004,0.040,-0.040,-0.040,0.013,0.995,0.011,-0.004,-0.002,0.006,0.000,0.000,0.000,0.000,0,2,0,3,7,255,960,250,0,0,-89.388,0.742,-31.379
EX0521-092111,16,C19,prep,467,467,0,837659.091,0.686,-0.676,0.195,0.188,0,0,0,0,0,0,0,0,0,0.000,0,0,0.264,0.010,-0.260,-0.040,0.020,0.014,0.994,0.012,-0.010,-0.002,0.006,0.000,0.000,0.000,0.000,0,2,0,3,7,255,960,250,0,0,-89.388,0.742,-31.379
EX0521-092111,16,C19,prep,467,467,0,837664.092,0.686,-0.676,0.195,0.188,0,0,0,0,0,0,0,0,0,0.000,0,0,0.069,0.010,0.040,-0.040,-0.040,0.014,0.993,0.012,-0.010,-0.002,-0.004,0.000,0.000,0.000,0.000,0,2,0,3,7,255,960,250,0,0,-89.388,0.742,-31.379
EX0521-092111,16,C19,prep,468,468,0,837669.091,0.686,-0.676,0.195,0.188,0,0,0,0,0,0,0,0,0,0.000,0,0,0.069,0.003,0.040,-0.040,-0.040,0.015,0.995,0.011,-0.002,-0.002,-0.004,0.000,0.000,0.000,0.000,0,2,0,3,7,255,960,250,0,0,-89.388,0.742,-31.379
EX0521-092111,16,C19,prep,468,468,0,837674.092,0.686,-0.676,0.195,0.188,0,0,0,0,0,0,0,0,0,0.000,0,0,0.173,0.002,-0.140,-0.100,0.020,0.014,0.993,0.011,0.000,0.002,-0.008,0.000,0.000,0.000,0.000,0,2,0,3,7,255,960,250,0,0,-89.388,0.742,-31.379
EX0521-092111,16,C19,prep,469,469,0,837679.091,0.686,-0.676,0.195,0.188,0,0,0,0,0,0,0,0,0,0.000,0,0,0.147,0.002,0.100,-0.100,-0.040,0.015,0.993,0.012,0.000,0.002,-0.008,0.000,0.000,0.000,0.000,0,2,0,3,7,255,960,250,0,0,-89.388,0.742,-31.379
EX0521-092111,16,C19,prep,469,469,0,837684.092,0.686,-0.676,0.195,0.188,0,0,0,0,0,0,0,0,0,0.000,0,0,0.069,0.002,0.040,-0.040,-0.040,0.014,0.995,0.011,0.000,0.002,-0.008,0.000,0.000,0.000,0.000,0,2,0,3,7,255,960,250,0,0,-89.388,0.742,-31.379
EX0521-092111,16,C19,prep,478,478,0,837689.092,0.686,-0.676,0.195,0.188,0,0,0,0,0,0,0,0,0,0.000,0,0,0.147,0.002,-0.140,-0.040,0.020,0.014,0.995,0.011,0.000,0.002,0.006,0.000,0.000,0.000,0.000,0,2,0,3,7,255,960,250,0,0,-89.388,0.742,-31.379
EX0521-092111,16,C19,prep,478,478,0,837694.091,0.686,-0.676,0.195,0.188,0,0,0,0,0,0,0,0,0,0.000,0,0,0.098,0.004,-0.080,-0.040,-0.040,0.014,0.995,0.011,0.000,0.004,0.006,0.000,0.000,0.000,0.000,0,2,0,3,7,255,960,250,0,0,-89.388,0.742,-31.379
EX0521-092111,16,C19,prep,494,494,0,837699.092,0.686,-0.676,0.195,0.188,0,0,0,0,0,0,0,0,0,0.000,0,0,0.069,0.006,0.040,-0.040,-0.040,0.014,0.993,0.012,-0.004,0.004,0.006,0.000,0.000,0.000,0.000,0,2,0,3,7,255,960,250,0,0,-89.388,0.742,-31.379
EX0521-092111,16,C19,prep,494,494,0,837704.091,0.686,-0.676,0.195,0.188,0,0,0,0,0,0,0,0,0,0.000,0,0,0.098,0.006,-0.080,-0.040,-0.040,0.014,0.995,0.011,-0.004,0.004,0.006,0.000,0.000,0.000,0.000,0,2,0,3,7,255,960,250,0,0,-89.388,0.742,-31.379
EX0521-092111,16,C19,prep,510,510,0,837709.092,0.686,-0.676,0.195,0.188,0,0,0,0,0,0,0,0,0,0.000,0,0,0.134,0.004,-0.080,-0.100,-0.040,0.016,0.994,0.011,-0.004,0.000,-0.004,0.000,0.000,0.000,0.000,0,2,0,3,7,255,960,250,0,0,-89.388,0.742,-31.379
EX0521-092111,16,C19,prep,510,510,0,837714.091,0.686,-0.676,0.195,0.188,0,0,0,0,0,0,0,0,0,0.000,0,0,0.170,0.004,0.160,-0.040,-0.040,0.015,0.995,0.013,-0.004,-0.002,0.006,0.000,0.000,0.000,0.000,0,2,0,3,7,255,960,250,0,0,-89.388,0.742,-31.379
EX0521-092111,16,C19,prep,510,510,0,837719.092,0.686,-0.676,0.195,0.188,0,0,0,0,0,0,0,0,0,0.000,0,0,0.098,0.003,-0.080,-0.040,-0.040,0.014,0.994,0.011,0.002,-0.002,0.000,0.000,0.000,0.000,0.000,0,2,0,3,7,255,960,250,0,0,-89.388,0.742,-31.379
EX0521-092111,16,C19,prep,510,510,0,837724.091,0.686,-0.676,0.195,0.188,0,0,0,0,0,0,0,0,0,0.000,0,0,0.202,0.002,-0.200,0.020,0.020,0.015,0.993,0.011,0.002,0.000,0.000,0.000,0.000,0.000,0.000,0,2,0,3,7,255,960,250,0,0,-89.388,0.742,-31.379
EX0521-092111,16,C19,prep,526,526,0,837729.092,0.686,-0.676,0.195,0.188,0,0,0,0,0,0,0,0,0,0.000,0,0,0.060,0.004,0.040,0.020,-0.040,0.015,0.994,0.011,0.004,0.000,-0.004,0.000,0.000,0.000,0.000,0,2,0,3,7,255,960,250,0,0,-89.388,0.742,-31.379
EX0521-092111,16,C19,prep,526,526,0,837734.091,0.686,-0.676,0.195,0.188,0,0,0,0,0,0,0,0,0,0.000,0,0,0.069,0.004,0.040,-0.040,-0.040,0.014,0.993,0.010,0.004,0.000,-0.008,0.000,0.000,0.000,0.000,0,2,0,3,7,255,960,250,0,0,-89.388,0.742,-31.379
EX0521-092111,16,C19,prep,561,561,0,837739.092,0.686,-0.676,0.195,0.188,0,0,0,0,0,0,0,0,0,0.000,0,0,0.092,0.000,-0.080,-0.040,0.020,0.014,0.994,0.012,0.000,0.000,-0.004,0.000,0.000,0.000,0.000,0,2,0,3,7,255,960,250,0,0,-89.388,0.742,-31.379
EX0521-092111,16,C19,prep,561,561,0,837744.092,0.686,-0.676,0.195,0.188,0,0,0,0,0,0,0,0,0,0.000,0,0,0.147,0.000,0.100,-0.040,-0.100,0.015,0.994,0.011,0.000,0.000,0.002,0.000,0.000,0.000,0.000,0,2,0,3,7,255,960,250,0,0,-89.388,0.742,-31.379
EX0521-092111,16,C19,prep,561,561,0,837749.092,0.686,-0.676,0.195,0.188,0,0,0,0,0,0,0,0,0,0.000,0,0,0.060,0.004,-0.020,-0.040,-0.040,0.014,0.995,0.011,-0.004,0.000,0.002,0.000,0.000,0.000,0.000,0,2,0,3,7,255,960,250,0,0,-89.388,0.742,-31.379
EX0521-092111,16,C19,prep,561,561,0,837754.093,0.686,-0.676,0.195,0.188,0,0,0,0,0,0,0,0,0,0.000,0,0,0.151,0.004,-0.140,-0.040,-0.040,0.014,0.994,0.012,-0.004,0.000,0.002,0.000,0.000,0.000,0.000,0,2,0,3,7,255,960,250,0,0,-89.388,0.742,-31.379
EX0521-092111,16,C19,prep,561,561,0,837759.092,0.686,-0.676,0.195,0.188,0,0,0,0,0,0,0,0,0,0.000,0,0,0.110,0.007,-0.020,-0.040,-0.100,0.013,0.994,0.011,-0.006,0.004,-0.004,0.000,0.000,0.000,0.000,0,2,0,3,7,255,960,250,0,0,-89.388,0.742,-31.379
EX0521-092111,16,C19,prep,561,561,0,837764.093,0.686,-0.676,0.195,0.188,0,0,0,0,0,0,0,0,0,0.000,0,0,0.110,0.006,0.100,0.020,-0.040,0.015,0.994,0.011,-0.006,0.000,-0.004,0.000,0.000,0.000,0.000,0,2,0,3,7,255,960,250,0,0,-89.388,0.742,-31.379
EX0521-092111,16,C19,prep,562,562,0,837769.091,0.686,-0.676,0.195,0.188,0,0,0,0,0,0,0,0,0,0.000,0,0,0.060,0.009,-0.020,-0.040,-0.040,0.015,0.995,0.011,0.008,-0.004,0.002,0.000,0.000,0.000,0.000,0,2,0,3,7,255,960,250,0,0,-89.388,0.742,-31.379
EX0521-092111,16,C19,prep,562,562,0,837774.092,0.686,-0.676,0.195,0.188,0,0,0,0,0,0,0,0,0,0.000,0,0,0.143,0.009,-0.020,-0.100,-0.100,0.014,0.995,0.013,0.008,-0.004,0.006,0.000,0.000,0.000,0.000,0,2,0,3,7,255,960,250,0,0,-89.388,0.742,-31.379
EX0521-092111,16,C19,prep,574,574,0,837779.091,0.686,-0.676,0.195,0.188,0,0,0,0,0,0,0,0,0,0.000,0,0,0.170,0.004,0.160,-0.040,-0.040,0.014,0.995,0.011,0.000,-0.004,0.006,0.000,0.000,0.000,0.000,0,2,0,3,7,255,960,250,0,0,-89.388,0.742,-31.379
EX0521-092111,16,C19,prep,574,574,0,837784.092,0.686,-0.676,0.195,0.188,0,0,0,0,0,0,0,0,0,0.000,0,0,0.035,0.008,-0.020,0.020,0.020,0.013,0.994,0.012,-0.008,0.002,0.006,0.000,0.000,0.000,0.000,0,2,0,3,7,255,960,250,0,0,-89.388,0.742,-31.379
EX0521-092111,16,C19,prep,574,574,0,837789.091,0.686,-0.676,0.195,0.188,0,0,0,0,0,0,0,0,0,0.000,0,0,0.098,0.002,-0.080,-0.040,-0.040,0.015,0.995,0.012,0.000,0.002,0.006,0.000,0.000,0.000,0.000,0,2,0,3,7,255,960,250,0,0,-89.388,0.742,-31.379
EX0521-092111,16,C19,prep,574,574,0,837794.092,0.686,-0.676,0.195,0.188,0,0,0,0,0,0,0,0,0,0.000,0,0,0.069,0.004,0.040,-0.040,-0.040,0.015,0.994,0.012,0.002,-0.004,0.000,0.000,0.000,0.000,0.000,0,2,0,3,7,255,960,250,0,0,-89.389,0.742,-31.379
EX0521-092111,16,C19,prep,600,600,0,837799.091,0.686,-0.676,0.195,0.188,0,0,0,0,0,0,0,0,0,0.000,0,0,0.069,0.004,0.040,-0.040,-0.040,0.015,0.994,0.010,0.002,-0.004,-0.004,0.000,0.000,0.000,0.000,0,2,0,3,7,255,960,250,0,0,-89.389,0.742,-31.379
EX0521-092111,16,C19,prep,600,600,0,837804.092,0.686,-0.676,0.195,0.188,0,0,0,0,0,0,0,0,0,0.000,0,0,0.098,0.003,-0.080,-0.040,-0.040,0.014,0.995,0.012,0.002,-0.002,-0.004,0.000,0.000,0.000,0.000,0,2,0,3,7,255,960,250,0,0,-89.389,0.742,-31.379
EX0521-092111,16,C19,prep,601,601,0,837809.091,0.686,-0.676,0.195,0.188,0,0,0,0,0,0,0,0,0,0.000,0,0,0.049,0.003,-0.020,-0.040,0.020,0.015,0.994,0.012,0.002,-0.002,0.000,0.000,0.000,0.000,0.000,0,2,0,3,7,255,960,250,0,0,-89.389,0.742,-31.379
EX0521-092111,16,C19,prep,601,601,0,837814.092,0.686,-0.676,0.195,0.188,0,0,0,0,0,0,0,0,0,0.000,0,0,0.069,0.003,0.040,-0.040,-0.040,0.015,0.995,0.011,0.002,-0.002,0.006,0.000,0.000,0.000,0.000,0,2,0,3,7,255,960,250,0,0,-89.389,0.742,-31.379
EX0521-092111,16,C19,prep,606,606,0,837819.091,0.686,-0.676,0.195,0.188,0,0,0,0,0,0,0,0,0,0.000,0,0,0.060,0.007,-0.020,-0.040,-0.040,0.015,0.994,0.011,0.006,0.004,0.000,0.000,0.000,0.000,0.000,0,2,0,3,7,255,960,250,0,0,-89.389,0.742,-31.379
EX0521-092111,16,C19,prep,606,606,0,837824.092,0.686,-0.676,0.195,0.188,0,0,0,0,0,0,0,0,0,0.000,0,0,0.049,0.007,-0.020,-0.040,0.020,0.015,0.994,0.010,0.006,0.004,0.000,0.000,0.000,0.000,0.000,0,2,0,3,7,255,960,250,0,0,-89.389,0.742,-31.379
EX0521-092111,16,C19,prep,667,667,0,837829.091,0.686,-0.676,0.195,0.188,0,0,0,0,0,0,0,0,0,0.000,0,0,0.069,0.011,0.040,-0.040,-0.040,0.015,0.993,0.010,0.008,0.008,-0.004,0.000,0.000,0.000,0.000,0,2,0,3,7,255,960,250,0,0,-89.389,0.742,-31.379
EX0521-092111,16,C19,prep,667,667,0,837834.092,0.686,-0.676,0.195,0.188,0,0,0,0,0,0,0,0,0,0.000,0,0,0.098,0.011,-0.080,-0.040,-0.040,0.014,0.993,0.011,0.008,0.008,-0.008,0.000,0.000,0.000,0.000,0,2,0,3,7,255,960,250,0,0,-89.389,0.742,-31.379
EX0521-092111,16,C19,prep,667,667,0,837839.092,0.686,-0.676,0.195,0.188,0,0,0,0,0,0,0,0,0,0.000,0,0,0.110,0.006,0.040,-0.100,0.020,0.015,0.994,0.012,0.002,0.006,-0.008,0.000,0.000,0.000,0.000,0,2,0,3,7,255,960,250,0,0,-89.389,0.742,-31.379
EX0521-092111,16,C19,prep,667,667,0,837844.092,0.686,-0.676,0.195,0.188,0,0,0,0,0,0,0,0,0,0.000,0,0,0.147,0.002,0.100,-0.040,-0.100,0.015,0.995,0.011,0.002,0.000,0.002,0.000,0.000,0.000,0.000,0,2,0,3,7,255,960,250,0,0,-89.389,0.742,-31.379
EX0521-092111,16,C19,prep,667,667,0,837849.092,0.686,-0.676,0.195,0.188,0,0,0,0,0,0,0,0,0,0.000,0,0,0.049,0.006,-0.020,-0.040,0.020,0.014,0.994,0.010,0.006,0.000,0.002,0.000,0.000,0.000,0.000,0,2,0,3,7,255,960,250,0,0,-89.389,0.742,-31.379
EX0521-092111,16,C19,prep,667,667,0,837854.093,0.686,-0.676,0.195,0.188,0,0,0,0,0,0,0,0,0,0.000,0,0,0.092,0.006,-0.080,-0.040,0.020,0.014,0.995,0.012,0.006,0.000,0.006,0.000,0.000,0.000,0.000,0,2,0,3,7,255,960,250,0,0,-89.389,0.742,-31.379
EX0521-092111,16,C19,prep,667,667,0,837859.092,0.686,-0.676,0.195,0.188,0,0,0,0,0,0,0,0,0,0.000,0,0,0.069,0.002,0.040,-0.040,-0.040,0.014,0.994,0.011,0.000,0.002,0.000,0.000,0.000,0.000,0.000,0,2,0,3,7,255,960,250,0,0,-89.389,0.742,-31.379
EX0521-092111,16,C19,prep,667,667,0,837864.091,0.686,-0.676,0.195,0.188,0,0,0,0,0,0,0,0,0,0.000,0,0,0.060,0.003,-0.020,-0.040,-0.040,0.015,0.994,0.012,-0.002,-0.002,0.000,0.000,0.000,0.000,0.000,0,2,0,3,7,255,960,250,0,0,-89.389,0.742,-31.379
EX0521-092111,16,C19,prep,668,668,0,837869.092,0.686,-0.676,0.195,0.188,0,0,0,0,0,0,0,0,0,0.000,0,0,0.060,0.003,-0.020,-0.040,-0.040,0.014,0.994,0.012,-0.002,-0.002,-0.004,0.000,0.000,0.000,0.000,0,2,0,3,7,255,960,250,0,0,-89.389,0.742,-31.379
EX0521-092111,16,C19,prep,668,668,0,837874.091,0.686,-0.676,0.195,0.188,0,0,0,0,0,0,0,0,0,0.000,0,0,0.115,0.003,0.040,-0.040,-0.100,0.015,0.996,0.010,-0.002,-0.002,-0.004,0.000,0.000,0.000,0.000,0,2,0,3,7,255,960,250,0,0,-89.389,0.742,-31.379
EX0521-092111,16,C19,prep,669,669,0,837879.092,0.686,-0.676,0.195,0.188,0,0,0,0,0,0,0,0,0,0.000,0,0,0.069,0.004,0.040,-0.040,-0.040,0.015,0.995,0.011,0.004,0.000,0.006,0.000,0.000,0.000,0.000,0,2,0,3,7,255,960,250,0,0,-89.389,0.742,-31.379
EX0521-092111,16,C19,prep,669,669,0,837884.092,0.686,-0.676,0.195,0.188,0,0,0,0,0,0,0,0,0,0.000,0,0,0.085,0.004,-0.020,0.020,0.080,0.014,0.994,0.012,0.004,0.000,0.006,0.000,0.000,0.000,0.000,0,2,0,3,7,255,960,250,0,0,-89.389,0.742,-31.379
EX0521-092111,16,C19,prep,696,696,0,837889.092,0.686,-0.676,0.195,0.188,0,0,0,0,0,0,0,0,0,0.000,0,0,0.035,0.000,-0.020,0.020,0.020,0.014,0.994,0.011,0.000,0.000,0.000,0.000,0.000,0.000,0.000,0,2,0,3,7,255,960,250,0,0,-89.389,0.742,-31.379
EX0521-092111,16,C19,prep,696,696,0,837894.091,0.686,-0.676,0.195,0.188,0,0,0,0,0,0,0,0,0,0.000,0,0,0.060,0.006,0.040,-0.040,0.020,0.013,0.994,0.012,-0.006,-0.002,-0.004,0.000,0.000,0.000,0.000,0,2,0,3,7,255,960,250,0,0,-89.389,0.742,-31.379
EX0521-092111,16,C19,prep,696,696,0,837899.092,0.686,-0.676,0.195,0.188,0,0,0,0,0,0,0,0,0,0.000,0,0,0.092,0.002,-0.080,-0.040,0.020,0.014,0.995,0.011,0.000,0.002,-0.004,0.000,0.000,0.000,0.000,0,2,0,3,7,255,960,250,0,0,-89.389,0.742,-31.379
EX0521-092111,16,C19,prep,696,696,0,837904.091,0.686,-0.676,0.195,0.188,0,0,0,0,0,0,0,0,0,0.000,0,0,0.115,0.002,0.040,-0.100,-0.040,0.014,0.994,0.011,0.000,0.002,0.000,0.000,0.000,0.000,0.000,0,2,0,3,7,255,960,250,0,0,-89.389,0.742,-31.379
EX0521-092111,16,C19,prep,697,697,0,837909.092,0.686,-0.676,0.195,0.188,0,0,0,0,0,0,0,0,0,0.000,0,0,0.069,0.002,0.040,-0.040,-0.040,0.015,0.994,0.012,0.000,0.002,0.000,0.000,0.000,0.000,0.000,0,2,0,3,7,255,960,250,0,0,-89.389,0.742,-31.379
EX0521-092111,16,C19,prep,697,697,0,837914.091,0.686,-0.676,0.195,0.188,0,0,0,0,0,0,0,0,0,0.000,0,0,0.110,0.004,-0.020,-0.100,-0.040,0.015,0.994,0.012,0.000,-0.004,0.000,0.000,0.000,0.000,0.000,0,2,0,3,7,255,960,250,0,0,-89.389,0.742,-31.379
EX0521-092111,16,C19,prep,724,724,0,837919.092,0.686,-0.676,0.195,0.188,0,0,0,0,0,0,0,0,0,0.000,0,0,0.060,0.004,-0.020,-0.040,-0.040,0.015,0.996,0.011,0.000,-0.004,0.000,0.000,0.000,0.000,0.000,0,2,0,3,7,255,960,250,0,0,-89.389,0.742,-31.379
EX0521-092111,16,C19,prep,724,724,0,837924.092,0.686,-0.676,0.195,0.188,0,0,0,0,0,0,0,0,0,0.000,0,0,0.060,0.004,-0.020,-0.040,-0.040,0.014,0.995,0.010,0.004,0.000,0.010,0.000,0.000,0.000,0.000,0,2,0,3,7,255,960,250,0,0,-89.389,0.742,-31.379
EX0521-092111,16,C19,prep,761,761,0,837929.092,0.686,-0.676,0.195,0.188,0,0,0,0,0,0,0,0,0,0.000,0,0,0.060,0.004,-0.020,-0.040,-0.040,0.014,0.994,0.011,0.004,0.002,0.010,0.000,0.000,0.000,0.000,0,2,0,3,7,255,960,250,0,0,-89.389,0.742,-31.379
EX0521-092111,16,C19,prep,761,761,0,837934.092,0.686,-0.676,0.195,0.188,0,0,0,0,0,0,0,0,0,0.000,0,0,0.130,0.008,-0.080,-0.100,0.020,0.014,0.994,0.011,0.000,0.008,-0.004,0.000,0.000,0.000,0.000,0,2,0,3,7,255,960,250,0,0,-89.389,0.742,-31.379
EX0521-092111,16,C19,prep,761,761,0,837939.091,0.686,-0.676,0.195,0.188,0,0,0,0,0,0,0,0,0,0.000,0,0,0.069,0.002,0.040,-0.040,-0.040,0.014,0.994,0.011,0.000,0.002,-0.004,0.000,0.000,0.000,0.000,0,2,0,3,7,255,960,250,0,0,-89.389,0.742,-31.379
EX0521-092111,16,C19,prep,761,761,0,837944.092,0.686,-0.676,0.195,0.188,0,0,0,0,0,0,0,0,0,0.000,0,0,0.060,0.008,-0.020,-0.040,-0.040,0.014,0.994,0.010,0.000,0.008,0.000,0.000,0.000,0.000,0.000,0,2,0,3,7,255,960,250,0,0,-89.389,0.742,-31.379
EX0521-092111,16,C19,prep,761,761,0,837949.091,0.686,-0.676,0.195,0.188,0,0,0,0,0,0,0,0,0,0.000,0,0,0.060,0.002,-0.020,-0.040,-0.040,0.015,0.995,0.012,0.000,0.002,0.000,0.000,0.000,0.000,0.000,0,2,0,3,7,255,960,250,0,0,-89.389,0.742,-31.379
EX0521-092111,16,C19,prep,761,761,0,837954.093,0.686,-0.676,0.195,0.188,0,0,0,0,0,0,0,0,0,0.000,0,0,0.110,0.002,-0.020,-0.100,-0.040,0.014,0.994,0.011,0.000,0.002,0.000,0.000,0.000,0.000,0.000,0,2,0,3,7,255,960,250,0,0,-89.390,0.742,-31.379
EX0521-092111,16,C19,prep,766,766,0,837959.092,0.686,-0.676,0.195,0.188,0,0,0,0,0,0,0,0,0,0.000,0,0,0.060,0.002,-0.020,-0.040,-0.040,0.014,0.994,0.011,0.000,0.002,-0.004,0.000,0.000,0.000,0.000,0,2,0,3,7,255,960,250,0,0,-89.390,0.742,-31.379
EX0521-092111,16,C19,prep,766,766,0,837964.093,0.686,-0.676,0.195,0.188,0,0,0,0,0,0,0,0,0,0.000,0,0,0.092,0.002,-0.080,-0.040,0.020,0.015,0.994,0.011,0.000,0.002,-0.004,0.000,0.000,0.000,0.000,0,2,0,3,7,255,960,250,0,0,-89.390,0.742,-31.379
EX0521-092111,16,C19,prep,766,766,0,837969.091,0.686,-0.676,0.195,0.188,0,0,0,0,0,0,0,0,0,0.000,0,0,0.060,0.006,-0.020,-0.040,-0.040,0.015,0.995,0.011,0.006,0.002,-0.004,0.000,0.000,0.000,0.000,0,2,0,3,7,255,960,250,0,0,-89.390,0.742,-31.379
EX0521-092111,16,C19,prep,766,766,0,837974.092,0.686,-0.676,0.195,0.188,0,0,0,0,0,0,0,0,0,0.000,0,0,0.060,0.006,0.040,-0.040,0.020,0.014,0.994,0.011,0.006,0.002,0.000,0.000,0.000,0.000,0.000,0,2,0,3,7,255,960,250,0,0,-89.390,0.742,-31.379
EX0521-092111,16,C19,prep,766,766,0,837979.091,0.686,-0.676,0.195,0.188,0,0,0,0,0,0,0,0,0,0.000,0,0,0.049,0.003,-0.020,0.020,-0.040,0.015,0.994,0.012,0.002,0.002,0.000,0.000,0.000,0.000,0.000,0,2,0,3,7,255,960,250,0,0,-89.390,0.742,-31.379
EX0521-092111,16,C19,prep,766,766,0,837984.092,0.686,-0.676,0.195,0.188,0,0,0,0,0,0,0,0,0,0.000,0,0,0.049,0.002,-0.020,0.020,-0.040,0.015,0.993,0.011,0.002,0.000,-0.004,0.000,0.000,0.000,0.000,0,2,0,3,7,255,960,250,0,0,-89.390,0.742,-31.379
EX0521-092111,16,C19,prep,795,795,0,837989.091,0.686,-0.676,0.195,0.188,0,0,0,0,0,0,0,0,0,0.000,0,0,0.049,0.006,-0.020,0.020,-0.040,0.015,0.995,0.011,0.006,0.000,-0.004,0.000,0.000,0.000,0.000,0,2,0,3,7,255,960,250,0,0,-89.390,0.742,-31.379
EX0521-092111,16,C19,prep,795,795,0,837994.092,0.686,-0.676,0.195,0.188,0,0,0,0,0,0,0,0,0,0.000,0,0,0.060,0.006,0.040,-0.040,0.020,0.014,0.993,0.012,0.006,0.000,-0.008,0.000,0.000,0.000,0.000,0,2,0,3,7,255,960,250,0,0,-89.390,0.742,-31.379
EX0521-092111,16,C19,prep,799,799,0,837999.091,0.686,-0.676,0.195,0.188,0,0,0,0,0,0,0,0,0,0.000,0,0,0.060,0.006,-0.020,-0.040,-0.040,0.015,0.995,0.011,0.006,0.002,0.006,0.000,0.000,0.000,0.000,0,2,0,3,7,255,960,250,0,0,-89.390,0.742,-31.379
EX0521-092111,16,C19,prep,799,799,0,838004.092,0.686,-0.676,0.195,0.188,0,0,0,0,0,0,0,0,0,0.000,0,0,0.115,0.003,0.100,-0.040,-0.040,0.014,0.994,0.011,-0.002,0.002,0.000,0.000,0.000,0.000,0.000,0,2,0,3,7,255,960,250,0,0,-89.390,0.742,-31.379
EX0521-092111,16,C19,prep,799,799,0,838009.092,0.686,-0.676,0.195,0.188,0,0,0,0,0,0,0,0,0,0.000,0,0,0.060,0.003,-0.020,-0.040,-0.040,0.014,0.995,0.012,-0.002,0.002,0.006,0.000,0.000,0.000,0.000,0,2,0,3,7,255,960,250,0,0,-89.390,0.742,-31.379
EX0521-092111,16,C19,prep,799,799,0,838014.092,0.686,-0.676,0.195,0.188,0,0,0,0,0,0,0,0,0,0.000,0,0,0.098,0.003,-0.080,-0.040,-0.040,0.015,0.994,0.011,-0.002,-0.002,0.000,0.000,0.000,0.000,0.000,0,2,0,3,7,255,960,250,0,0,-89.390,0.742,-31.379
EX0521-092111,16,C19,prep,814,814,0,838019.092,0.686,-0.676,0.195,0.188,0,0,0,0,0,0,0,0,0,0.000,0,0,0.069,0.004,0.040,-0.040,-0.040,0.013,0.994,0.011,-0.004,-0.002,0.000,0.000,0.000,0.000,0.000,0,2,0,3,7,255,960,250,0,0,-89.390,0.742,-31.379
EX0521-092111,16,C19,prep,814,814,0,838024.091,0.686,-0.676,0.195,0.188,0,0,0,0,0,0,0,0,0,0.000,0,0,0.115,0.003,0.100,-0.040,-0.040,0.015,0.994,0.011,0.002,0.002,0.000,0.000,0.000,0.000,0.000,0,2,0,3,7,255,960,250,0,0,-89.390,0.742,-31.379
EX0521-092111,16,C19,prep,814,814,0,838029.092,0.686,-0.676,0.195,0.188,0,0,0,0,0,0,0,0,0,0.000,0,0,0.092,0.006,-0.080,0.020,-0.040,0.014,0.994,0.011,-0.002,0.006,0.000,0.000,0.000,0.000,0.000,0,2,0,3,7,255,960,250,0,0,-89.390,0.742,-31.379
EX0521-092111,16,C19,prep,814,814,0,838034.091,0.686,-0.676,0.195,0.188,0,0,0,0,0,0,0,0,0,0.000,0,0,0.069,0.003,0.040,-0.040,-0.040,0.014,0.994,0.012,-0.002,0.002,0.000,0.000,0.000,0.000,0.000,0,2,0,3,7,255,960,250,0,0,-89.390,0.742,-31.379
EX0521-092111,16,C19,prep,846,846,0,838039.092,0.686,-0.676,0.195,0.188,0,0,0,0,0,0,0,0,0,0.000,0,0,0.060,0.008,-0.020,-0.040,-0.040,0.014,0.994,0.010,-0.002,0.008,0.000,0.000,0.000,0.000,0.000,0,2,0,3,7,255,960,250,0,0,-89.390,0.742,-31.379
EX0521-092111,16,C19,prep,846,846,0,838044.092,0.686,-0.676,0.195,0.188,0,0,0,0,0,0,0,0,0,0.000,0,0,0.104,0.000,-0.020,-0.100,0.020,0.016,0.994,0.012,0.000,0.000,0.000,0.000,0.000,0.000,0.000,0,2,0,3,7,255,960,250,0,0,-89.390,0.742,-31.379
EX0521-092111,16,C19,prep,846,846,0,838049.092,0.686,-0.676,0.195,0.188,0,0,0,0,0,0,0,0,0,0.000,0,0,0.049,0.010,-0.020,-0.040,0.020,0.015,0.994,0.010,0.008,0.006,0.000,0.000,0.000,0.000,0.000,0,2,0,3,7,255,960,250,0,0,-89.390,0.742,-31.379
EX0521-092111,16,C19,prep,846,846,0,838054.093,0.686,-0.676,0.195,0.188,0,0,0,0,0,0,0,0,0,0.000,0,0,0.060,0.010,-0.020,-0.040,-0.040,0.014,0.994,0.011,0.008,0.006,0.000,0.000,0.000,0.000,0.000,0,2,0,3,7,255,960,250,0,0,-89.390,0.742,-31.379
EX0521-092111,16,C19,prep,846,846,0,838059.092,0.686,-0.676,0.195,0.188,0,0,0,0,0,0,0,0,0,0.000,0,0,0.110,0.010,-0.020,-0.100,-0.040,0.015,0.993,0.010,0.008,0.006,-0.004,0.000,0.000,0.000,0.000,0,2,0,3,7,255,960,250,0,0,-89.390,0.742,-31.379
EX0521-092111,16,C19,prep,846,846,0,838064.092,0.686,-0.676,0.195,0.188,0,0,0,0,0,0,0,0,0,0.000,0,0,0.060,0.006,-0.020,-0.040,-0.040,0.015,0.995,0.012,0.002,0.006,0.000,0.000,0.000,0.000,0.000,0,2,0,3,7,255,960,250,0,0,-89.390,0.742,-31.379
EX0521-092111,16,C19,prep,866,866,0,838069.092,0.686,-0.676,0.195,0.188,0,0,0,0,0,0,0,0,0,0.000,0,0,0.069,0.002,0.040,-0.040,-0.040,0.014,0.994,0.012,0.002,0.000,-0.004,0.000,0.000,0.000,0.000,0,2,0,3,7,255,960,250,0,0,-89.390,0.742,-31.379
EX0521-092111,16,C19,prep,866,866,0,838074.093,0.686,-0.676,0.195,0.188,0,0,0,0,0,0,0,0,0,0.000,0,0,0.115,0.004,0.040,-0.100,-0.040,0.013,0.995,0.010,-0.004,0.000,0.006,0.000,0.000,0.000,0.000,0,2,0,3,7,255,960,250,0,0,-89.390,0.742,-31.379
EX0521-092111,16,C19,prep,866,866,0,838079.092,0.686,-0.676,0.195,0.188,0,0,0,0,0,0,0,0,0,0.000,0,0,0.110,0.009,-0.020,-0.040,-0.100,0.014,0.994,0.010,-0.004,0.008,0.000,0.000,0.000,0.000,0.000,0,2,0,3,7,255,960,250,0,0,-89.390,0.742,-31.379
EX0521-092111,16,C19,prep,866,866,0,838084.092,0.686,-0.676,0.195,0.188,0,0,0,0,0,0,0,0,0,0.000,0,0,0.069,0.009,0.040,-0.040,-0.040,0.014,0.993,0.010,0.004,0.008,0.000,0.000,0.000,0.000,0.000,0,2,0,3,7,255,960,250,0,0,-89.390,0.742,-31.379
EX0521-092111,16,C19,prep,878,878,0,838089.092,0.686,-0.676,0.195,0.188,0,0,0,0,0,0,0,0,0,0.000,0,0,0.069,0.009,0.040,-0.040,-0.040,0.015,0.994,0.011,0.004,0.008,0.000,0.000,0.000,0.000,0.000,0,2,0,3,7,255,960,250,0,0,-89.390,0.742,-31.379
EX0521-092111,16,C19,prep,878,878,0,838094.092,0.686,-0.676,0.195,0.188,0,0,0,0,0,0,0,0,0,0.000,0,0,0.060,0.004,-0.020,-0.040,-0.040,0.015,0.994,0.012,0.004,0.002,-0.004,0.000,0.000,0.000,0.000,0,2,0,3,7,255,960,250,0,0,-89.390,0.742,-31.379
EX0521-092111,16,C19,prep,910,910,0,838099.092,0.686,-0.676,0.195,0.188,0,0,0,0,0,0,0,0,0,0.000,0,0,0.069,0.006,0.040,-0.040,-0.040,0.015,0.994,0.012,0.000,-0.006,0.000,0.000,0.000,0.000,0.000,0,2,0,3,7,255,960,250,0,0,-89.390,0.742,-31.379
EX0521-092111,16,C19,prep,910,910,0,838104.092,0.686,-0.676,0.195,0.188,0,0,0,0,0,0,0,0,0,0.000,0,0,0.060,0.006,-0.020,-0.040,-0.040,0.015,0.994,0.012,0.000,-0.006,0.000,0.000,0.000,0.000,0.000,0,2,0,3,7,255,960,250,0,0,-89.390,0.742,-31.379
EX0521-092111,16,C19,prep,910,910,0,838109.091,0.686,-0.676,0.195,0.188,0,0,0,0,0,0,0,0,0,0.000,0,0,0.069,0.006,0.040,-0.040,-0.040,0.015,0.995,0.012,0.000,-0.006,0.000,0.000,0.000,0.000,0.000,0,2,0,3,7,255,960,250,0,0,-89.391,0.742,-31.379
EX0521-092111,16,C19,prep,910,910,0,838114.092,0.686,-0.676,0.195,0.188,0,0,0,0,0,0,0,0,0,0.000,0,0,0.049,0.006,-0.020,-0.040,0.020,0.015,0.994,0.011,0.000,-0.006,0.000,0.000,0.000,0.000,0.000,0,2,0,3,7,255,960,250,0,0,-89.391,0.742,-31.379
EX0521-092111,16,C19,prep,910,910,0,838119.091,0.686,-0.676,0.195,0.188,0,0,0,0,0,0,0,0,0,0.000,0,0,0.060,0.004,-0.020,-0.040,-0.040,0.014,0.995,0.012,-0.002,-0.004,0.006,0.000,0.000,0.000,0.000,0,2,0,3,7,255,960,250,0,0,-89.391,0.742,-31.379
EX0521-092111,16,C19,prep,910,910,0,838124.092,0.686,-0.676,0.195,0.188,0,0,0,0,0,0,0,0,0,0.000,0,0,0.049,0.002,-0.020,0.020,-0.040,0.014,0.995,0.010,0.000,-0.002,0.006,0.000,0.000,0.000,0.000,0,2,0,3,7,255,960,250,0,0,-89.391,0.742,-31.379
EX0521-092111,16,C19,prep,942,942,0,838129.091,0.686,-0.676,0.195,0.188,0,0,0,0,0,0,0,0,0,0.000,0,0,0.060,0.008,-0.020,-0.040,-0.040,0.014,0.993,0.010,0.000,0.008,0.006,0.000,0.000,0.000,0.000,0,2,0,3,7,255,960,250,0,0,-89.391,0.742,-31.379
EX0521-092111,16,C19,prep,942,942,0,838134.092,0.686,-0.676,0.195,0.188,0,0,0,0,0,0,0,0,0,0.000,0,0,0.115,0.009,0.040,-0.100,-0.040,0.015,0.995,0.011,0.004,0.008,0.006,0.000,0.000,0.000,0.000,0,2,0,3,7,255,960,250,0,0,-89.391,0.742,-31.379
EX0521-092111,16,C19,prep,967,967,0,838139.091,0.686,-0.676,0.195,0.188,0,0,0,0,0,0,0,0,0,0.000,0,0,0.069,0.006,0.040,-0.040,-0.040,0.015,0.994,0.012,0.004,-0.004,-0.004,0.000,0.000,0.000,0.000,0,2,0,3,7,255,960,250,0,0,-89.391,0.742,-31.379
EX0521-092111,16,C19,prep,967,967,0,838144.092,0.686,-0.676,0.195,0.188,0,0,0,0,0,0,0,0,0,0.000,0,0,0.098,0.012,-0.080,-0.040,-0.040,0.015,0.993,0.012,0.002,-0.012,-0.004,0.000,0.000,0.000,0.000,0,2,0,3,7,255,960,250,0,0,-89.391,0.742,-31.379
EX0521-092111,16,C19,prep,968,968,0,838149.091,0.686,-0.676,0.195,0.188,0,0,0,0,0,0,0,0,0,0.000,0,0,0.069,0.012,0.040,-0.040,-0.040,0.015,0.994,0.012,0.002,-0.012,-0.004,0.000,0.000,0.000,0.000,0,2,0,3,7,255,960,250,0,0,-89.391,0.742,-31.379
EX0521-092111,16,C19,prep,968,968,0,838154.093,0.686,-0.676,0.195,0.188,0,0,0,0,0,0,0,0,0,0.000,0,0,0.049,0.012,-0.020,0.020,-0.040,0.015,0.995,0.011,0.002,-0.012,-0.004,0.000,0.000,0.000,0.000,0,2,0,3,7,255,960,250,0,0,-89.391,0.742,-31.379
EX0521-092111,16,C19,prep,969,969,0,838159.092,0.686,-0.676,0.195,0.188,0,0,0,0,0,0,0,0,0,0.000,0,0,0.110,0.003,-0.020,-0.100,-0.040,0.015,0.994,0.011,0.002,-0.002,-0.004,0.000,0.000,0.000,0.000,0,2,0,3,7,255,960,250,0,0,-89.391,0.742,-31.379
EX0521-092111,16,C19,prep,969,969,0,838164.093,0.686,-0.676,0.195,0.188,0,0,0,0,0,0,0,0,0,0.000,0,0,0.069,0.002,0.040,-0.040,-0.040,0.014,0.993,0.012,0.002,0.000,-0.004,0.000,0.000,0.000,0.000,0,2,0,3,7,255,960,250,0,0,-89.391,0.742,-31.379
EX0521-092111,16,C19,prep,970,970,0,838169.091,0.686,-0.676,0.195,0.188,0,0,0,0,0,0,0,0,0,0.000,0,0,0.060,0.000,-0.020,-0.040,-0.040,0.015,0.994,0.012,0.000,0.000,-0.004,0.000,0.000,0.000,0.000,0,2,0,3,7,255,960,250,0,0,-89.391,0.742,-31.379
EX0521-092111,16,C19,prep,970,970,0,838174.092,0.686,-0.676,0.195,0.188,0,0,0,0,0,0,0,0,0,0.000,0,0,0.110,0.006,-0.020,-0.100,-0.040,0.014,0.995,0.011,-0.006,0.000,-0.004,0.000,0.000,0.000,0.000,0,2,0,3,7,255,960,250,0,0,-89.391,0.742,-31.379
EX0521-092111,16,C19,prep,970,970,0,838179.091,0.686,-0.676,0.195,0.188,0,0,0,0,0,0,0,0,0,0.000,0,0,0.069,0.002,0.040,-0.040,-0.040,0.015,0.993,0.011,0.000,-0.002,-0.004,0.000,0.000,0.000,0.000,0,2,0,3,7,255,960,250,0,0,-89.391,0.742,-31.379
EX0521-092111,16,C19,prep,970,970,0,838184.092,0.686,-0.676,0.195,0.188,0,0,0,0,0,0,0,0,0,0.000,0,0,0.060,0.003,-0.020,-0.040,-0.040,0.015,0.993,0.011,0.002,0.002,-0.008,0.000,0.000,0.000,0.000,0,2,0,3,7,255,960,250,0,0,-89.391,0.742,-31.379
EX0521-092111,16,C19,prep,990,990,0,838189.092,0.686,-0.676,0.195,0.188,0,0,0,0,0,0,0,0,0,0.000,0,0,0.049,0.002,-0.020,-0.040,0.020,0.014,0.993,0.012,0.002,0.000,-0.008,0.000,0.000,0.000,0.000,0,2,0,3,7,255,960,250,0,0,-89.391,0.742,-31.379
EX0521-092111,16,C19,prep,990,990,0,838194.091,0.686,-0.676,0.195,0.188,0,0,0,0,0,0,0,0,0,0.000,0,0,0.069,0.003,0.040,-0.040,-0.040,0.014,0.994,0.011,-0.002,0.002,-0.008,0.000,0.000,0.000,0.000,0,2,0,3,7,255,960,250,0,0,-89.391,0.742,-31.379
EX0521-092111,16,C19,prep,990,990,0,838199.092,0.686,-0.676,0.195,0.188,0,0,0,0,0,0,0,0,0,0.000,0,0,0.069,0.006,0.040,-0.040,-0.040,0.014,0.995,0.011,-0.006,0.002,0.002,0.000,0.000,0.000,0.000,0,2,0,3,7,255,960,250,0,0,-89.391,0.742,-31.379
EX0521-092111,16,C19,prep,990,990,0,838204.091,0.686,-0.676,0.195,0.188,0,0,0,0,0,0,0,0,0,0.000,0,0,0.110,0.003,-0.020,-0.100,-0.040,0.015,0.994,0.011,-0.002,0.002,0.002,0.000,0.000,0.000,0.000,0,2,0,3,7,255,960,250,0,0,-89.391,0.742,-31.379
EX0521-092111,16,C19,prep,1006,1006,0,838209.092,0.686,-0.676,0.195,0.188,0,0,0,0,0,0,0,0,0,0.000,0,0,0.104,0.004,-0.020,-0.100,0.020,0.014,0.994,0.012,-0.004,-0.002,0.002,0.000,0.000,0.000,0.000,0,2,0,3,7,255,960,250,0,0,-89.391,0.742,-31.379
EX0521-092111,16,C19,prep,1006,1006,0,838214.091,0.686,-0.676,0.195,0.188,0,0,0,0,0,0,0,0,0,0.000,0,0,0.049,0.006,-0.020,-0.040,0.020,0.014,0.993,0.012,-0.004,-0.004,-0.004,0.000,0.000,0.000,0.000,0,2,0,3,7,255,960,250,0,0,-89.391,0.742,-31.379
EX0521-092111,16,C19,prep,1027,1027,0,838219.092,0.686,-0.676,0.195,0.188,0,0,0,0,0,0,0,0,0,0.000,0,0,0.060,0.007,-0.020,-0.040,-0.040,0.014,0.995,0.012,-0.006,-0.004,-0.004,0.000,0.000,0.000,0.000,0,2,0,3,7,255,960,250,0,0,-89.391,0.742,-31.379
EX0521-092111,16,C19,prep,1027,1027,0,838224.091,0.686,-0.676,0.195,0.188,0,0,0,0,0,0,0,0,0,0.000,0,0,0.060,0.007,-0.020,-0.040,-0.040,0.014,0.994,0.011,-0.006,-0.004,-0.004,0.000,0.000,0.000,0.000,0,2,0,3,7,255,960,250,0,0,-89.391,0.742,-31.379
EX0521-092111,16,C19,prep,1060,1060,0,838229.092,0.686,-0.676,0.195,0.188,0,0,0,0,0,0,0,0,0,0.000,0,0,0.069,0.003,0.040,-0.040,-0.040,0.014,0.994,0.011,-0.002,0.002,0.002,0.000,0.000,0.000,0.000,0,2,0,3,7,255,960,250,0,0,-89.391,0.742,-31.379
EX0521-092111,16,C19,prep,1060,1060,0,838234.091,0.686,-0.676,0.195,0.188,0,0,0,0,0,0,0,0,0,0.000,0,0,0.060,0.003,-0.020,-0.040,-0.040,0.015,0.995,0.012,-0.002,0.002,0.002,0.000,0.000,0.000,0.000,0,2,0,3,7,255,960,250,0,0,-89.391,0.742,-31.379
EX0521-092111,16,C19,prep,1060,1060,0,838239.092,0.686,-0.676,0.195,0.188,0,0,0,0,0,0,0,0,0,0.000,0,0,0.060,0.002,-0.020,-0.040,-0.040,0.014,0.994,0.012,-0.002,0.000,0.002,0.000,0.000,0.000,0.000,0,2,0,3,7,255,960,250,0,0,-89.391,0.742,-31.379
EX0521-092111,16,C19,prep,1060,1060,0,838244.092,0.686,-0.676,0.195,0.188,0,0,0,0,0,0,0,0,0,0.000,0,0,0.110,0.008,0.100,-0.040,0.020,0.013,0.994,0.012,-0.008,0.000,0.000,0.000,0.000,0.000,0.000,0,2,0,3,7,255,960,250,0,0,-89.391,0.742,-31.379
EX0521-092111,16,C19,prep,1060,1060,0,838249.092,0.686,-0.676,0.195,0.188,0,0,0,0,0,0,0,0,0,0.000,0,0,0.060,0.010,-0.020,-0.040,-0.040,0.013,0.994,0.011,-0.010,0.002,0.000,0.000,0.000,0.000,0.000,0,2,0,3,7,255,960,250,0,0,-89.391,0.742,-31.379
EX0521-092111,16,C19,prep,1060,1060,0,838254.093,0.686,-0.676,0.195,0.188,0,0,0,0,0,0,0,0,0,0.000,0,0,0.060,0.010,-0.020,-0.040,-0.040,0.015,0.994,0.011,-0.010,0.002,0.000,0.000,0.000,0.000,0.000,0,2,0,3,7,255,960,250,0,0,-89.391,0.743,-31.379
EX0521-092111,16,C19,prep,1062,1062,0,838259.092,0.686,-0.676,0.195,0.188,0,0,0,0,0,0,0,0,0,0.000,0,0,0.060,0.006,-0.020,-0.040,-0.040,0.014,0.994,0.012,-0.006,-0.002,0.000,0.000,0.000,0.000,0.000,0,2,0,3,7,255,960,250,0,0,-89.391,0.743,-31.379
EX0521-092111,16,C19,prep,1062,1062,0,838264.091,0.686,-0.676,0.195,0.188,0,0,0,0,0,0,0,0,0,0.000,0,0,0.049,0.006,-0.020,-0.040,0.020,0.015,0.994,0.012,0.000,-0.006,0.002,0.000,0.000,0.000,0.000,0,2,0,3,7,255,960,250,0,0,-89.391,0.743,-31.379
EX0521-092111,16,C19,prep,1062,1062,0,838269.092,0.686,-0.676,0.195,0.188,0,0,0,0,0,0,0,0,0,0.000,0,0,0.098,0.006,-0.080,-0.040,-0.040,0.014,0.994,0.011,0.000,-0.006,0.002,0.000,0.000,0.000,0.000,0,2,0,3,7,255,960,250,0,0,-89.392,0.743,-31.379
EX0521-092111,16,C19,prep,1062,1062,0,838274.091,0.686,-0.676,0.195,0.188,0,0,0,0,0,0,0,0,0,0.000,0,0,0.060,0.002,-0.020,-0.040,-0.040,0.013,0.994,0.010,0.000,0.002,0.000,0.000,0.000,0.000,0.000,0,2,0,3,7,255,960,250,0,0,-89.392,0.743,-31.379
EX0521-092111,16,C19,prep,1063,1063,0,838279.092,0.686,-0.676,0.195,0.188,0,0,0,0,0,0,0,0,0,0.000,0,0,0.049,0.003,-0.020,-0.040,0.020,0.014,0.994,0.012,-0.002,0.002,0.000,0.000,0.000,0.000,0.000,0,2,0,3,7,255,960,250,0,0,-89.392,0.743,-31.379
EX0521-092111,16,C19,prep,1063,1063,0,838284.092,0.686,-0.676,0.195,0.188,0,0,0,0,0,0,0,0,0,0.000,0,0,0.049,0.003,-0.020,0.020,-0.040,0.015,0.994,0.011,-0.002,-0.002,-0.004,0.000,0.000,0.000,0.000,0,2,0,3,7,255,960,250,0,0,-89.392,0.743,-31.379
EX0521-092111,16,C19,prep,1099,1099,0,838289.091,0.686,-0.676,0.195,0.188,0,0,0,0,0,0,0,0,0,0.000,0,0,0.060,0.002,-0.020,-0.040,-0.040,0.014,0.995,0.011,0.000,-0.002,0.002,0.000,0.000,0.000,0.000,0,2,0,3,7,255,960,250,0,0,-89.392,0.743,-31.379
EX0521-092111,16,C19,prep,1099,1099,0,838294.092,0.686,-0.676,0.195,0.188,0,0,0,0,0,0,0,0,0,0.000,0,0,0.035,0.002,-0.020,0.020,0.020,0.014,0.994,0.011,0.000,0.002,-0.004,0.000,0.000,0.000,0.000,0,2,0,3,7,255,960,250,0,0,-89.392,0.743,-31.379
EX0521-092111,16,C19,prep,1099,1099,0,838299.092,0.686,-0.676,0.195,0.188,0,0,0,0,0,0,0,0,0,0.000,0,0,0.069,0.002,0.040,-0.040,-0.040,0.015,0.993,0.012,0.000,0.002,-0.004,0.000,0.000,0.000,0.000,0,2,0,3,7,255,960,250,0,0,-89.392,0.743,-31.379
EX0521-092111,16,C19,prep,1099,1099,0,838304.092,0.686,-0.676,0.195,0.188,0,0,0,0,0,0,0,0,0,0.000,0,0,0.060,0.006,-0.020,-0.040,-0.040,0.015,0.994,0.012,0.000,-0.006,-0.004,0.000,0.000,0.000,0.000,0,2,0,3,7,255,960,250,0,0,-89.392,0.743,-31.379
EX0521-092111,16,C19,prep,1100,1100,0,838309.091,0.686,-0.676,0.195,0.188,0,0,0,0,0,0,0,0,0,0.000,0,0,0.069,0.006,0.040,-0.040,-0.040,0.015,0.994,0.011,0.000,-0.006,-0.004,0.000,0.000,0.000,0.000,0,2,0,3,7,255,960,250,0,0,-89.392,0.743,-31.379
EX0521-092111,16,C19,prep,1100,1100,0,838314.092,0.686,-0.676,0.195,0.188,0,0,0,0,0,0,0,0,0,0.000,0,0,0.049,0.006,-0.020,0.020,-0.040,0.015,0.996,0.012,0.000,-0.006,-0.004,0.000,0.000,0.000,0.000,0,2,0,3,7,255,960,250,0,0,-89.392,0.743,-31.379
EX0521-092111,16,C19,prep,1131,1131,0,838319.091,0.686,-0.676,0.195,0.188,0,0,0,0,0,0,0,0,0,0.000,0,0,0.069,0.004,0.040,-0.040,-0.040,0.014,0.994,0.011,0.000,-0.004,-0.004,0.000,0.000,0.000,0.000,0,2,0,3,7,255,960,250,0,0,-89.392,0.743,-31.379
EX0521-092111,16,C19,prep,1131,1131,0,838324.092,0.686,-0.676,0.195,0.188,0,0,0,0,0,0,0,0,0,0.000,0,0,0.110,0.006,-0.020,-0.100,-0.040,0.014,0.994,0.013,-0.002,-0.006,-0.004,0.000,0.000,0.000,0.000,0,2,0,3,7,255,960,250,0,0,-89.392,0.743,-31.379
EX0521-092111,16,C19,prep,1131,1131,0,838329.091,0.686,-0.676,0.195,0.188,0,0,0,0,0,0,0,0,0,0.000,0,0,0.069,0.010,0.040,-0.040,-0.040,0.013,0.994,0.011,-0.008,0.006,-0.004,0.000,0.000,0.000,0.000,0,2,0,3,7,255,960,250,0,0,-89.392,0.743,-31.379
EX0521-092111,16,C19,prep,1131,1131,0,838334.092,0.686,-0.676,0.195,0.188,0,0,0,0,0,0,0,0,0,0.000,0,0,0.098,0.012,-0.080,-0.040,-0.040,0.013,0.994,0.012,-0.012,0.002,0.000,0.000,0.000,0.000,0.000,0,2,0,3,7,255,960,250,0,0,-89.392,0.743,-31.379
EX0521-092111,16,C19,prep,1165,1165,0,838339.091,0.686,-0.676,0.195,0.188,0,0,0,0,0,0,0,0,0,0.000,0,0,0.060,0.008,-0.020,-0.040,-0.040,0.015,0.994,0.011,-0.008,0.002,0.000,0.000,0.000,0.000,0.000,0,2,0,3,7,255,960,250,0,0,-89.392,0.743,-31.379
EX0521-092111,16,C19,prep,1165,1165,0,838344.092,0.686,-0.676,0.195,0.188,0,0,0,0,0,0,0,0,0,0.000,0,0,0.060,0.004,-0.020,-0.040,-0.040,0.014,0.994,0.010,0.004,0.002,0.002,0.000,0.000,0.000,0.000,0,2,0,3,7,255,960,250,0,0,-89.392,0.743,-31.379
EX0521-092111,16,C19,prep,1165,1165,0,838349.091,0.686,-0.676,0.195,0.188,0,0,0,0,0,0,0,0,0,0.000,0,0,0.069,0.004,0.040,-0.040,-0.040,0.016,0.995,0.011,0.004,-0.002,0.002,0.000,0.000,0.000,0.000,0,2,0,3,7,255,960,250,0,0,-89.392,0.743,-31.379
EX0521-092111,16,C19,prep,1165,1165,0,838354.093,0.686,-0.676,0.195,0.188,0,0,0,0,0,0,0,0,0,0.000,0,0,0.049,0.004,-0.020,0.020,-0.040,0.013,0.993,0.012,0.004,0.002,0.002,0.000,0.000,0.000,0.000,0,2,0,3,7,255,960,250,0,0,-89.392,0.743,-31.379
EX0521-092111,16,C19,prep,1165,1165,0,838359.092,0.686,-0.676,0.195,0.188,0,0,0,0,0,0,0,0,0,0.000,0,0,0.069,0.004,0.040,-0.040,-0.040,0.014,0.994,0.011,-0.004,0.002,-0.004,0.000,0.000,0.000,0.000,0,2,0,3,7,255,960,250,0,0,-89.392,0.743,-31.379
EX0521-092111,16,C19,prep,1165,1165,0,838364.093,0.686,-0.676,0.195,0.188,0,0,0,0,0,0,0,0,0,0.000,0,0,0.069,0.012,0.040,-0.040,-0.040,0.013,0.994,0.012,-0.012,0.002,-0.004,0.000,0.000,0.000,0.000,0,2,0,3,7,255,960,250,0,0,-89.392,0.743,-31.379
EX0521-092111,16,C19,prep,1166,1166,0,838369.093,0.686,-0.676,0.195,0.188,0,0,0,0,0,0,0,0,0,0.000,0,0,0.060,0.004,-0.020,-0.040,-0.040,0.014,0.993,0.011,-0.004,0.002,-0.004,0.000,0.000,0.000,0.000,0,2,0,3,7,255,960,250,0,0,-89.392,0.743,-31.379
EX0521-092111,16,C19,prep,1166,1166,0,838374.092,0.686,-0.676,0.195,0.188,0,0,0,0,0,0,0,0,0,0.000,0,0,0.060,0.000,-0.020,-0.040,-0.040,0.015,0.994,0.012,0.000,0.000,0.002,0.000,0.000,0.000,0.000,0,2,0,3,7,255,960,250,0,0,-89.392,0.743,-31.379
EX0521-092111,16,C19,prep,1188,1188,0,838379.092,0.686,-0.676,0.195,0.188,0,0,0,0,0,0,0,0,0,0.000,0,0,0.035,0.000,-0.020,0.020,0.020,0.013,0.994,0.012,0.000,0.000,0.002,0.000,0.000,0.000,0.000,0,2,0,3,7,255,960,250,0,0,-89.392,0.743,-31.379
EX0521-092111,16,C19,prep,1188,1188,0,838384.092,0.686,-0.676,0.195,0.188,0,0,0,0,0,0,0,0,0,0.000,0,0,0.060,0.006,0.040,0.020,-0.040,0.015,0.995,0.012,0.000,-0.006,0.002,0.000,0.000,0.000,0.000,0,2,0,3,7,255,960,250,0,0,-89.392,0.743,-31.379
EX0521-092111,16,C19,prep,1188,1188,0,838389.092,0.686,-0.676,0.195,0.188,0,0,0,0,0,0,0,0,0,0.000,0,0,0.092,0.003,0.040,0.020,0.080,0.014,0.994,0.010,0.002,0.002,0.002,0.000,0.000,0.000,0.000,0,2,0,3,7,255,960,250,0,0,-89.392,0.743,-31.379
EX0521-092111,16,C19,prep,1188,1188,0,838394.092,0.686,-0.676,0.195,0.188,0,0,0,0,0,0,0,0,0,0.000,0,0,0.049,0.011,-0.020,-0.040,0.020,0.014,0.995,0.010,0.004,0.010,0.006,0.000,0.000,0.000,0.000,0,2,0,3,7,255,960,250,0,0,-89.392,0.743,-31.379
EX0521-092111,16,C19,prep,1189,1189,0,838399.092,0.686,-0.676,0.195,0.188,0,0,0,0,0,0,0,0,0,0.000,0,0,0.060,0.011,-0.020,-0.040,-0.040,0.014,0.994,0.011,0.004,0.010,0.002,0.000,0.000,0.000,0.000,0,2,0,3,7,255,960,250,0,0,-89.392,0.743,-31.379
EX0521-092111,16,C19,prep,1189,1189,0,838404.091,0.686,-0.676,0.195,0.188,0,0,0,0,0,0,0,0,0,0.000,0,0,0.115,0.008,0.040,-0.100,-0.040,0.014,0.995,0.011,0.000,0.008,0.006,0.000,0.000,0.000,0.000,0,2,0,3,7,255,960,250,0,0,-89.392,0.743,-31.379
EX0521-092111,16,C19,prep,1200,1200,0,838409.092,0.686,-0.676,0.195,0.188,0,0,0,0,0,0,0,0,0,0.000,0,0,0.110,0.002,-0.020,-0.040,-0.100,0.014,0.994,0.012,-0.002,0.000,-0.004,0.000,0.000,0.000,0.000,0,2,0,3,7,255,960,250,0,0,-89.392,0.743,-31.379
EX0521-092111,16,C19,prep,1200,1200,0,838414.091,0.686,-0.676,0.195,0.188,0,0,0,0,0,0,0,0,0,0.000,0,0,0.060,0.004,-0.020,-0.040,-0.040,0.014,0.994,0.012,-0.004,0.000,0.002,0.000,0.000,0.000,0.000,0,2,0,3,7,255,960,250,0,0,-89.392,0.743,-31.379
EX0521-092111,16,C19,prep,1214,1214,0,838419.092,0.686,-0.676,0.195,0.188,0,0,0,0,0,0,0,0,0,0.000,0,0,0.069,0.009,0.040,-0.040,-0.040,0.014,0.994,0.013,-0.008,-0.004,0.002,0.000,0.000,0.000,0.000,0,2,0,3,7,255,960,250,0,0,-89.392,0.743,-31.379
EX0521-092111,16,C19,prep,1214,1214,0,838424.091,0.686,-0.676,0.195,0.188,0,0,0,0,0,0,0,0,0,0.000,0,0,0.060,0.009,-0.020,-0.040,-0.040,0.015,0.995,0.011,-0.008,-0.004,0.002,0.000,0.000,0.000,0.000,0,2,0,3,7,255,960,250,0,0,-89.393,0.743,-31.379
EX0521-092111,16,C19,prep,1246,1246,0,838429.092,0.686,-0.676,0.195,0.188,0,0,0,0,0,0,0,0,0,0.000,0,0,0.110,0.009,-0.020,-0.100,-0.040,0.014,0.994,0.012,-0.008,-0.004,0.002,0.000,0.000,0.000,0.000,0,2,0,3,7,255,960,250,0,0,-89.393,0.743,-31.379
EX0521-092111,16,C19,prep,1246,1246,0,838434.091,0.686,-0.676,0.195,0.188,0,0,0,0,0,0,0,0,0,0.000,0,0,0.069,0.008,0.040,-0.040,-0.040,0.015,0.994,0.010,0.008,0.000,0.002,0.000,0.000,0.000,0.000,0,2,0,3,7,255,960,250,0,0,-89.393,0.743,-31.379
EX0521-092111,16,C19,prep,1246,1246,0,838439.092,0.686,-0.676,0.195,0.188,0,0,0,0,0,0,0,0,0,0.000,0,0,0.060,0.004,-0.020,-0.040,-0.040,0.015,0.993,0.011,0.004,0.000,-0.004,0.000,0.000,0.000,0.000,0,2,0,3,7,255,960,250,0,0,-89.393,0.743,-31.379
EX0521-092111,16,C19,prep,1246,1246,0,838444.092,0.686,-0.676,0.195,0.188,0,0,0,0,0,0,0,0,0,0.000,0,0,0.060,0.004,-0.020,-0.040,-0.040,0.015,0.994,0.011,0.004,-0.002,-0.004,0.000,0.000,0.000,0.000,0,2,0,3,7,255,960,250,0,0,-89.393,0.743,-31.379
EX0521-092111,16,C19,prep,1246,1246,0,838449.092,0.686,-0.676,0.195,0.188,0,0,0,0,0,0,0,0,0,0.000,0,0,0.060,0.004,-0.020,-0.040,-0.040,0.014,0.994,0.012,0.004,-0.002,-0.004,0.000,0.000,0.000,0.000,0,2,0,3,7,255,960,250,0,0,-89.393,0.743,-31.379
EX0521-092111,16,C19,prep,1246,1246,0,838454.093,0.686,-0.676,0.195,0.188,0,0,0,0,0,0,0,0,0,0.000,0,0,0.060,0.006,-0.020,-0.040,-0.040,0.015,0.993,0.012,0.004,-0.004,-0.004,0.000,0.000,0.000,0.000,0,2,0,3,7,255,960,250,0,0,-89.393,0.743,-31.379
EX0521-092111,16,C19,prep,1278,1278,0,838459.092,0.686,-0.676,0.195,0.188,0,0,0,0,0,0,0,0,0,0.000,0,0,0.060,0.006,-0.020,-0.040,-0.040,0.014,0.994,0.012,-0.004,-0.004,-0.004,0.000,0.000,0.000,0.000,0,2,0,3,7,255,960,250,0,0,-89.393,0.743,-31.379
EX0521-092111,16,C19,prep,1278,1278,0,838464.091,0.686,-0.676,0.195,0.188,0,0,0,0,0,0,0,0,0,0.000,0,0,0.060,0.006,-0.020,-0.040,-0.040,0.014,0.994,0.011,-0.004,-0.004,-0.004,0.000,0.000,0.000,0.000,0,2,0,3,7,255,960,250,0,0,-89.393,0.743,-31.379
EX0521-092111,16,C19,prep,1278,1278,0,838469.092,0.686,-0.676,0.195,0.188,0,0,0,0,0,0,0,0,0,0.000,0,0,0.060,0.004,-0.020,-0.040,-0.040,0.013,0.994,0.012,-0.004,-0.002,-0.004,0.000,0.000,0.000,0.000,0,2,0,3,7,255,960,250,0,0,-89.393,0.743,-31.379
EX0521-092111,16,C19,prep,1278,1278,0,838474.091,0.686,-0.676,0.195,0.188,0,0,0,0,0,0,0,0,0,0.000,0,0,0.060,0.006,-0.020,-0.040,-0.040,0.014,0.993,0.011,-0.004,0.004,-0.004,0.000,0.000,0.000,0.000,0,2,0,3,7,255,960,250,0,0,-89.393,0.743,-31.379
EX0521-092111,16,C19,prep,1278,1278,0,838479.092,0.686,-0.676,0.195,0.188,0,0,0,0,0,0,0,0,0,0.000,0,0,0.060,0.004,-0.020,-0.040,-0.040,0.015,0.994,0.012,-0.004,-0.002,-0.004,0.000,0.000,0.000,0.000,0,2,0,3,7,255,960,250,0,0,-89.393,0.743,-31.379
EX0521-092111,16,C19,prep,1278,1278,0,838484.092,0.686,-0.676,0.195,0.188,0,0,0,0,0,0,0,0,0,0.000,0,0,0.049,0.004,-0.020,0.020,-0.040,0.014,0.994,0.011,-0.002,0.004,-0.004,0.000,0.000,0.000,0.000,0,2,0,3,7,255,960,250,0,0,-89.393,0.743,-31.379
EX0521-092111,16,C19,prep,1279,1279,0,838489.092,0.686,-0.676,0.195,0.188,0,0,0,0,0,0,0,0,0,0.000,0,0,0.060,0.010,-0.020,-0.040,-0.040,0.016,0.995,0.012,0.002,-0.010,0.002,0.000,0.000,0.000,0.000,0,2,0,3,7,255,960,250,0,0,-89.393,0.743,-31.379
EX0521-092111,16,C19,prep,1279,1279,0,838494.092,0.686,-0.676,0.195,0.188,0,0,0,0,0,0,0,0,0,0.000,0,0,0.060,0.014,-0.020,-0.040,-0.040,0.016,0.994,0.012,0.010,-0.010,0.002,0.000,0.000,0.000,0.000,0,2,0,3,7,255,960,250,0,0,-89.393,0.743,-31.379
EX0521-092111,16,C19,prep,1298,1298,0,838499.092,0.686,-0.676,0.195,0.188,0,0,0,0,0,0,0,0,0,0.000,0,0,0.049,0.014,-0.020,-0.040,0.020,0.015,0.993,0.012,0.010,-0.010,0.002,0.000,0.000,0.000,0.000,0,2,0,3,7,255,960,250,0,0,-89.393,0.743,-31.379
EX0521-092111,16,C19,prep,1298,1298,0,838504.092,0.686,-0.676,0.195,0.188,0,0,0,0,0,0,0,0,0,0.000,0,0,0.049,0.010,-0.020,0.020,-0.040,0.014,0.994,0.011,0.002,-0.010,0.002,0.000,0.000,0.000,0.000,0,2,0,3,7,255,960,250,0,0,-89.393,0.743,-31.379
EX0521-092111,16,C19,prep,1299,1299,0,838509.091,0.686,-0.676,0.195,0.188,0,0,0,0,0,0,0,0,0,0.000,0,0,0.069,0.002,0.040,-0.040,-0.040,0.014,0.996,0.011,0.000,0.002,0.002,0.000,0.000,0.000,0.000,0,2,0,3,7,255,960,250,0,0,-89.393,0.743,-31.379
EX0521-092111,16,C19,prep,1299,1299,0,838514.092,0.686,-0.676,0.195,0.188,0,0,0,0,0,0,0,0,0,0.000,0,0,0.060,0.002,-0.020,-0.040,-0.040,0.014,0.993,0.011,0.000,0.002,0.002,0.000,0.000,0.000,0.000,0,2,0,3,7,255,960,250,0,0,-89.393,0.743,-31.379
EX0521-092111,16,C19,prep,1310,1310,0,838519.091,0.686,-0.676,0.195,0.188,0,0,0,0,0,0,0,0,0,0.000,0,0,0.060,0.002,-0.020,-0.040,-0.040,0.015,0.994,0.011,0.000,0.002,0.002,0.000,0.000,0.000,0.000,0,2,0,3,7,255,960,250,0,0,-89.393,0.743,-31.379
EX0521-092111,16,C19,prep,1310,1310,0,838524.092,0.686,-0.676,0.195,0.188,0,0,0,0,0,0,0,0,0,0.000,0,0,0.060,0.003,-0.020,-0.040,-0.040,0.014,0.993,0.011,0.002,0.002,-0.008,0.000,0.000,0.000,0.000,0,2,0,3,7,255,960,250,0,0,-89.393,0.743,-31.379
EX0521-092111,16,C19,prep,1342,1342,0,838529.091,0.686,-0.676,0.195,0.188,0,0,0,0,0,0,0,0,0,0.000,0,0,0.060,0.004,-0.020,-0.040,-0.040,0.013,0.994,0.012,0.002,0.004,-0.004,0.000,0.000,0.000,0.000,0,2,0,3,7,255,960,250,0,0,-89.393,0.743,-31.379
EX0521-092111,16,C19,prep,1342,1342,0,838534.092,0.686,-0.676,0.195,0.188,0,0,0,0,0,0,0,0,0,0.000,0,0,0.115,0.009,0.040,-0.040,-0.100,0.014,0.994,0.012,-0.008,0.004,-0.004,0.000,0.000,0.000,0.000,0,2,0,3,7,255,960,250,0,0,-89.393,0.743,-31.379
EX0521-092111,16,C19,prep,1342,1342,0,838539.091,0.686,-0.676,0.195,0.188,0,0,0,0,0,0,0,0,0,0.000,0,0,0.060,0.009,-0.020,-0.040,-0.040,0.014,0.994,0.011,-0.008,0.004,-0.004,0.000,0.000,0.000,0.000,0,2,0,3,7,255,960,250,0,0,-89.393,0.743,-31.379
EX0521-092111,16,C19,prep,1342,1342,0,838544.092,0.686,-0.676,0.195,0.188,0,0,0,0,0,0,0,0,0,0.000,0,0,0.069,0.006,0.040,-0.040,-0.040,0.014,0.993,0.011,-0.004,0.004,-0.004,0.000,0.000,0.000,0.000,0,2,0,3,7,255,960,250,0,0,-89.393,0.743,-31.379
EX0521-092111,16,C19,prep,1374,1374,0,838549.091,0.686,-0.676,0.195,0.188,0,0,0,0,0,0,0,0,0,0.000,0,0,0.060,0.004,-0.020,-0.040,-0.040,0.015,0.993,0.011,-0.002,0.004,-0.008,0.000,0.000,0.000,0.000,0,2,0,3,7,255,960,250,0,0,-89.393,0.743,-31.379
EX0521-092111,16,C19,prep,1374,1374,0,838554.093,0.686,-0.676,0.195,0.188,0,0,0,0,0,0,0,0,0,0.000,0,0,0.035,0.003,-0.020,0.020,0.020,0.015,0.994,0.012,0.002,0.002,-0.008,0.000,0.000,0.000,0.000,0,2,0,3,7,255,960,250,0,0,-89.393,0.743,-31.379
EX0521-092111,16,C19,prep,1374,1374,0,838559.092,0.686,-0.676,0.195,0.188,0,0,0,0,0,0,0,0,0,0.000,0,0,0.060,0.003,0.040,-0.040,0.020,0.014,0.994,0.012,0.002,-0.002,0.002,0.000,0.000,0.000,0.000,0,2,0,3,7,255,960,250,0,0,-89.393,0.743,-31.379
EX0521-092111,16,C19,prep,1374,1374,0,838564.093,0.686,-0.676,0.195,0.188,0,0,0,0,0,0,0,0,0,0.000,0,0,0.060,0.003,0.040,-0.040,0.020,0.014,0.995,0.012,-0.002,-0.002,0.002,0.000,0.000,0.000,0.000,0,2,0,3,7,255,960,250,0,0,-89.393,0.743,-31.379
EX0521-092111,16,C19,prep,1374,1374,0,838569.091,0.686,-0.676,0.195,0.188,0,0,0,0,0,0,0,0,0,0.000,0,0,0.049,0.003,-0.020,-0.040,0.020,0.015,0.994,0.011,-0.002,-0.002,0.002,0.000,0.000,0.000,0.000,0,2,0,3,7,255,960,250,0,0,-89.393,0.743,-31.379
EX0521-092111,16,C19,prep,1374,1374,0,838574.092,0.686,-0.676,0.195,0.188,0,0,0,0,0,0,0,0,0,0.000,0,0,0.049,0.003,-0.020,0.020,-0.040,0.015,0.994,0.012,0.002,-0.002,0.002,0.000,0.000,0.000,0.000,0,2,0,3,7,255,960,250,0,0,-89.393,0.743,-31.379
EX0521-092111,16,C19,prep,1374,1374,0,838579.091,0.686,-0.676,0.195,0.188,0,0,0,0,0,0,0,0,0,0.000,0,0,0.134,0.003,-0.080,-0.100,-0.040,0.013,0.993,0.012,0.002,0.002,-0.004,0.000,0.000,0.000,0.000,0,2,0,3,7,255,960,250,0,0,-89.394,0.743,-31.379
EX0521-092111,16,C19,prep,1374,1374,0,838584.092,0.686,-0.676,0.195,0.188,0,0,0,0,0,0,0,0,0,0.000,0,0,0.115,0.006,0.040,-0.100,-0.040,0.015,0.995,0.012,0.002,-0.006,0.002,0.000,0.000,0.000,0.000,0,2,0,3,7,255,960,250,0,0,-89.394,0.743,-31.379
EX0521-092111,16,C19,prep,1394,1394,0,838589.092,0.686,-0.676,0.195,0.188,0,0,0,0,0,0,0,0,0,0.000,0,0,0.060,0.003,-0.020,-0.040,-0.040,0.015,0.995,0.011,0.002,-0.002,0.006,0.000,0.000,0.000,0.000,0,2,0,3,7,255,960,250,0,0,-89.394,0.743,-31.379
EX0521-092111,16,C19,prep,1394,1394,0,838594.091,0.686,-0.676,0.195,0.188,0,0,0,0,0,0,0,0,0,0.000,0,0,0.069,0.003,0.040,-0.040,-0.040,0.014,0.994,0.011,0.002,-0.002,0.006,0.000,0.000,0.000,0.000,0,2,0,3,7,255,960,250,0,0,-89.394,0.743,-31.379
EX0521-092111,16,C19,prep,1394,1394,0,838599.092,0.686,-0.676,0.195,0.188,0,0,0,0,0,0,0,0,0,0.000,0,0,0.060,0.004,-0.020,-0.040,-0.040,0.015,0.995,0.012,0.004,-0.002,0.006,0.000,0.000,0.000,0.000,0,2,0,3,7,255,960,250,0,0,-89.394,0.743,-31.379
EX0521-092111,16,C19,prep,1394,1394,0,838604.091,0.686,-0.676,0.195,0.188,0,0,0,0,0,0,0,0,0,0.000,0,0,0.060,0.009,-0.020,-0.040,-0.040,0.014,0.993,0.012,-0.004,-0.008,-0.004,0.000,0.000,0.000,0.000,0,2,0,3,7,255,960,250,0,0,-89.394,0.743,-31.379
EX0521-092111,16,C19,prep,1406,1406,0,838609.092,0.686,-0.676,0.195,0.188,0,0,0,0,0,0,0,0,0,0.000,0,0,0.049,0.010,-0.020,-0.040,0.020,0.015,0.994,0.011,0.006,-0.008,0.002,0.000,0.000,0.000,0.000,0,2,0,3,7,255,960,250,0,0,-89.394,0.743,-31.379
EX0521-092111,16,C19,prep,1406,1406,0,838614.091,0.686,-0.676,0.195,0.188,0,0,0,0,0,0,0,0,0,0.000,0,0,0.049,0.010,-0.020,0.020,-0.040,0.015,0.994,0.012,0.006,-0.008,-0.004,0.000,0.000,0.000,0.000,0,2,0,3,7,255,960,250,0,0,-89.394,0.743,-31.379
EX0521-092111,16,C19,prep,1406,1406,0,838619.092,0.686,-0.676,0.195,0.188,0,0,0,0,0,0,0,0,0,0.000,0,0,0.060,0.006,0.040,-0.040,0.020,0.015,0.994,0.011,0.006,0.002,0.002,0.000,0.000,0.000,0.000,0,2,0,3,7,255,960,250,0,0,-89.394,0.743,-31.379
EX0521-092111,16,C19,prep,1406,1406,0,838624.091,0.686,-0.676,0.195,0.188,0,0,0,0,0,0,0,0,0,0.000,0,0,0.069,0.006,0.040,-0.040,-0.040,0.015,0.993,0.011,0.006,0.002,-0.004,0.000,0.000,0.000,0.000,0,2,0,3,7,255,960,250,0,0,-89.394,0.743,-31.379
EX0521-092111,16,C19,prep,1431,1431,0,838629.092,0.686,-0.676,0.195,0.188,0,0,0,0,0,0,0,0,0,0.000,0,0,0.092,0.006,-0.080,-0.040,0.020,0.013,0.994,0.012,0.006,0.002,-0.004,0.000,0.000,0.000,0.000,0,2,0,3,7,255,960,250,0,0,-89.394,0.743,-31.379
EX0521-092111,16,C19,prep,1431,1431,0,838634.091,0.686,-0.676,0.195,0.188,0,0,0,0,0,0,0,0,0,0.000,0,0,0.098,0.003,-0.080,-0.040,-0.040,0.014,0.994,0.011,-0.002,0.002,-0.004,0.000,0.000,0.000,0.000,0,2,0,3,7,255,960,250,0,0,-89.394,0.743,-31.379
EX0521-092111,16,C19,prep,1464,1464,0,838639.092,0.686,-0.676,0.195,0.188,0,0,0,0,0,0,0,0,0,0.000,0,0,0.060,0.008,-0.020,-0.040,-0.040,0.014,0.993,0.011,-0.002,0.008,-0.004,0.000,0.000,0.000,0.000,0,2,0,3,7,255,960,250,0,0,-89.394,0.743,-31.379
EX0521-092111,16,C19,prep,1464,1464,0,838644.092,0.686,-0.676,0.195,0.188,0,0,0,0,0,0,0,0,0,0.000,0,0,0.049,0.008,-0.020,0.020,-0.040,0.014,0.994,0.012,-0.002,0.008,-0.004,0.000,0.000,0.000,0.000,0,2,0,3,7,255,960,250,0,0,-89.394,0.743,-31.379
EX0521-092111,16,C19,prep,1464,1464,0,838649.092,0.686,-0.676,0.195,0.188,0,0,0,0,0,0,0,0,0,0.000,0,0,0.060,0.003,-0.020,-0.040,-0.040,0.015,0.993,0.012,-0.002,-0.002,-0.008,0.000,0.000,0.000,0.000,0,2,0,3,7,255,960,250,0,0,-89.394,0.743,-31.379
EX0521-092111,16,C19,prep,1464,1464,0,838654.093,0.686,-0.676,0.195,0.188,0,0,0,0,0,0,0,0,0,0.000,0,0,0.110,0.010,-0.020,-0.040,-0.100,0.016,0.993,0.012,0.006,-0.008,-0.008,0.000,0.000,0.000,0.000,0,2,0,3,7,255,960,250,0,0,-89.394,0.743,-31.379
EX0521-092111,16,C19,prep,1464,1464,0,838659.092,0.686,-0.676,0.195,0.188,0,0,0,0,0,0,0,0,0,0.000,0,0,0.069,0.010,0.040,-0.040,-0.040,0.014,0.995,0.011,0.006,-0.008,-0.008,0.000,0.000,0.000,0.000,0,2,0,3,7,255,960,250,0,0,-89.394,0.743,-31.379
EX0521-092111,16,C19,prep,1464,1464,0,838664.091,0.686,-0.676,0.195,0.188,0,0,0,0,0,0,0,0,0,0.000,0,0,0.060,0.006,-0.020,-0.040,-0.040,0.015,0.995,0.012,0.000,-0.006,0.006,0.000,0.000,0.000,0.000,0,2,0,3,7,255,960,250,0,0,-89.394,0.743,-31.379
EX0521-092111,16,C19,prep,1464,1464,0,838669.092,0.686,-0.676,0.195,0.188,0,0,0,0,0,0,0,0,0,0.000,0,0,0.060,0.002,0.040,-0.040,0.020,0.014,0.994,0.012,0.000,-0.002,0.006,0.000,0.000,0.000,0.000,0,2,0,3,7,255,960,250,0,0,-89.394,0.743,-31.379
EX0521-092111,16,C19,prep,1464,1464,0,838674.091,0.686,-0.676,0.195,0.188,0,0,0,0,0,0,0,0,0,0.000,0,0,0.110,0.006,-0.020,-0.100,-0.040,0.015,0.994,0.012,0.000,-0.006,0.002,0.000,0.000,0.000,0.000,0,2,0,3,7,255,960,250,0,0,-89.394,0.743,-31.379
EX0521-092111,16,C19,prep,1470,1470,0,838679.092,0.686,-0.676,0.195,0.188,0,0,0,0,0,0,0,0,0,0.000,0,0,0.049,0.006,-0.020,0.020,-0.040,0.014,0.995,0.012,-0.004,-0.004,0.002,0.000,0.000,0.000,0.000,0,2,0,3,7,255,960,250,0,0,-89.394,0.743,-31.379
EX0521-092111,16,C19,prep,1470,1470,0,838684.092,0.686,-0.676,0.195,0.188,0,0,0,0,0,0,0,0,0,0.000,0,0,0.049,0.004,-0.020,0.020,-0.040,0.014,0.993,0.011,0.000,-0.004,0.002,0.000,0.000,0.000,0.000,0,2,0,3,7,255,960,250,0,0,-89.394,0.743,-31.379
EX0521-092111,16,C19,prep,1497,1497,0,838689.092,0.686,-0.676,0.195,0.188,0,0,0,0,0,0,0,0,0,0.000,0,0,0.060,0.002,-0.020,-0.040,-0.040,0.015,0.994,0.011,0.000,-0.002,-0.002,0.000,0.000,0.000,0.000,0,2,0,3,7,255,960,250,0,0,-89.394,0.743,-31.379
EX0521-092111,16,C19,prep,1497,1497,0,838694.092,0.686,-0.676,0.195,0.188,0,0,0,0,0,0,0,0,0,0.000,0,0,0.098,0.002,-0.080,-0.040,-0.040,0.015,0.995,0.012,0.000,-0.002,-0.002,0.000,0.000,0.000,0.000,0,2,0,3,7,255,960,250,0,0,-89.394,0.743,-31.379
EX0521-092111,16,C19,prep,1498,1498,0,838699.092,0.686,-0.676,0.195,0.188,0,0,0,0,0,0,0,0,0,0.000,0,0,0.110,0.003,-0.020,-0.100,-0.040,0.014,0.995,0.012,-0.002,-0.002,0.006,0.000,0.000,0.000,0.000,0,2,0,3,7,255,960,250,0,0,-89.394,0.743,-31.379
EX0521-092111,16,C19,prep,1498,1498,0,838704.092,0.686,-0.676,0.195,0.188,0,0,0,0,0,0,0,0,0,0.000,0,0,0.049,0.004,-0.020,-0.040,0.020,0.013,0.994,0.012,-0.004,-0.002,0.006,0.000,0.000,0.000,0.000,0,2,0,3,7,255,960,250,0,0,-89.394,0.743,-31.379
EX0521-092111,16,C19,prep,1498,1498,0,838709.092,0.686,-0.676,0.195,0.188,0,0,0,0,0,0,0,0,0,0.000,0,0,0.060,0.004,-0.020,-0.040,-0.040,0.015,0.994,0.011,-0.004,-0.002,0.002,0.000,0.000,0.000,0.000,0,2,0,3,7,255,960,250,0,0,-89.394,0.743,-31.379
EX0521-092111,16,C19,prep,1498,1498,0,838714.092,0.686,-0.676,0.195,0.188,0,0,0,0,0,0,0,0,0,0.000,0,0,0.060,0.007,0.040,-0.040,0.020,0.014,0.994,0.012,-0.006,-0.004,-0.004,0.000,0.000,0.000,0.000,0,2,0,3,7,255,960,250,0,0,-89.394,0.743,-31.379
EX0521-092111,16,C19,prep,1529,1529,0,838719.092,0.686,-0.676,0.195,0.188,0,0,0,0,0,0,0,0,0,0.000,0,0,0.060,0.006,-0.020,-0.040,-0.040,0.015,0.994,0.012,-0.002,-0.006,0.002,0.000,0.000,0.000,0.000,0,2,0,3,7,255,960,250,0,0,-89.394,0.743,-31.379
EX0521-092111,16,C19,prep,1529,1529,0,838724.092,0.686,-0.676,0.195,0.188,0,0,0,0,0,0,0,0,0,0.000,0,0,0.098,0.006,-0.080,-0.040,-0.040,0.015,0.994,0.011,-0.002,-0.006,-0.004,0.000,0.000,0.000,0.000,0,2,0,3,7,255,960,250,0,0,-89.394,0.743,-31.379
EX0521-092111,16,C19,prep,1565,1565,0,838729.091,0.686,-0.676,0.195,0.188,0,0,0,0,0,0,0,0,0,0.000,0,0,0.060,0.008,-0.020,-0.040,-0.040,0.014,0.994,0.013,-0.002,-0.008,0.002,0.000,0.000,0.000,0.000,0,2,0,3,7,255,960,250,0,0,-89.394,0.743,-31.379
EX0521-092111,16,C19,prep,1565,1565,0,838734.092,0.686,-0.676,0.195,0.188,0,0,0,0,0,0,0,0,0,0.000,0,0,0.115,0.006,0.040,-0.100,-0.040,0.014,0.993,0.012,-0.006,0.000,-0.004,0.000,0.000,0.000,0.000,0,2,0,3,7,255,960,250,0,0,-89.394,0.743,-31.379
EX0521-092111,16,C19,prep,1565,1565,0,838739.091,0.686,-0.676,0.195,0.188,0,0,0,0,0,0,0,0,0,0.000,0,0,0.060,0.006,-0.020,-0.040,-0.040,0.014,0.994,0.012,-0.006,0.000,0.002,0.000,0.000,0.000,0.000,0,2,0,3,7,255,960,250,0,0,-89.395,0.743,-31.379
EX0521-092111,16,C19,prep,1565,1565,0,838744.092,0.686,-0.676,0.195,0.188,0,0,0,0,0,0,0,0,0,0.000,0,0,0.049,0.006,-0.020,0.020,-0.040,0.014,0.994,0.012,-0.006,0.000,-0.002,0.000,0.000,0.000,0.000,0,2,0,3,7,255,960,250,0,0,-89.395,0.743,-31.379
EX0521-092111,16,C19,prep,1565,1565,0,838749.091,0.686,-0.676,0.195,0.188,0,0,0,0,0,0,0,0,0,0.000,0,0,0.069,0.006,0.040,-0.040,-0.040,0.015,0.995,0.011,-0.006,0.000,0.002,0.000,0.000,0.000,0.000,0,2,0,3,7,255,960,250,0,0,-89.395,0.743,-31.379
EX0521-092111,16,C19,prep,1565,1565,0,838754.093,0.686,-0.676,0.195,0.188,0,0,0,0,0,0,0,0,0,0.000,0,0,0.060,0.007,-0.020,-0.040,-0.040,0.015,0.993,0.011,0.006,0.004,-0.002,0.000,0.000,0.000,0.000,0,2,0,3,7,255,960,250,0,0,-89.395,0.743,-31.379
EX0521-092111,16,C19,prep,1565,1565,0,838759.092,0.686,-0.676,0.195,0.188,0,0,0,0,0,0,0,0,0,0.000,0,0,0.049,0.007,0.040,0.020,0.020,0.014,0.995,0.011,0.006,0.004,0.006,0.000,0.000,0.000,0.000,0,2,0,3,7,255,960,250,0,0,-89.395,0.743,-31.379
EX0521-092111,16,C19,prep,1565,1565,0,838764.093,0.686,-0.676,0.195,0.188,0,0,0,0,0,0,0,0,0,0.000,0,0,0.069,0.002,0.040,-0.040,-0.040,0.014,0.994,0.011,0.000,0.002,-0.004,0.000,0.000,0.000,0.000,0,2,0,3,7,255,960,250,0,0,-89.395,0.743,-31.379
EX0521-092111,16,C19,prep,1566,1566,0,838769.091,0.686,-0.676,0.195,0.188,0,0,0,0,0,0,0,0,0,0.000,0,0,0.069,0.002,0.040,-0.040,-0.040,0.014,0.993,0.010,0.000,0.002,-0.004,0.000,0.000,0.000,0.000,0,2,0,3,7,255,960,250,0,0,-89.395,0.743,-31.379
EX0521-092111,16,C19,prep,1566,1566,0,838774.092,0.686,-0.676,0.195,0.188,0,0,0,0,0,0,0,0,0,0.000,0,0,0.060,0.004,-0.020,-0.040,-0.040,0.015,0.995,0.011,0.004,0.002,-0.004,0.000,0.000,0.000,0.000,0,2,0,3,7,255,960,250,0,0,-89.395,0.743,-31.379
EX0521-092111,16,C19,prep,1566,1566,0,838779.091,0.686,-0.676,0.195,0.188,0,0,0,0,0,0,0,0,0,0.000,0,0,0.110,0.011,-0.020,-0.100,-0.040,0.013,0.993,0.011,0.004,0.010,-0.008,0.000,0.000,0.000,0.000,0,2,0,3,7,255,960,250,0,0,-89.395,0.743,-31.379
EX0521-092111,16,C19,prep,1566,1566,0,838784.092,0.686,-0.676,0.195,0.188,0,0,0,0,0,0,0,0,0,0.000,0,0,0.049,0.004,0.040,0.020,0.020,0.015,0.993,0.012,-0.002,-0.004,-0.008,0.000,0.000,0.000,0.000,0,2,0,3,7,255,960,250,0,0,-89.395,0.743,-31.379
EX0521-092111,16,C19,prep,1597,1597,0,838789.091,0.686,-0.676,0.195,0.188,0,0,0,0,0,0,0,0,0,0.000,0,0,0.060,0.003,0.040,0.020,-0.040,0.014,0.993,0.011,-0.002,0.002,-0.008,0.000,0.000,0.000,0.000,0,2,0,3,7,255,960,250,0,0,-89.395,0.743,-31.379
EX0521-092111,16,C19,prep,1597,1597,0,838794.092,0.686,-0.676,0.195,0.188,0,0,0,0,0,0,0,0,0,0.000,0,0,0.110,0.002,-0.020,-0.040,-0.100,0.015,0.994,0.011,0.000,0.002,-0.008,0.000,0.000,0.000,0.000,0,2,0,3,7,255,960,250,0,0,-89.395,0.743,-31.379
EX0521-092111,16,C19,prep,1598,1598,0,838799.091,0.686,-0.676,0.195,0.188,0,0,0,0,0,0,0,0,0,0.000,0,0,0.060,0.002,0.040,0.020,-0.040,0.014,0.994,0.012,0.000,0.002,-0.002,0.000,0.000,0.000,0.000,0,2,0,3,7,255,960,250,0,0,-89.395,0.743,-31.379
EX0521-092111,16,C19,prep,1598,1598,0,838804.092,0.686,-0.676,0.195,0.188,0,0,0,0,0,0,0,0,0,0.000,0,0,0.060,0.002,-0.020,-0.040,-0.040,0.014,0.994,0.011,0.000,0.002,-0.002,0.000,0.000,0.000,0.000,0,2,0,3,7,255,960,250,0,0,-89.395,0.743,-31.379
EX0521-092111,16,C19,prep,1599,1599,0,838809.092,0.686,-0.676,0.195,0.188,0,0,0,0,0,0,0,0,0,0.000,0,0,0.060,0.002,-0.020,-0.040,-0.040,0.015,0.994,0.011,0.000,-0.002,-0.002,0.000,0.000,0.000,0.000,0,2,0,3,7,255,960,250,0,0,-89.395,0.743,-31.379
EX0521-092111,16,C19,prep,1599,1599,0,838814.092,0.686,-0.676,0.195,0.188,0,0,0,0,0,0,0,0,0,0.000,0,0,0.060,0.003,-0.020,-0.040,-0.040,0.014,0.993,0.011,0.002,0.002,-0.002,0.000,0.000,0.000,0.000,0,2,0,3,7,255,960,250,0,0,-89.395,0.743,-31.379
EX0521-092111,16,C19,prep,1629,1629,0,838819.092,0.686,-0.676,0.195,0.188,0,0,0,0,0,0,0,0,0,0.000,0,0,0.060,0.006,-0.020,-0.040,-0.040,0.013,0.995,0.011,0.002,0.006,-0.002,0.000,0.000,0.000,0.000,0,2,0,3,7,255,960,250,0,0,-89.395,0.743,-31.379
EX0521-092111,16,C19,prep,1629,1629,0,838824.091,0.686,-0.676,0.195,0.188,0,0,0,0,0,0,0,0,0,0.000,0,0,0.049,0.006,-0.020,-0.040,0.020,0.015,0.993,0.011,0.002,0.006,-0.008,0.000,0.000,0.000,0.000,0,2,0,3,7,255,960,250,0,0,-89.395,0.743,-31.379
EX0521-092111,16,C19,prep,1646,1646,0,838829.092,0.686,-0.676,0.195,0.188,0,0,0,0,0,0,0,0,0,0.000,0,0,0.110,0.007,-0.020,-0.100,-0.040,0.015,0.995,0.011,0.006,0.004,0.006,0.000,0.000,0.000,0.000,0,2,0,3,7,255,960,250,0,0,-89.395,0.743,-31.379
EX0521-092111,16,C19,prep,1646,1646,0,838834.091,0.686,-0.676,0.195,0.188,0,0,0,0,0,0,0,0,0,0.000,0,0,0.060,0.006,-0.020,-0.040,-0.040,0.014,0.995,0.012,0.006,-0.002,0.006,0.000,0.000,0.000,0.000,0,2,0,3,7,255,960,250,0,0,-89.395,0.743,-31.379
EX0521-092111,16,C19,prep,1646,1646,0,838839.092,0.686,-0.676,0.195,0.188,0,0,0,0,0,0,0,0,0,0.000,0,0,0.060,0.002,-0.020,-0.040,-0.040,0.014,0.995,0.011,0.000,0.002,0.012,0.000,0.000,0.000,0.000,0,2,0,3,7,255,960,250,0,0,-89.395,0.743,-31.379
EX0521-092111,16,C19,prep,1646,1646,0,838844.092,0.686,-0.676,0.195,0.188,0,0,0,0,0,0,0,0,0,0.000,0,0,0.069,0.004,0.040,-0.040,-0.040,0.014,0.995,0.011,-0.004,0.002,0.012,0.000,0.000,0.000,0.000,0,2,0,3,7,255,960,250,0,0,-89.395,0.743,-31.379
EX0521-092111,16,C19,prep,1646,1646,0,838849.092,0.686,-0.676,0.195,0.188,0,0,0,0,0,0,0,0,0,0.000,0,0,0.049,0.002,-0.020,0.020,-0.040,0.015,0.995,0.011,0.000,0.002,0.006,0.000,0.000,0.000,0.000,0,2,0,3,7,255,960,250,0,0,-89.395,0.743,-31.379
EX0521-092111,16,C19,prep,1646,1646,0,838854.093,0.686,-0.676,0.195,0.188,0,0,0,0,0,0,0,0,0,0.000,0,0,0.060,0.004,0.040,0.020,-0.040,0.015,0.994,0.011,0.004,-0.002,0.006,0.000,0.000,0.000,0.000,0,2,0,3,7,255,960,250,0,0,-89.395,0.743,-31.379
EX0521-092111,16,C19,prep,1665,1665,0,838859.092,0.686,-0.676,0.195,0.188,0,0,0,0,0,0,0,0,0,0.000,0,0,0.060,0.006,-0.020,-0.040,-0.040,0.015,0.993,0.012,0.004,-0.004,0.002,0.000,0.000,0.000,0.000,0,2,0,3,7,255,960,250,0,0,-89.395,0.743,-31.379
EX0521-092111,16,C19,prep,1665,1665,0,838864.091,0.686,-0.676,0.195,0.188,0,0,0,0,0,0,0,0,0,0.000,0,0,0.098,0.004,-0.080,-0.040,-0.040,0.014,0.993,0.012,0.000,-0.004,-0.008,0.000,0.000,0.000,0.000,0,2,0,3,7,255,960,250,0,0,-89.395,0.743,-31.379
EX0521-092111,16,C19,prep,1666,1666,0,838869.092,0.686,-0.676,0.195,0.188,0,0,0,0,0,0,0,0,0,0.000,0,0,0.049,0.004,-0.020,-0.040,0.020,0.014,0.993,0.011,-0.004,-0.002,-0.008,0.000,0.000,0.000,0.000,0,2,0,3,7,255,960,250,0,0,-89.395,0.743,-31.379
EX0521-092111,16,C19,prep,1666,1666,0,838874.091,0.686,-0.676,0.195,0.188,0,0,0,0,0,0,0,0,0,0.000,0,0,0.060,0.004,-0.020,-0.040,-0.040,0.014,0.994,0.011,-0.004,0.002,-0.008,0.000,0.000,0.000,0.000,0,2,0,3,7,255,960,250,0,0,-89.395,0.743,-31.379
EX0521-092111,16,C19,prep,1666,1666,0,838879.092,0.686,-0.676,0.195,0.188,0,0,0,0,0,0,0,0,0,0.000,0,0,0.069,0.004,0.040,-0.040,-0.040,0.014,0.994,0.012,-0.004,0.002,0.002,0.000,0.000,0.000,0.000,0,2,0,3,7,255,960,250,0,0,-89.395,0.743,-31.379
EX0521-092111,16,C19,prep,1666,1666,0,838884.092,0.686,-0.676,0.195,0.188,0,0,0,0,0,0,0,0,0,0.000,0,0,0.049,0.002,-0.020,-0.040,0.020,0.015,0.994,0.011,0.000,0.002,0.002,0.000,0.000,0.000,0.000,0,2,0,3,7,255,960,250,0,0,-89.395,0.743,-31.379
EX0521-092111,16,C19,prep,1678,1678,0,838889.092,0.686,-0.676,0.195,0.188,0,0,0,0,0,0,0,0,0,0.000,0,0,0.060,0.002,-0.020,-0.040,-0.040,0.014,0.994,0.011,0.000,0.002,-0.002,0.000,0.000,0.000,0.000,0,2,0,3,7,255,960,250,0,0,-89.395,0.743,-31.379
EX0521-092111,16,C19,prep,1678,1678,0,838894.091,0.686,-0.676,0.195,0.188,0,0,0,0,0,0,0,0,0,0.000,0,0,0.060,0.002,0.040,-0.040,0.020,0.014,0.994,0.011,0.000,0.002,-0.002,0.000,0.000,0.000,0.000,0,2,0,3,7,255,960,250,0,0,-89.396,0.743,-31.379
EX0521-092111,16,C19,prep,1710,1710,0,838899.092,0.686,-0.676,0.195,0.188,0,0,0,0,0,0,0,0,0,0.000,0,0,0.069,0.002,0.040,-0.040,-0.040,0.014,0.994,0.011,0.000,0.002,-0.002,0.000,0.000,0.000,0.000,0,2,0,3,7,255,960,250,0,0,-89.396,0.743,-31.379
EX0521-092111,16,C19,prep,1710,1710,0,838904.091,0.686,-0.676,0.195,0.188,0,0,0,0,0,0,0,0,0,0.000,0,0,0.069,0.006,0.040,-0.040,-0.040,0.014,0.994,0.011,-0.004,0.004,0.002,0.000,0.000,0.000,0.000,0,2,0,3,7,255,960,250,0,0,-89.396,0.743,-31.379
EX0521-092111,16,C19,prep,1710,1710,0,838909.092,0.686,-0.676,0.195,0.188,0,0,0,0,0,0,0,0,0,0.000,0,0,0.104,0.002,-0.020,-0.100,0.020,0.015,0.994,0.012,0.000,0.002,0.002,0.000,0.000,0.000,0.000,0,2,0,3,7,255,960,250,0,0,-89.396,0.743,-31.379
EX0521-092111,16,C19,prep,1710,1710,0,838914.091,0.686,-0.676,0.195,0.188,0,0,0,0,0,0,0,0,0,0.000,0,0,0.110,0.003,-0.020,-0.040,-0.100,0.015,0.994,0.011,0.002,-0.002,0.002,0.000,0.000,0.000,0.000,0,2,0,3,7,255,960,250,0,0,-89.396,0.743,-31.379
EX0521-092111,16,C19,prep,1710,1710,0,838919.092,0.686,-0.676,0.195,0.188,0,0,0,0,0,0,0,0,0,0.000,0,0,0.060,0.003,0.040,0.020,-0.040,0.014,0.995,0.011,0.002,-0.002,0.002,0.000,0.000,0.000,0.000,0,2,0,3,7,255,960,250,0,0,-89.396,0.743,-31.379
EX0521-092111,16,C19,prep,1710,1710,0,838924.091,0.686,-0.676,0.195,0.188,0,0,0,0,0,0,0,0,0,0.000,0,0,0.060,0.004,-0.020,-0.040,-0.040,0.015,0.994,0.011,0.004,-0.002,-0.002,0.000,0.000,0.000,0.000,0,2,0,3,7,255,960,250,0,0,-89.396,0.743,-31.379
EX0521-092111,16,C19,prep,1731,1731,0,838929.092,0.686,-0.676,0.195,0.188,0,0,0,0,0,0,0,0,0,0.000,0,0,0.060,0.004,-0.020,-0.040,-0.040,0.016,0.995,0.011,0.004,-0.002,0.006,0.000,0.000,0.000,0.000,0,2,0,3,7,255,960,250,0,0,-89.396,0.743,-31.379
EX0521-092111,16,C19,prep,1731,1731,0,838934.092,0.686,-0.676,0.195,0.188,0,0,0,0,0,0,0,0,0,0.000,0,0,0.060,0.006,-0.020,-0.040,-0.040,0.015,0.994,0.011,0.006,-0.002,0.002,0.000,0.000,0.000,0.000,0,2,0,3,7,255,960,250,0,0,-89.396,0.743,-31.379
EX0521-092111,16,C19,prep,1763,1763,0,838939.092,0.686,-0.676,0.195,0.188,0,0,0,0,0,0,0,0,0,0.000,0,0,0.035,0.008,-0.020,0.020,0.020,0.014,0.994,0.012,0.006,-0.006,0.002,0.000,0.000,0.000,0.000,0,2,0,3,7,255,960,250,0,0,-89.396,0.743,-31.379
EX0521-092111,16,C19,prep,1763,1763,0,838944.092,0.686,-0.676,0.195,0.188,0,0,0,0,0,0,0,0,0,0.000,0,0,0.060,0.002,-0.020,-0.040,-0.040,0.014,0.994,0.011,0.000,0.002,0.002,0.000,0.000,0.000,0.000,0,2,0,3,7,255,960,250,0,0,-89.396,0.743,-31.379
EX0521-092111,16,C19,prep,1763,1763,0,838949.092,0.686,-0.676,0.195,0.188,0,0,0,0,0,0,0,0,0,0.000,0,0,0.060,0.003,-0.020,-0.040,-0.040,0.014,0.994,0.011,-0.002,0.002,0.002,0.000,0.000,0.000,0.000,0,2,0,3,7,255,960,250,0,0,-89.396,0.743,-31.379
EX0521-092111,16,C19,prep,1763,1763,0,838954.093,0.686,-0.676,0.195,0.188,0,0,0,0,0,0,0,0,0,0.000,0,0,0.110,0.002,0.040,-0.100,0.020,0.014,0.993,0.011,0.000,0.002,0.002,0.000,0.000,0.000,0.000,0,2,0,3,7,255,960,250,0,0,-89.396,0.743,-31.379
EX0521-092111,16,C19,prep,1763,1763,0,838959.092,0.686,-0.676,0.195,0.188,0,0,0,0,0,0,0,0,0,0.000,0,0,0.060,0.004,0.040,-0.040,0.020,0.015,0.994,0.010,0.000,0.004,0.002,0.000,0.000,0.000,0.000,0,2,0,3,7,255,960,250,0,0,-89.396,0.743,-31.379
EX0521-092111,16,C19,prep,1763,1763,0,838964.093,0.686,-0.676,0.195,0.188,0,0,0,0,0,0,0,0,0,0.000,0,0,0.115,0.004,0.040,-0.040,-0.100,0.014,0.994,0.011,0.000,0.004,0.002,0.000,0.000,0.000,0.000,0,2,0,3,7,255,960,250,0,0,-89.396,0.743,-31.379
EX0521-092111,16,C19,prep,1763,1763,0,838969.091,0.686,-0.676,0.195,0.188,0,0,0,0,0,0,0,0,0,0.000,0,0,0.069,0.006,0.040,-0.040,-0.040,0.015,0.995,0.011,0.004,0.004,0.002,0.000,0.000,0.000,0.000,0,2,0,3,7,255,960,250,0,0,-89.396,0.743,-31.379
EX0521-092111,16,C19,prep,1763,1763,0,838974.092,0.686,-0.676,0.195,0.188,0,0,0,0,0,0,0,0,0,0.000,0,0,0.060,0.004,-0.020,-0.040,-0.040,0.016,0.993,0.012,0.004,-0.002,0.002,0.000,0.000,0.000,0.000,0,2,0,3,7,255,960,250,0,0,-89.396,0.743,-31.379
EX0521-092111,16,C19,prep,1774,1774,0,838979.091,0.686,-0.676,0.195,0.188,0,0,0,0,0,0,0,0,0,0.000,0,0,0.049,0.004,-0.020,0.020,-0.040,0.014,0.994,0.012,0.004,-0.002,-0.002,0.000,0.000,0.000,0.000,0,2,0,3,7,255,960,250,0,0,-89.396,0.743,-31.379
EX0521-092111,16,C19,prep,1774,1774,0,838984.092,0.686,-0.676,0.195,0.188,0,0,0,0,0,0,0,0,0,0.000,0,0,0.060,0.006,-0.020,-0.040,-0.040,0.015,0.994,0.012,0.000,-0.006,-0.002,0.000,0.000,0.000,0.000,0,2,0,3,7,255,960,250,0,0,-89.396,0.743,-31.379
EX0521-092111,16,C19,prep,1774,1774,0,838989.092,0.686,-0.676,0.195,0.188,0,0,0,0,0,0,0,0,0,0.000,0,0,0.110,0.004,-0.020,-0.100,-0.040,0.014,0.994,0.012,-0.004,-0.002,0.002,0.000,0.000,0.000,0.000,0,2,0,3,7,255,960,250,0,0,-89.396,0.743,-31.379
EX0521-092111,16,C19,prep,1774,1774,0,838994.092,0.686,-0.676,0.195,0.188,0,0,0,0,0,0,0,0,0,0.000,0,0,0.060,0.000,-0.020,-0.040,-0.040,0.014,0.994,0.010,0.000,0.000,0.002,0.000,0.000,0.000,0.000,0,2,0,3,7,255,960,250,0,0,-89.396,0.743,-31.379
EX0521-092111,16,C19,prep,1806,1806,0,838999.091,0.686,-0.676,0.195,0.188,0,0,0,0,0,0,0,0,0,0.000,0,0,0.060,0.012,-0.020,-0.040,-0.040,0.013,0.995,0.011,-0.006,0.010,0.002,0.000,0.000,0.000,0.000,0,2,0,3,7,255,960,250,0,0,-89.396,0.743,-31.379
EX0521-092111,16,C19,prep,1806,1806,0,839004.092,0.686,-0.676,0.195,0.188,0,0,0,0,0,0,0,0,0,0.000,0,0,0.060,0.010,-0.020,-0.040,-0.040,0.015,0.995,0.012,0.000,0.010,0.006,0.000,0.000,0.000,0.000,0,2,0,3,7,255,960,250,0,0,-89.396,0.743,-31.379
EX0521-092111,16,C19,prep,1806,1806,0,839009.091,0.686,-0.676,0.195,0.188,0,0,0,0,0,0,0,0,0,0.000,0,0,0.060,0.006,-0.020,-0.040,-0.040,0.015,0.996,0.012,-0.002,-0.006,0.012,0.000,0.000,0.000,0.000,0,2,0,3,7,255,960,250,0,0,-89.396,0.743,-31.379
EX0521-092111,16,C19,prep,1806,1806,0,839014.092,0.686,-0.676,0.195,0.188,0,0,0,0,0,0,0,0,0,0.000,0,0,0.069,0.006,0.040,-0.040,-0.040,0.013,0.995,0.011,-0.002,-0.006,0.012,0.000,0.000,0.000,0.000,0,2,0,3,7,255,960,250,0,0,-89.396,0.743,-31.379
EX0521-092111,16,C19,prep,1806,1806,0,839019.091,0.686,-0.676,0.195,0.188,0,0,0,0,0,0,0,0,0,0.000,0,0,0.060,0.003,-0.020,-0.040,-0.040,0.014,0.994,0.011,-0.002,0.002,0.006,0.000,0.000,0.000,0.000,0,2,0,3,7,255,960,250,0,0,-89.396,0.743,-31.379
EX0521-092111,16,C19,prep,1806,1806,0,839024.092,0.686,-0.676,0.195,0.188,0,0,0,0,0,0,0,0,0,0.000,0,0,0.092,0.002,-0.080,-0.040,0.020,0.016,0.994,0.011,0.000,0.002,0.002,0.000,0.000,0.000,0.000,0,2,0,3,7,255,960,250,0,0,-89.396,0.743,-31.379
EX0521-092111,16,C19,prep,1855,1855,0,839029.091,0.686,-0.676,0.195,0.188,0,0,0,0,0,0,0,0,0,0.000,0,0,0.060,0.002,0.040,0.020,-0.040,0.014,0.994,0.012,0.000,-0.002,0.002,0.000,0.000,0.000,0.000,0,2,0,3,7,255,960,250,0,0,-89.396,0.743,-31.379
EX0521-092111,16,C19,prep,1855,1855,0,839034.092,0.686,-0.676,0.195,0.188,0,0,0,0,0,0,0,0,0,0.000,0,0,0.049,0.010,-0.020,0.020,-0.040,0.015,0.994,0.011,0.010,-0.002,0.002,0.000,0.000,0.000,0.000,0,2,0,3,7,255,960,250,0,0,-89.396,0.743,-31.379
EX0521-092111,16,C19,prep,1855,1855,0,839039.091,0.686,-0.676,0.195,0.188,0,0,0,0,0,0,0,0,0,0.000,0,0,0.049,0.004,-0.020,-0.040,0.020,0.015,0.994,0.011,0.004,-0.002,-0.004,0.000,0.000,0.000,0.000,0,2,0,3,7,255,960,250,0,0,-89.396,0.743,-31.379
EX0521-092111,16,C19,prep,1855,1855,0,839044.092,0.686,-0.676,0.195,0.188,0,0,0,0,0,0,0,0,0,0.000,0,0,0.049,0.004,-0.020,-0.040,0.020,0.014,0.995,0.012,0.004,-0.002,0.002,0.000,0.000,0.000,0.000,0,2,0,3,7,255,960,250,0,0,-89.396,0.743,-31.379
EX0521-092111,16,C19,prep,1855,1855,0,839049.092,0.686,-0.676,0.195,0.188,0,0,0,0,0,0,0,0,0,0.000,0,0,0.092,0.004,-0.080,0.020,-0.040,0.015,0.994,0.011,0.004,-0.002,-0.004,0.000,0.000,0.000,0.000,0,2,0,3,7,255,960,250,0,0,-89.396,0.743,-31.379
EX0521-092111,16,C19,prep,1855,1855,0,839054.093,0.686,-0.676,0.195,0.188,0,0,0,0,0,0,0,0,0,0.000,0,0,0.110,0.004,-0.020,-0.100,-0.040,0.014,0.994,0.010,0.004,0.002,0.002,0.000,0.000,0.000,0.000,0,2,0,3,7,255,960,250,0,0,-89.397,0.743,-31.379
EX0521-092111,16,C19,prep,1855,1855,0,839059.092,0.686,-0.676,0.195,0.188,0,0,0,0,0,0,0,0,0,0.000,0,0,0.069,0.009,0.040,-0.040,-0.040,0.014,0.993,0.011,0.004,0.008,-0.004,0.000,0.000,0.000,0.000,0,2,0,3,7,255,960,250,0,0,-89.397,0.743,-31.379
EX0521-092111,16,C19,prep,1855,1855,0,839064.092,0.686,-0.676,0.195,0.188,0,0,0,0,0,0,0,0,0,0.000,0,0,0.069,0.008,0.040,-0.040,-0.040,0.014,0.995,0.011,0.000,0.008,0.002,0.000,0.000,0.000,0.000,0,2,0,3,7,255,960,250,0,0,-89.397,0.743,-31.379
EX0521-092111,16,C19,prep,1870,1870,0,839069.092,0.686,-0.676,0.195,0.188,0,0,0,0,0,0,0,0,0,0.000,0,0,0.115,0.002,0.100,-0.040,-0.040,0.015,0.993,0.011,0.000,0.002,-0.008,0.000,0.000,0.000,0.000,0,2,0,3,7,255,960,250,0,0,-89.397,0.743,-31.379
EX0521-092111,16,C19,prep,1870,1870,0,839074.093,0.686,-0.676,0.195,0.188,0,0,0,0,0,0,0,0,0,0.000,0,0,0.110,0.003,-0.020,-0.100,-0.040,0.014,0.995,0.011,0.002,0.002,0.006,0.000,0.000,0.000,0.000,0,2,0,3,7,255,960,250,0,0,-89.397,0.744,-31.379
EX0521-092111,16,C19,prep,1870,1870,0,839079.092,0.686,-0.676,0.195,0.188,0,0,0,0,0,0,0,0,0,0.000,0,0,0.098,0.002,-0.080,-0.040,-0.040,0.014,0.994,0.011,0.002,0.000,-0.004,0.000,0.000,0.000,0.000,0,2,0,3,7,255,960,250,0,0,-89.397,0.744,-31.379
EX0521-092111,16,C19,prep,1870,1870,0,839084.092,0.686,-0.676,0.195,0.188,0,0,0,0,0,0,0,0,0,0.000,0,0,0.049,0.006,-0.020,-0.040,0.020,0.015,0.993,0.010,0.002,0.006,-0.004,0.000,0.000,0.000,0.000,0,2,0,3,7,255,960,250,0,0,-89.397,0.744,-31.379
EX0521-092111,16,C19,prep,1893,1893,0,839089.092,0.686,-0.676,0.195,0.188,0,0,0,0,0,0,0,0,0,0.000,0,0,0.060,0.000,-0.020,-0.040,-0.040,0.014,0.996,0.012,0.000,0.000,-0.004,0.000,0.000,0.000,0.000,0,2,0,3,7,255,960,250,0,0,-89.397,0.744,-31.379
EX0521-092111,16,C19,prep,1893,1893,0,839094.091,0.686,-0.676,0.195,0.188,0,0,0,0,0,0,0,0,0,0.000,0,0,0.069,0.004,0.040,-0.040,-0.040,0.014,0.993,0.012,-0.004,-0.002,-0.008,0.000,0.000,0.000,0.000,0,2,0,3,7,255,960,250,0,0,-89.397,0.744,-31.379
EX0521-092111,16,C19,prep,1893,1893,0,839099.092,0.686,-0.676,0.195,0.188,0,0,0,0,0,0,0,0,0,0.000,0,0,0.049,0.004,-0.020,-0.040,0.020,0.014,0.994,0.011,-0.004,-0.002,-0.004,0.000,0.000,0.000,0.000,0,2,0,3,7,255,960,250,0,0,-89.397,0.744,-31.379
EX0521-092111,16,C19,prep,1893,1893,0,839104.091,0.686,-0.676,0.195,0.188,0,0,0,0,0,0,0,0,0,0.000,0,0,0.060,0.004,-0.020,-0.040,-0.040,0.016,0.994,0.011,0.000,-0.004,-0.004,0.000,0.000,0.000,0.000,0,2,0,3,7,255,960,250,0,0,-89.397,0.744,-31.379
EX0521-092111,16,C19,prep,1894,1894,0,839109.092,0.686,-0.676,0.195,0.188,0,0,0,0,0,0,0,0,0,0.000,0,0,0.060,0.002,-0.020,-0.040,-0.040,0.014,0.994,0.011,0.002,0.000,0.002,0.000,0.000,0.000,0.000,0,2,0,3,7,255,960,250,0,0,-89.397,0.744,-31.379
EX0521-092111,16,C19,prep,1894,1894,0,839114.091,0.686,-0.676,0.195,0.188,0,0,0,0,0,0,0,0,0,0.000,0,0,0.060,0.002,-0.020,-0.040,-0.040,0.014,0.993,0.011,0.002,0.000,0.002,0.000,0.000,0.000,0.000,0,2,0,3,7,255,960,250,0,0,-89.397,0.744,-31.379
EX0521-092111,16,C19,prep,1926,1926,0,839119.092,0.686,-0.676,0.195,0.188,0,0,0,0,0,0,0,0,0,0.000,0,0,0.049,0.000,-0.020,-0.040,0.020,0.015,0.993,0.012,0.000,0.000,-0.008,0.000,0.000,0.000,0.000,0,2,0,3,7,255,960,250,0,0,-89.397,0.744,-31.379
EX0521-092111,16,C19,prep,1926,1926,0,839124.091,0.686,-0.676,0.195,0.188,0,0,0,0,0,0,0,0,0,0.000,0,0,0.060,0.006,-0.020,-0.040,-0.040,0.015,0.994,0.012,0.000,-0.006,-0.008,0.000,0.000,0.000,0.000,0,2,0,3,7,255,960,250,0,0,-89.397,0.744,-31.379
EX0521-092111,16,C19,prep,1959,1959,0,839129.092,0.686,-0.676,0.195,0.188,0,0,0,0,0,0,0,0,0,0.000,0,0,0.060,0.006,-0.020,-0.040,-0.040,0.015,0.993,0.011,0.000,-0.006,-0.008,0.000,0.000,0.000,0.000,0,2,0,3,7,255,960,250,0,0,-89.397,0.744,-31.379
EX0521-092111,16,C19,prep,1959,1959,0,839134.091,0.686,-0.676,0.195,0.188,0,0,0,0,0,0,0,0,0,0.000,0,0,0.069,0.002,0.040,-0.040,-0.040,0.014,0.995,0.011,0.000,0.002,0.002,0.000,0.000,0.000,0.000,0,2,0,3,7,255,960,250,0,0,-89.397,0.744,-31.379
EX0521-092111,16,C19,prep,1959,1959,0,839139.092,0.686,-0.676,0.195,0.188,0,0,0,0,0,0,0,0,0,0.000,0,0,0.110,0.002,-0.020,-0.100,-0.040,0.015,0.994,0.012,0.000,0.002,0.002,0.000,0.000,0.000,0.000,0,2,0,3,7,255,960,250,0,0,-89.397,0.744,-31.379
EX0521-092111,16,C19,prep,1959,1959,0,839144.092,0.686,-0.676,0.195,0.188,0,0,0,0,0,0,0,0,0,0.000,0,0,0.060,0.003,0.040,0.020,-0.040,0.013,0.994,0.012,-0.002,0.002,0.002,0.000,0.000,0.000,0.000,0,2,0,3,7,255,960,250,0,0,-89.397,0.744,-31.379
EX0521-092111,16,C19,prep,1959,1959,0,839149.092,0.686,-0.676,0.195,0.188,0,0,0,0,0,0,0,0,0,0.000,0,0,0.049,0.006,-0.020,-0.040,0.020,0.015,0.994,0.012,-0.002,-0.006,0.002,0.000,0.000,0.000,0.000,0,2,0,3,7,255,960,250,0,0,-89.397,0.744,-31.379
EX0521-092111,16,C19,prep,1959,1959,0,839154.093,0.686,-0.676,0.195,0.188,0,0,0,0,0,0,0,0,0,0.000,0,0,0.060,0.003,-0.020,-0.040,-0.040,0.015,0.994,0.011,-0.002,-0.002,0.002,0.000,0.000,0.000,0.000,0,2,0,3,7,255,960,250,0,0,-89.397,0.744,-31.379
EX0521-092111,16,C19,prep,1966,1966,0,839159.092,0.686,-0.676,0.195,0.188,0,0,0,0,0,0,0,0,0,0.000,0,0,0.060,0.003,-0.020,-0.040,-0.040,0.016,0.994,0.010,0.002,-0.002,0.002,0.000,0.000,0.000,0.000,0,2,0,3,7,255,960,250,0,0,-89.397,0.744,-31.379
EX0521-092111,16,C19,prep,1966,1966,0,839164.093,0.686,-0.676,0.195,0.188,0,0,0,0,0,0,0,0,0,0.000,0,0,0.060,0.003,0.040,-0.040,0.020,0.015,0.996,0.012,0.002,-0.002,0.002,0.000,0.000,0.000,0.000,0,2,0,3,7,255,960,250,0,0,-89.397,0.744,-31.379
EX0521-092111,16,C19,prep,1966,1966,0,839169.092,0.686,-0.676,0.195,0.188,0,0,0,0,0,0,0,0,0,0.000,0,0,0.060,0.002,0.040,-0.040,0.020,0.014,0.995,0.011,0.000,0.002,0.006,0.000,0.000,0.000,0.000,0,2,0,3,7,255,960,250,0,0,-89.397,0.744,-31.379
EX0521-092111,16,C19,prep,1966,1966,0,839174.091,0.686,-0.676,0.195,0.188,0,0,0,0,0,0,0,0,0,0.000,0,0,0.110,0.004,-0.020,-0.040,-0.100,0.014,0.995,0.012,-0.004,-0.002,0.006,0.000,0.000,0.000,0.000,0,2,0,3,7,255,960,250,0,0,-89.397,0.744,-31.379
EX0521-092111,16,C19,prep,1966,1966,0,839179.092,0.686,-0.676,0.195,0.188,0,0,0,0,0,0,0,0,0,0.000,0,0,0.060,0.004,-0.020,-0.040,-0.040,0.015,0.995,0.012,-0.004,-0.002,0.006,0.000,0.000,0.000,0.000,0,2,0,3,7,255,960,250,0,0,-89.397,0.744,-31.379
EX0521-092111,16,C19,prep,1966,1966,0,839184.092,0.686,-0.676,0.195,0.188,0,0,0,0,0,0,0,0,0,0.000,0,0,0.110,0.004,0.100,0.020,-0.040,0.015,0.995,0.011,0.004,-0.002,0.006,0.000,0.000,0.000,0.000,0,2,0,3,7,255,960,250,0,0,-89.397,0.744,-31.379
EX0521-092111,16,C19,prep,1997,1997,0,839189.092,0.686,-0.676,0.195,0.188,0,0,0,0,0,0,0,0,0,0.000,0,0,0.060,0.007,-0.020,-0.040,-0.040,0.014,0.994,0.012,0.004,-0.006,0.006,0.000,0.000,0.000,0.000,0,2,0,3,7,255,960,250,0,0,-89.397,0.744,-31.379
EX0521-092111,16,C19,prep,1997,1997,0,839194.092,0.686,-0.676,0.195,0.188,0,0,0,0,0,0,0,0,0,0.000,0,0,0.049,0.007,-0.020,0.020,-0.040,0.014,0.993,0.012,-0.006,-0.004,0.002,0.000,0.000,0.000,0.000,0,2,0,3,7,255,960,250,0,0,-89.397,0.744,-31.379
EX0521-092111,16,C19,prep,1998,1998,0,839199.091,0.686,-0.676,0.195,0.188,0,0,0,0,0,0,0,0,0,0.000,0,0,0.092,0.011,-0.080,-0.040,0.020,0.014,0.994,0.012,-0.010,-0.004,0.002,0.000,0.000,0.000,0.000,0,2,0,3,7,255,960,250,0,0,-89.397,0.744,-31.379
EX0521-092111,16,C19,prep,1998,1998,0,839204.092,0.686,-0.676,0.195,0.188,0,0,0,0,0,0,0,0,0,0.000,0,0,0.069,0.011,0.040,-0.040,-0.040,0.014,0.995,0.012,-0.010,-0.004,0.002,0.000,0.000,0.000,0.000,0,2,0,3,7,255,960,250,0,0,-89.397,0.744,-31.379
EX0521-092111,16,C19,prep,1999,1999,0,839209.092,0.686,-0.676,0.195,0.188,0,0,0,0,0,0,0,0,0,0.000,0,0,0.049,0.004,-0.020,-0.040,0.020,0.014,0.994,0.012,-0.004,-0.002,0.002,0.000,0.000,0.000,0.000,0,2,0,3,7,255,960,250,0,0,-89.398,0.744,-31.379
EX0521-092111,16,C19,prep,1999,1999,0,839214.092,0.686,-0.676,0.195,0.188,0,0,0,0,0,0,0,0,0,0.000,0,0,0.060,0.004,0.040,0.020,-0.040,0.015,0.995,0.012,-0.004,-0.002,0.006,0.000,0.000,0.000,0.000,0,2,0,3,7,255,960,250,0,0,-89.398,0.744,-31.379
EX0521-092111,16,C19,prep,2029,2029,0,839219.091,0.686,-0.676,0.195,0.188,0,0,0,0,0,0,0,0,0,0.000,0,0,0.060,0.007,0.040,-0.040,0.020,0.014,0.993,0.012,-0.004,-0.006,-0.004,0.000,0.000,0.000,0.000,0,2,0,3,7,255,960,250,0,0,-89.398,0.744,-31.379
EX0521-092111,16,C19,prep,2029,2029,0,839224.092,0.686,-0.676,0.195,0.188,0,0,0,0,0,0,0,0,0,0.000,0,0,0.110,0.008,-0.020,-0.100,-0.040,0.014,0.993,0.012,-0.006,-0.006,-0.008,0.000,0.000,0.000,0.000,0,2,0,3,7,255,960,250,0,0,-89.398,0.744,-31.379
EX0521-092111,16,C19,prep,2029,2029,0,839229.091,0.686,-0.676,0.195,0.188,0,0,0,0,0,0,0,0,0,0.000,0,0,0.069,0.008,0.040,-0.040,-0.040,0.015,0.995,0.011,-0.006,-0.006,-0.008,0.000,0.000,0.000,0.000,0,2,0,3,7,255,960,250,0,0,-89.398,0.744,-31.379
EX0521-092111,16,C19,prep,2029,2029,0,839234.092,0.686,-0.676,0.195,0.188,0,0,0,0,0,0,0,0,0,0.000,0,0,0.069,0.004,0.040,-0.040,-0.040,0.014,0.994,0.011,-0.004,0.000,0.002,0.000,0.000,0.000,0.000,0,2,0,3,7,255,960,250,0,0,-89.398,0.744,-31.379
EX0521-092111,16,C19,prep,2046,2046,0,839239.091,0.686,-0.676,0.195,0.188,0,0,0,0,0,0,0,0,0,0.000,0,0,0.060,0.006,-0.020,-0.040,-0.040,0.014,0.995,0.010,0.004,0.004,0.006,0.000,0.000,0.000,0.000,0,2,0,3,7,255,960,250,0,0,-89.398,0.744,-31.379
EX0521-092111,16,C19,prep,2046,2046,0,839244.092,0.686,-0.676,0.195,0.188,0,0,0,0,0,0,0,0,0,0.000,0,0,0.060,0.011,0.040,-0.040,0.020,0.014,0.993,0.010,0.004,0.010,0.002,0.000,0.000,0.000,0.000,0,2,0,3,7,255,960,250,0,0,-89.398,0.744,-31.379
EX0521-092111,16,C19,prep,2046,2046,0,839249.091,0.686,-0.676,0.195,0.188,0,0,0,0,0,0,0,0,0,0.000,0,0,0.069,0.011,0.040,-0.040,-0.040,0.014,0.994,0.012,0.004,0.010,0.002,0.000,0.000,0.000,0.000,0,2,0,3,7,255,960,250,0,0,-89.398,0.744,-31.379
EX0521-092111,16,C19,prep,2046,2046,0,839254.093,0.686,-0.676,0.195,0.188,0,0,0,0,0,0,0,0,0,0.000,0,0,0.069,0.004,0.040,-0.040,-0.040,0.015,0.994,0.011,0.004,-0.002,-0.004,0.000,0.000,0.000,0.000,0,2,0,3,7,255,960,250,0,0,-89.398,0.744,-31.379
EX0521-092111,16,C19,prep,2046,2046,0,839259.092,0.686,-0.676,0.195,0.188,0,0,0,0,0,0,0,0,0,0.000,0,0,0.060,0.002,0.040,0.020,-0.040,0.014,0.994,0.011,0.000,-0.002,-0.004,0.000,0.000,0.000,0.000,0,2,0,3,7,255,960,250,0,0,-89.398,0.744,-31.379
EX0521-092111,16,C19,prep,2046,2046,0,839264.092,0.686,-0.676,0.195,0.188,0,0,0,0,0,0,0,0,0,0.000,0,0,0.049,0.003,-0.020,-0.040,0.020,0.014,0.993,0.011,0.002,0.002,-0.004,0.000,0.000,0.000,0.000,0,2,0,3,7,255,960,250,0,0,-89.398,0.744,-31.379
EX0521-092111,16,C19,prep,2062,2062,0,839269.091,0.686,-0.676,0.195,0.188,0,0,0,0,0,0,0,0,0,0.000,0,0,0.060,0.002,-0.020,-0.040,-0.040,0.014,0.994,0.012,0.000,0.002,-0.004,0.000,0.000,0.000,0.000,0,2,0,3,7,255,960,250,0,0,-89.398,0.744,-31.379
EX0521-092111,16,C19,prep,2062,2062,0,839274.092,0.686,-0.676,0.195,0.188,0,0,0,0,0,0,0,0,0,0.000,0,0,0.060,0.006,-0.020,-0.040,-0.040,0.015,0.994,0.012,0.002,-0.006,-0.004,0.000,0.000,0.000,0.000,0,2,0,3,7,255,960,250,0,0,-89.398,0.744,-31.379
EX0521-092111,16,C19,prep,2078,2078,0,839279.091,0.686,-0.676,0.195,0.188,0,0,0,0,0,0,0,0,0,0.000,0,0,0.060,0.008,-0.020,-0.040,-0.040,0.014,0.994,0.012,-0.006,-0.006,-0.004,0.000,0.000,0.000,0.000,0,2,0,3,7,255,960,250,0,0,-89.398,0.744,-31.379
EX0521-092111,16,C19,prep,2078,2078,0,839284.092,0.686,-0.676,0.195,0.188,0,0,0,0,0,0,0,0,0,0.000,0,0,0.060,0.006,-0.020,-0.040,-0.040,0.014,0.994,0.010,0.000,-0.006,0.002,0.000,0.000,0.000,0.000,0,2,0,3,7,255,960,250,0,0,-89.398,0.744,-31.379
EX0521-092111,16,C19,prep,2078,2078,0,839289.091,0.686,-0.676,0.195,0.188,0,0,0,0,0,0,0,0,0,0.000,0,0,0.115,0.002,0.040,-0.040,-0.100,0.015,0.994,0.011,0.000,0.002,-0.004,0.000,0.000,0.000,0.000,0,2,0,3,7,255,960,250,0,0,-89.398,0.744,-31.379
EX0521-092111,16,C19,prep,2078,2078,0,839294.092,0.686,-0.676,0.195,0.188,0,0,0,0,0,0,0,0,0,0.000,0,0,0.035,0.002,-0.020,0.020,0.020,0.014,0.993,0.011,0.000,0.002,-0.004,0.000,0.000,0.000,0.000,0,2,0,3,7,255,960,250,0,0,-89.398,0.744,-31.379
EX0521-092111,16,C19,prep,2094,2094,0,839299.091,0.686,-0.676,0.195,0.188,0,0,0,0,0,0,0,0,0,0.000,0,0,0.060,0.002,-0.020,-0.040,-0.040,0.014,0.994,0.010,0.000,0.002,-0.004,0.000,0.000,0.000,0.000,0,2,0,3,7,255,960,250,0,0,-89.398,0.744,-31.379
EX0521-092111,16,C19,prep,2094,2094,0,839304.092,0.686,-0.676,0.195,0.188,0,0,0,0,0,0,0,0,0,0.000,0,0,0.110,0.002,-0.020,-0.100,-0.040,0.016,0.993,0.011,0.000,0.002,-0.008,0.000,0.000,0.000,0.000,0,2,0,3,7,255,960,250,0,0,-89.398,0.744,-31.379
EX0521-092111,16,C19,prep,2110,2110,0,839309.091,0.686,-0.676,0.195,0.188,0,0,0,0,0,0,0,0,0,0.000,0,0,0.060,0.004,-0.020,-0.040,-0.040,0.015,0.994,0.012,0.000,-0.004,-0.002,0.000,0.000,0.000,0.000,0,2,0,3,7,255,960,250,0,0,-89.398,0.744,-31.379
EX0521-092111,16,C19,prep,2110,2110,0,839314.092,0.686,-0.676,0.195,0.188,0,0,0,0,0,0,0,0,0,0.000,0,0,0.060,0.006,-0.020,-0.040,-0.040,0.014,0.994,0.012,-0.002,-0.006,-0.002,0.000,0.000,0.000,0.000,0,2,0,3,7,255,960,250,0,0,-89.398,0.744,-31.379
EX0521-092111,16,C19,prep,2110,2110,0,839319.091,0.686,-0.676,0.195,0.188,0,0,0,0,0,0,0,0,0,0.000,0,0,0.060,0.006,-0.020,-0.040,-0.040,0.015,0.994,0.011,-0.002,-0.006,-0.002,0.000,0.000,0.000,0.000,0,2,0,3,7,255,960,250,0,0,-89.398,0.744,-31.379
EX0521-092111,16,C19,prep,2110,2110,0,839324.092,0.686,-0.676,0.195,0.188,0,0,0,0,0,0,0,0,0,0.000,0,0,0.060,0.004,-0.020,-0.040,-0.040,0.014,0.993,0.012,-0.004,-0.002,-0.002,0.000,0.000,0.000,0.000,0,2,0,3,7,255,960,250,0,0,-89.398,0.744,-31.379
EX0521-092111,16,C19,prep,2142,2142,0,839329.092,0.686,-0.676,0.195,0.188,0,0,0,0,0,0,0,0,0,0.000,0,0,0.060,0.002,-0.020,-0.040,-0.040,0.014,0.993,0.011,0.002,0.000,-0.008,0.000,0.000,0.000,0.000,0,2,0,3,7,255,960,250,0,0,-89.398,0.744,-31.379
EX0521-092111,16,C19,prep,2142,2142,0,839334.092,0.686,-0.676,0.195,0.188,0,0,0,0,0,0,0,0,0,0.000,0,0,0.110,0.006,-0.020,-0.100,-0.040,0.014,0.994,0.011,0.002,0.006,-0.008,0.000,0.000,0.000,0.000,0,2,0,3,7,255,960,250,0,0,-89.398,0.744,-31.379
EX0521-092111,16,C19,prep,2142,2142,0,839339.092,0.686,-0.676,0.195,0.188,0,0,0,0,0,0,0,0,0,0.000,0,0,0.035,0.006,-0.020,0.020,0.020,0.013,0.995,0.011,0.002,0.006,-0.002,0.000,0.000,0.000,0.000,0,2,0,3,7,255,960,250,0,0,-89.398,0.744,-31.380
EX0521-092111,16,C19,prep,2142,2142,0,839344.092,0.686,-0.676,0.195,0.188,0,0,0,0,0,0,0,0,0,0.000,0,0,0.049,0.008,-0.020,-0.040,0.020,0.014,0.994,0.011,-0.006,0.006,0.002,0.000,0.000,0.000,0.000,0,2,0,3,7,255,960,250,0,0,-89.398,0.744,-31.380
EX0521-092111,16,C19,prep,2142,2142,0,839349.092,0.686,-0.676,0.195,0.188,0,0,0,0,0,0,0,0,0,0.000,0,0,0.069,0.007,0.040,-0.040,-0.040,0.014,0.995,0.011,-0.006,0.004,0.006,0.000,0.000,0.000,0.000,0,2,0,3,7,255,960,250,0,0,-89.398,0.744,-31.380
EX0521-092111,16,C19,prep,2142,2142,0,839354.093,0.686,-0.676,0.195,0.188,0,0,0,0,0,0,0,0,0,0.000,0,0,0.115,0.002,0.040,-0.100,-0.040,0.015,0.994,0.012,0.000,0.002,0.002,0.000,0.000,0.000,0.000,0,2,0,3,7,255,960,250,0,0,-89.398,0.744,-31.380
EX0521-092111,16,C19,prep,2158,2158,0,839359.092,0.686,-0.676,0.195,0.188,0,0,0,0,0,0,0,0,0,0.000,0,0,0.060,0.006,-0.020,-0.040,-0.040,0.015,0.993,0.012,0.000,-0.006,0.002,0.000,0.000,0.000,0.000,0,2,0,3,7,255,960,250,0,0,-89.398,0.744,-31.380
EX0521-092111,16,C19,prep,2158,2158,0,839364.093,0.686,-0.676,0.195,0.188,0,0,0,0,0,0,0,0,0,0.000,0,0,0.060,0.006,-0.020,-0.040,-0.040,0.015,0.994,0.011,0.002,-0.006,0.002,0.000,0.000,0.000,0.000,0,2,0,3,7,255,960,250,0,0,-89.398,0.744,-31.380
EX0521-092111,16,C19,prep,2158,2158,0,839369.092,0.686,-0.676,0.195,0.188,0,0,0,0,0,0,0,0,0,0.000,0,0,0.060,0.010,-0.020,-0.040,-0.040,0.015,0.995,0.012,0.002,-0.010,0.002,0.000,0.000,0.000,0.000,0,2,0,3,7,255,960,250,0,0,-89.399,0.744,-31.380
EX0521-092111,16,C19,prep,2158,2158,0,839374.091,0.686,-0.676,0.195,0.188,0,0,0,0,0,0,0,0,0,0.000,0,0,0.049,0.006,-0.020,0.020,-0.040,0.014,0.994,0.012,-0.002,-0.006,0.002,0.000,0.000,0.000,0.000,0,2,0,3,7,255,960,250,0,0,-89.399,0.744,-31.380
EX0521-092111,16,C19,prep,2174,2174,0,839379.092,0.686,-0.676,0.195,0.188,0,0,0,0,0,0,0,0,0,0.000,0,0,0.060,0.008,-0.020,-0.040,-0.040,0.014,0.994,0.012,-0.006,-0.006,-0.002,0.000,0.000,0.000,0.000,0,2,0,3,7,255,960,250,0,0,-89.399,0.744,-31.380
EX0521-092111,16,C19,prep,2174,2174,0,839384.092,0.686,-0.676,0.195,0.188,0,0,0,0,0,0,0,0,0,0.000,0,0,0.060,0.008,-0.020,-0.040,-0.040,0.016,0.995,0.011,-0.006,-0.006,-0.002,0.000,0.000,0.000,0.000,0,2,0,3,7,255,960,250,0,0,-89.399,0.744,-31.380
EX0521-092111,16,C19,prep,2190,2190,0,839389.092,0.686,-0.676,0.195,0.188,0,0,0,0,0,0,0,0,0,0.000,0,0,0.060,0.004,-0.020,-0.040,-0.040,0.015,0.993,0.011,0.004,-0.002,-0.002,0.000,0.000,0.000,0.000,0,2,0,3,7,255,960,250,0,0,-89.399,0.744,-31.380
EX0521-092111,16,C19,prep,2190,2190,0,839394.091,0.686,-0.676,0.195,0.188,0,0,0,0,0,0,0,0,0,0.000,0,0,0.060,0.004,-0.020,-0.040,-0.040,0.014,0.994,0.011,0.004,0.000,0.002,0.000,0.000,0.000,0.000,0,2,0,3,7,255,960,250,0,0,-89.399,0.744,-31.380
EX0521-092111,16,C19,prep,2190,2190,0,839399.092,0.686,-0.676,0.195,0.188,0,0,0,0,0,0,0,0,0,0.000,0,0,0.049,0.003,-0.020,0.020,-0.040,0.014,0.994,0.011,-0.002,0.002,0.002,0.000,0.000,0.000,0.000,0,2,0,3,7,255,960,250,0,0,-89.399,0.744,-31.380
EX0521-092111,16,C19,prep,2190,2190,0,839404.091,0.686,-0.676,0.195,0.188,0,0,0,0,0,0,0,0,0,0.000,0,0,0.049,0.003,-0.020,0.020,-0.040,0.013,0.993,0.012,-0.002,0.002,0.002,0.000,0.000,0.000,0.000,0,2,0,3,7,255,960,250,0,0,-89.399,0.744,-31.380
EX0521-092111,16,C19,prep,2206,2206,0,839409.092,0.686,-0.676,0.195,0.188,0,0,0,0,0,0,0,0,0,0.000,0,0,0.069,0.003,0.040,-0.040,-0.040,0.015,0.994,0.012,-0.002,0.002,0.002,0.000,0.000,0.000,0.000,0,2,0,3,7,255,960,250,0,0,-89.399,0.744,-31.380
EX0521-092111,16,C19,prep,2206,2206,0,839414.091,0.686,-0.676,0.195,0.188,0,0,0,0,0,0,0,0,0,0.000,0,0,0.060,0.002,-0.020,-0.040,-0.040,0.014,0.994,0.011,0.000,0.002,-0.002,0.000,0.000,0.000,0.000,0,2,0,3,7,255,960,250,0,0,-89.399,0.744,-31.380
EX0521-092111,16,C19,prep,2224,2224,0,839419.092,0.686,-0.676,0.195,0.188,0,0,0,0,0,0,0,0,0,0.000,0,0,0.060,0.002,-0.020,-0.040,-0.040,0.014,0.995,0.012,0.000,-0.002,0.002,0.000,0.000,0.000,0.000,0,2,0,3,7,255,960,250,0,0,-89.399,0.744,-31.380
EX0521-092111,16,C19,prep,2224,2224,0,839424.091,0.686,-0.676,0.195,0.188,0,0,0,0,0,0,0,0,0,0.000,0,0,0.060,0.004,-0.020,-0.040,-0.040,0.014,0.995,0.012,-0.004,0.000,0.006,0.000,0.000,0.000,0.000,0,2,0,3,7,255,960,250,0,0,-89.399,0.744,-31.380
EX0521-092111,16,C19,prep,2239,2239,0,839429.092,0.686,-0.676,0.195,0.188,0,0,0,0,0,0,0,0,0,0.000,0,0,0.069,0.008,0.040,-0.040,-0.040,0.013,0.993,0.012,-0.008,0.000,0.006,0.000,0.000,0.000,0.000,0,2,0,3,7,255,960,250,0,0,-89.399,0.744,-31.380
EX0521-092111,16,C19,prep,2239,2239,0,839434.091,0.686,-0.676,0.195,0.188,0,0,0,0,0,0,0,0,0,0.000,0,0,0.069,0.008,0.040,-0.040,-0.040,0.014,0.994,0.011,-0.008,0.002,-0.002,0.000,0.000,0.000,0.000,0,2,0,3,7,255,960,250,0,0,-89.399,0.744,-31.380
EX0521-092111,16,C19,prep,2240,2240,0,839439.092,0.686,-0.676,0.195,0.188,0,0,0,0,0,0,0,0,0,0.000,0,0,0.069,0.004,0.040,-0.040,-0.040,0.015,0.994,0.012,-0.004,0.002,-0.002,0.000,0.000,0.000,0.000,0,2,0,3,7,255,960,250,0,0,-89.399,0.744,-31.380
EX0521-092111,16,C19,prep,2240,2240,0,839444.092,0.686,-0.676,0.195,0.188,0,0,0,0,0,0,0,0,0,0.000,0,0,0.069,0.006,0.040,-0.040,-0.040,0.013,0.993,0.011,-0.004,0.004,-0.002,0.000,0.000,0.000,0.000,0,2,0,3,7,255,960,250,0,0,-89.399,0.744,-31.380
EX0521-092111,16,C19,prep,2241,2241,0,839449.092,0.686,-0.676,0.195,0.188,0,0,0,0,0,0,0,0,0,0.000,0,0,0.110,0.011,-0.020,-0.100,-0.040,0.013,0.994,0.010,-0.004,0.010,0.002,0.000,0.000,0.000,0.000,0,2,0,3,7,255,960,250,0,0,-89.399,0.744,-31.380
EX0521-092111,16,C19,prep,2241,2241,0,839454.093,0.686,-0.676,0.195,0.188,0,0,0,0,0,0,0,0,0,0.000,0,0,0.060,0.011,-0.020,-0.040,-0.040,0.015,0.993,0.013,-0.004,0.010,-0.008,0.000,0.000,0.000,0.000,0,2,0,3,7,255,960,250,0,0,-89.399,0.744,-31.380
EX0521-092111,16,C19,prep,2263,2263,0,839459.092,0.686,-0.676,0.195,0.188,0,0,0,0,0,0,0,0,0,0.000,0,0,0.060,0.006,-0.020,-0.040,-0.040,0.014,0.995,0.012,-0.004,-0.004,0.002,0.000,0.000,0.000,0.000,0,2,0,3,7,255,960,250,0,0,-89.399,0.744,-31.380
EX0521-092111,16,C19,prep,2263,2263,0,839464.092,0.686,-0.676,0.195,0.188,0,0,0,0,0,0,0,0,0,0.000,0,0,0.147,0.011,0.040,-0.100,-0.100,0.014,0.994,0.012,-0.010,-0.004,-0.002,0.000,0.000,0.000,0.000,0,2,0,3,7,255,960,250,0,0,-89.399,0.744,-31.380
EX0521-092111,16,C19,prep,2265,2265,0,839469.092,0.686,-0.676,0.195,0.188,0,0,0,0,0,0,0,0,0,0.000,0,0,0.060,0.011,-0.020,-0.040,-0.040,0.015,0.994,0.011,-0.010,-0.004,-0.002,0.000,0.000,0.000,0.000,0,2,0,3,7,255,960,250,0,0,-89.399,0.744,-31.380
EX0521-092111,16,C19,prep,2265,2265,0,839474.092,0.686,-0.676,0.195,0.188,0,0,0,0,0,0,0,0,0,0.000,0,0,0.049,0.007,-0.020,-0.040,0.020,0.015,0.994,0.011,0.006,0.004,-0.002,0.000,0.000,0.000,0.000,0,2,0,3,7,255,960,250,0,0,-89.399,0.744,-31.380
EX0521-092111,16,C19,prep,2266,2266,0,839479.091,0.686,-0.676,0.195,0.188,0,0,0,0,0,0,0,0,0,0.000,0,0,0.092,0.007,-0.080,-0.040,0.020,0.014,0.994,0.012,0.006,0.004,-0.002,0.000,0.000,0.000,0.000,0,2,0,3,7,255,960,250,0,0,-89.399,0.744,-31.380
EX0521-092111,16,C19,prep,2266,2266,0,839484.092,0.686,-0.676,0.195,0.188,0,0,0,0,0,0,0,0,0,0.000,0,0,0.110,0.004,-0.020,-0.100,-0.040,0.015,0.994,0.011,0.004,0.000,-0.002,0.000,0.000,0.000,0.000,0,2,0,3,7,255,960,250,0,0,-89.399,0.744,-31.380
EX0521-092111,16,C19,prep,2296,2296,0,839489.092,0.686,-0.676,0.195,0.188,0,0,0,0,0,0,0,0,0,0.000,0,0,0.069,0.006,0.040,-0.040,-0.040,0.013,0.994,0.012,-0.006,0.000,-0.002,0.000,0.000,0.000,0.000,0,2,0,3,7,255,960,250,0,0,-89.399,0.744,-31.380
EX0521-092111,16,C19,prep,2296,2296,0,839494.092,0.686,-0.676,0.195,0.188,0,0,0,0,0,0,0,0,0,0.000,0,0,0.060,0.003,-0.020,-0.040,-0.040,0.014,0.994,0.011,-0.002,0.002,-0.002,0.000,0.000,0.000,0.000,0,2,0,3,7,255,960,250,0,0,-89.399,0.744,-31.380
EX0521-092111,16,C19,prep,2298,2298,0,839499.091,0.686,-0.676,0.195,0.188,0,0,0,0,0,0,0,0,0,0.000,0,0,0.069,0.003,0.040,-0.040,-0.040,0.014,0.994,0.012,-0.002,0.002,0.002,0.000,0.000,0.000,0.000,0,2,0,3,7,255,960,250,0,0,-89.399,0.744,-31.380
EX0521-092111,16,C19,prep,2298,2298,0,839504.092,0.686,-0.676,0.195,0.188,0,0,0,0,0,0,0,0,0,0.000,0,0,0.049,0.002,-0.020,-0.040,0.020,0.015,0.995,0.011,-0.002,0.000,0.002,0.000,0.000,0.000,0.000,0,2,0,3,7,255,960,250,0,0,-89.399,0.744,-31.380
EX0521-092111,16,C19,prep,2299,2299,0,839509.091,0.686,-0.676,0.195,0.188,0,0,0,0,0,0,0,0,0,0.000,0,0,0.060,0.003,-0.020,-0.040,-0.040,0.014,0.993,0.012,-0.002,-0.002,0.002,0.000,0.000,0.000,0.000,0,2,0,3,7,255,960,250,0,0,-89.399,0.744,-31.380
EX0521-092111,16,C19,prep,2299,2299,0,839514.092,0.686,-0.676,0.195,0.188,0,0,0,0,0,0,0,0,0,0.000,0,0,0.060,0.003,-0.020,-0.040,-0.040,0.014,0.994,0.012,-0.002,-0.002,0.002,0.000,0.000,0.000,0.000,0,2,0,3,7,255,960,250,0,0,-89.399,0.744,-31.380
EX0521-092111,16,C19,prep,2336,2336,0,839519.091,0.686,-0.676,0.195,0.188,0,0,0,0,0,0,0,0,0,0.000,0,0,0.035,0.003,-0.020,0.020,0.020,0.014,0.994,0.012,-0.002,-0.002,-0.002,0.000,0.000,0.000,0.000,0,2,0,3,7,255,960,250,0,0,-89.399,0.744,-31.380
EX0521-092111,16,C19,prep,2336,2336,0,839524.092,0.686,-0.676,0.195,0.188,0,0,0,0,0,0,0,0,0,0.000,0,0,0.060,0.003,-0.020,-0.040,-0.040,0.014,0.993,0.011,-0.002,-0.002,-0.002,0.000,0.000,0.000,0.000,0,2,0,3,7,255,960,250,0,0,-89.400,0.744,-31.380
EX0521-092111,16,C19,prep,2336,2336,0,839529.091,0.686,-0.676,0.195,0.188,0,0,0,0,0,0,0,0,0,0.000,0,0,0.060,0.002,-0.020,-0.040,-0.040,0.015,0.994,0.012,0.000,-0.002,-0.002,0.000,0.000,0.000,0.000,0,2,0,3,7,255,960,250,0,0,-89.400,0.744,-31.380
EX0521-092111,16,C19,prep,2336,2336,0,839534.092,0.686,-0.676,0.195,0.188,0,0,0,0,0,0,0,0,0,0.000,0,0,0.060,0.006,-0.020,-0.040,-0.040,0.015,0.994,0.012,0.002,-0.006,-0.002,0.000,0.000,0.000,0.000,0,2,0,3,7,255,960,250,0,0,-89.400,0.744,-31.380
EX0521-092111,16,C19,prep,2360,2360,0,839539.091,0.686,-0.676,0.195,0.188,0,0,0,0,0,0,0,0,0,0.000,0,0,0.060,0.006,-0.020,-0.040,-0.040,0.014,0.994,0.012,0.002,-0.006,-0.002,0.000,0.000,0.000,0.000,0,2,0,3,7,255,960,250,0,0,-89.400,0.744,-31.380
EX0521-092111,16,C19,prep,2360,2360,0,839544.092,0.686,-0.676,0.195,0.188,0,0,0,0,0,0,0,0,0,0.000,0,0,0.049,0.002,-0.020,-0.040,0.020,0.014,0.994,0.011,0.002,0.000,-0.002,0.000,0.000,0.000,0.000,0,2,0,3,7,255,960,250,0,0,-89.400,0.744,-31.380
EX0521-092111,16,C19,prep,2360,2360,0,839549.091,0.686,-0.676,0.195,0.188,0,0,0,0,0,0,0,0,0,0.000,0,0,0.049,0.006,-0.020,0.020,-0.040,0.014,0.996,0.011,-0.002,0.006,0.002,0.000,0.000,0.000,0.000,0,2,0,3,7,255,960,250,0,0,-89.400,0.744,-31.380
EX0521-092111,16,C19,prep,2360,2360,0,839554.093,0.686,-0.676,0.195,0.188,0,0,0,0,0,0,0,0,0,0.000,0,0,0.060,0.006,-0.020,-0.040,-0.040,0.015,0.994,0.011,0.002,0.006,0.002,0.000,0.000,0.000,0.000,0,2,0,3,7,255,960,250,0,0,-89.400,0.744,-31.380
EX0521-092111,16,C19,prep,2360,2360,0,839559.092,0.686,-0.676,0.195,0.188,0,0,0,0,0,0,0,0,0,0.000,0,0,0.060,0.002,-0.020,-0.040,-0.040,0.014,0.995,0.012,-0.002,0.000,0.006,0.000,0.000,0.000,0.000,0,2,0,3,7,255,960,250,0,0,-89.400,0.744,-31.380
EX0521-092111,16,C19,prep,2360,2360,0,839564.093,0.686,-0.676,0.195,0.188,0,0,0,0,0,0,0,0,0,0.000,0,0,0.060,0.002,-0.020,-0.040,-0.040,0.013,0.994,0.012,-0.002,0.000,0.002,0.000,0.000,0.000,0.000,0,2,0,3,7,255,960,250,0,0,-89.400,0.744,-31.380
EX0521-092111,16,C19,prep,2360,2360,0,839569.091,0.686,-0.676,0.195,0.188,0,0,0,0,0,0,0,0,0,0.000,0,0,0.060,0.004,-0.020,-0.040,-0.040,0.014,0.995,0.011,-0.004,0.002,0.006,0.000,0.000,0.000,0.000,0,2,0,3,7,255,960,250,0,0,-89.400,0.744,-31.380
EX0521-092111,16,C19,prep,2360,2360,0,839574.092,0.686,-0.676,0.195,0.188,0,0,0,0,0,0,0,0,0,0.000,0,0,0.060,0.006,0.040,0.020,-0.040,0.015,0.994,0.010,-0.004,0.004,-0.002,0.000,0.000,0.000,0.000,0,2,0,3,7,255,960,250,0,0,-89.400,0.744,-31.380
EX0521-092111,16,C19,prep,2366,2366,0,839579.091,0.686,-0.676,0.195,0.188,0,0,0,0,0,0,0,0,0,0.000,0,0,0.060,0.011,-0.020,-0.040,-0.040,0.015,0.995,0.010,0.008,0.008,0.006,0.000,0.000,0.000,0.000,0,2,0,3,7,255,960,250,0,0,-89.400,0.744,-31.380
EX0521-092111,16,C19,prep,2366,2366,0,839584.092,0.686,-0.676,0.195,0.188,0,0,0,0,0,0,0,0,0,0.000,0,0,0.098,0.011,-0.080,-0.040,-0.040,0.013,0.993,0.011,0.008,0.008,-0.002,0.000,0.000,0.000,0.000,0,2,0,3,7,255,960,250,0,0,-89.400,0.744,-31.380
EX0521-092111,16,C19,prep,2393,2393,0,839589.091,0.686,-0.676,0.195,0.188,0,0,0,0,0,0,0,0,0,0.000,0,0,0.060,0.008,0.040,-0.040,0.020,0.014,0.995,0.011,-0.002,0.008,0.006,0.000,0.000,0.000,0.000,0,2,0,3,7,255,960,250,0,0,-89.400,0.744,-31.380
EX0521-092111,16,C19,prep,2393,2393,0,839594.092,0.686,-0.676,0.195,0.188,0,0,0,0,0,0,0,0,0,0.000,0,0,0.069,0.006,0.040,-0.040,-0.040,0.015,0.994,0.012,-0.002,0.006,-0.002,0.000,0.000,0.000,0.000,0,2,0,3,7,255,960,250,0,0,-89.400,0.744,-31.380
EX0521-092111,16,C19,prep,2393,2393,0,839599.091,0.686,-0.676,0.195,0.188,0,0,0,0,0,0,0,0,0,0.000,0,0,0.060,0.002,-0.020,-0.040,-0.040,0.014,0.996,0.012,-0.002,0.000,0.006,0.000,0.000,0.000,0.000,0,2,0,3,7,255,960,250,0,0,-89.400,0.744,-31.380
EX0521-092111,16,C19,prep,2393,2393,0,839604.092,0.686,-0.676,0.195,0.188,0,0,0,0,0,0,0,0,0,0.000,0,0,0.060,0.006,-0.020,-0.040,-0.040,0.016,0.994,0.012,0.002,-0.006,0.002,0.000,0.000,0.000,0.000,0,2,0,3,7,255,960,250,0,0,-89.400,0.744,-31.380
EX0521-092111,16,C19,prep,2399,2399,0,839609.092,0.686,-0.676,0.195,0.188,0,0,0,0,0,0,0,0,0,0.000,0,0,0.049,0.010,-0.020,0.020,-0.040,0.015,0.993,0.012,0.006,-0.008,0.002,0.000,0.000,0.000,0.000,0,2,0,3,7,255,960,250,0,0,-89.400,0.744,-31.380
EX0521-092111,16,C19,prep,2399,2399,0,839614.092,0.686,-0.676,0.195,0.188,0,0,0,0,0,0,0,0,0,0.000,0,0,0.115,0.010,0.040,-0.040,-0.100,0.014,0.994,0.012,0.006,-0.008,0.002,0.000,0.000,0.000,0.000,0,2,0,3,7,255,960,250,0,0,-89.400,0.744,-31.380
EX0521-092111,16,C19,prep,2427,2427,0,839619.092,0.686,-0.676,0.195,0.188,0,0,0,0,0,0,0,0,0,0.000,0,0,0.049,0.003,-0.020,0.020,-0.040,0.014,0.995,0.011,-0.002,-0.002,0.002,0.000,0.000,0.000,0.000,0,2,0,3,7,255,960,250,0,0,-89.400,0.744,-31.380
EX0521-092111,16,C19,prep,2427,2427,0,839624.091,0.686,-0.676,0.195,0.188,0,0,0,0,0,0,0,0,0,0.000,0,0,0.060,0.006,-0.020,-0.040,-0.040,0.013,0.994,0.010,-0.004,0.004,0.002,0.000,0.000,0.000,0.000,0,2,0,3,7,255,960,250,0,0,-89.400,0.744,-31.380
EX0521-092111,16,C19,prep,2459,2459,0,839629.092,0.686,-0.676,0.195,0.188,0,0,0,0,0,0,0,0,0,0.000,0,0,0.110,0.006,0.040,-0.100,0.020,0.014,0.994,0.012,-0.004,0.004,0.002,0.000,0.000,0.000,0.000,0,2,0,3,7,255,960,250,0,0,-89.400,0.744,-31.380
EX0521-092111,16,C19,prep,2459,2459,0,839634.091,0.686,-0.676,0.195,0.188,0,0,0,0,0,0,0,0,0,0.000,0,0,0.049,0.003,-0.020,-0.040,0.020,0.014,0.994,0.011,-0.002,0.002,0.002,0.000,0.000,0.000,0.000,0,2,0,3,7,255,960,250,0,0,-89.400,0.744,-31.380
EX0521-092111,16,C19,prep,2459,2459,0,839639.092,0.686,-0.676,0.195,0.188,0,0,0,0,0,0,0,0,0,0.000,0,0,0.098,0.002,-0.080,-0.040,-0.040,0.016,0.994,0.011,0.000,-0.002,0.002,0.000,0.000,0.000,0.000,0,2,0,3,7,255,960,250,0,0,-89.400,0.744,-31.380
EX0521-092111,16,C19,prep,2459,2459,0,839644.092,0.686,-0.676,0.195,0.188,0,0,0,0,0,0,0,0,0,0.000,0,0,0.049,0.010,-0.020,0.020,-0.040,0.015,0.994,0.011,0.010,0.000,-0.002,0.000,0.000,0.000,0.000,0,2,0,3,7,255,960,250,0,0,-89.400,0.744,-31.380
EX0521-092111,16,C19,prep,2459,2459,0,839649.092,0.686,-0.676,0.195,0.188,0,0,0,0,0,0,0,0,0,0.000,0,0,0.060,0.010,0.040,-0.040,0.020,0.014,0.994,0.011,0.010,0.000,-0.002,0.000,0.000,0.000,0.000,0,2,0,3,7,255,960,250,0,0,-89.400,0.744,-31.380
EX0521-092111,16,C19,prep,2459,2459,0,839654.093,0.686,-0.676,0.195,0.188,0,0,0,0,0,0,0,0,0,0.000,0,0,0.049,0.004,-0.020,-0.040,0.020,0.015,0.994,0.011,0.004,0.000,-0.002,0.000,0.000,0.000,0.000,0,2,0,3,7,255,960,250,0,0,-89.400,0.744,-31.380
EX0521-092111,16,C19,prep,2478,2478,0,839659.092,0.686,-0.676,0.195,0.188,0,0,0,0,0,0,0,0,0,0.000,0,0,0.060,0.003,-0.020,-0.040,-0.040,0.015,0.994,0.012,0.002,-0.002,0.002,0.000,0.000,0.000,0.000,0,2,0,3,7,255,960,250,0,0,-89.400,0.744,-31.380
EX0521-092111,16,C19,prep,2478,2478,0,839664.091,0.686,-0.676,0.195,0.188,0,0,0,0,0,0,0,0,0,0.000,0,0,0.098,0.007,-0.080,-0.040,-0.040,0.015,0.994,0.012,0.004,-0.006,0.002,0.000,0.000,0.000,0.000,0,2,0,3,7,255,960,250,0,0,-89.400,0.744,-31.380
EX0521-092111,16,C19,prep,2478,2478,0,839669.092,0.686,-0.676,0.195,0.188,0,0,0,0,0,0,0,0,0,0.000,0,0,0.049,0.006,-0.020,-0.040,0.020,0.014,0.995,0.011,0.000,-0.006,0.002,0.000,0.000,0.000,0.000,0,2,0,3,7,255,960,250,0,0,-89.400,0.744,-31.380
EX0521-092111,16,C19,prep,2478,2478,0,839674.091,0.686,-0.676,0.195,0.188,0,0,0,0,0,0,0,0,0,0.000,0,0,0.060,0.002,-0.020,-0.040,-0.040,0.013,0.994,0.011,0.000,0.002,0.002,0.000,0.000,0.000,0.000,0,2,0,3,7,255,960,250,0,0,-89.400,0.744,-31.380
