experiment_id,condition_order_index,condition_id,condition_phase,condition_phase_elapsed_ms,condition_elapsed_ms,is_stimulation_on,t_ms,R_q0,R_q1,R_q2,R_q3,R_heel1,R_mid1,R_fore1,R_heel2,R_fore3,R_mid2,R_fore4,R_fore2,R_cadence,R_speed,R_steps,R_zupt,R_gyroNorm,R_accH,R_gyro_x,R_gyro_y,R_gyro_z,R_acc_x,R_acc_y,R_acc_z,R_nav_ax,R_nav_ay,R_nav_az,R_stepVel,R_stepVelj,R_stepDispRaw,R_stepDispZUPT,R_gaitEvent,R_motorMode,R_motorActive,R_motorAlignment,R_motorRegionMask,R_motorAmplitude,R_motorIntervalMs,R_motorDurationMs,R_motorPhaseMs,R_motorCycleMs,R_roll,R_pitch,R_yaw
EX0521-092111,9,C05,prep,55,55,0,595759.093,0.685,-0.677,0.194,0.188,0,0,0,0,0,0,0,0,0,0.000,0,0,0.202,0.022,-0.140,0.140,-0.040,0.014,0.994,0.012,-0.002,0.022,-0.008,0.000,0.000,0.000,0.000,0,2,0,1,7,255,1200,300,0,0,-89.509,0.634,-31.320
EX0521-092111,9,C05,prep,55,55,0,595764.093,0.685,-0.677,0.194,0.188,0,0,0,0,0,0,0,0,0,0.000,0,0,0.118,0.008,-0.020,0.060,-0.100,0.015,0.995,0.011,0.008,-0.002,0.002,0.000,0.000,0.000,0.000,0,2,0,1,7,255,1200,300,0,0,-89.509,0.634,-31.320
EX0521-092111,9,C05,prep,55,55,0,595769.092,0.685,-0.677,0.194,0.188,0,0,0,0,0,0,0,0,0,0.000,0,0,0.045,0.004,-0.020,0.000,-0.040,0.014,0.995,0.010,0.004,-0.002,0.006,0.000,0.000,0.000,0.000,0,2,0,1,7,255,1200,300,0,0,-89.509,0.634,-31.320
EX0521-092111,9,C05,prep,55,55,0,595774.093,0.685,-0.677,0.194,0.188,0,0,0,0,0,0,0,0,0,0.000,0,0,0.108,0.018,0.100,0.000,-0.040,0.013,0.994,0.010,0.004,0.018,0.006,0.000,0.000,0.000,0.000,0,2,0,1,7,255,1200,300,0,0,-89.509,0.634,-31.320
EX0521-092111,9,C05,prep,56,56,0,595779.091,0.685,-0.677,0.194,0.188,0,0,0,0,0,0,0,0,0,0.000,0,0,0.185,0.018,0.100,-0.120,-0.100,0.016,0.991,0.012,0.004,0.018,-0.004,0.000,0.000,0.000,0.000,0,2,0,1,7,255,1200,300,0,0,-89.509,0.634,-31.320
EX0521-092111,9,C05,prep,56,56,0,595784.092,0.685,-0.677,0.194,0.188,0,0,0,0,0,0,0,0,0,0.000,0,0,0.185,0.008,-0.140,-0.120,0.020,0.015,0.992,0.011,0.008,-0.002,-0.022,0.000,0.000,0.000,0.000,0,2,0,1,7,255,1200,300,0,0,-89.509,0.634,-31.320
EX0521-092111,9,C05,prep,56,56,0,595789.092,0.685,-0.677,0.194,0.188,0,0,0,0,0,0,0,0,0,0.000,0,0,0.210,0.008,-0.200,-0.060,0.020,0.014,0.997,0.011,0.008,-0.002,-0.022,0.000,0.000,0.000,0.000,0,2,0,1,7,255,1200,300,0,0,-89.509,0.634,-31.320
EX0521-092111,9,C05,prep,56,56,0,595794.092,0.685,-0.677,0.194,0.188,0,0,0,0,0,0,0,0,0,0.000,0,0,0.340,0.013,0.300,0.000,-0.160,0.014,0.998,0.009,0.008,0.010,0.026,0.000,0.000,0.000,0.000,0,2,0,1,7,255,1200,300,0,0,-89.510,0.634,-31.320
EX0521-092111,9,C05,prep,57,57,0,595799.092,0.685,-0.677,0.194,0.188,0,0,0,0,0,0,0,0,0,0.000,0,0,0.260,0.016,0.240,0.000,-0.100,0.016,0.993,0.011,0.012,0.010,0.026,0.000,0.000,0.000,0.000,0,2,0,1,7,255,1200,300,0,0,-89.510,0.634,-31.320
EX0521-092111,9,C05,prep,57,57,0,595804.091,0.685,-0.677,0.194,0.188,0,0,0,0,0,0,0,0,0,0.000,0,0,0.629,0.012,-0.560,-0.060,0.280,0.016,0.987,0.013,0.012,0.000,-0.012,0.000,0.000,0.000,0.000,0,2,0,1,7,255,1200,300,0,0,-89.510,0.635,-31.320
EX0521-092111,9,C05,prep,57,57,0,595809.091,0.685,-0.677,0.194,0.188,0,0,0,0,0,0,0,0,0,0.000,0,0,0.120,0.008,-0.080,-0.040,-0.080,0.013,1.002,0.012,0.008,0.000,-0.012,0.000,0.000,0.000,0.000,0,2,0,1,7,255,1200,300,0,0,-89.510,0.635,-31.320
EX0521-092111,9,C05,prep,57,57,0,595814.092,0.685,-0.677,0.194,0.188,0,0,0,0,0,0,0,0,0,0.000,0,0,0.877,0.010,0.780,0.020,-0.400,0.015,0.991,0.010,0.008,0.006,-0.032,0.000,0.000,0.000,0.000,0,2,0,1,7,255,1200,300,0,0,-89.514,0.635,-31.320
EX0521-092111,9,C05,prep,79,79,0,595819.092,0.685,-0.677,0.194,0.188,0,0,0,0,0,0,0,0,0,0.000,0,0,0.992,0.010,-0.860,-0.180,0.460,0.015,0.986,0.011,0.008,0.006,-0.032,0.000,0.000,0.000,0.000,0,2,0,1,7,255,1200,300,0,0,-89.510,0.635,-31.320
EX0521-092111,9,C05,prep,79,79,0,595824.092,0.685,-0.677,0.194,0.188,0,0,0,0,0,0,0,0,0,0.000,0,0,0.369,0.010,0.240,0.020,-0.280,0.013,1.008,0.011,0.008,0.006,-0.032,0.000,0.000,0.000,0.000,0,2,0,1,7,255,1200,300,0,0,-89.510,0.635,-31.320
EX0521-092111,9,C05,prep,79,79,0,595829.092,0.685,-0.677,0.194,0.188,0,0,0,0,0,0,0,0,0,0.000,0,0,0.958,0.008,0.840,0.020,-0.460,0.017,0.980,0.011,0.008,-0.002,-0.074,0.000,0.000,0.000,0.000,0,2,0,1,7,255,1200,300,0,0,-89.514,0.636,-31.320
EX0521-092111,9,C05,prep,79,79,0,595834.092,0.685,-0.677,0.194,0.188,0,0,0,0,0,0,0,0,0,0.000,0,0,1.568,0.010,-1.420,-0.180,0.640,0.014,1.003,0.010,0.000,0.010,0.094,0.000,0.000,0.000,0.000,0,2,0,1,7,255,1200,300,0,0,-89.507,0.639,-31.320
EX0521-092111,9,C05,prep,79,79,0,595839.092,0.685,-0.677,0.194,0.188,0,0,0,0,0,0,0,0,0,0.000,0,0,2.134,0.011,1.880,0.140,-1.000,0.014,0.992,0.010,0.004,0.010,-0.022,0.000,0.000,0.000,0.000,0,2,0,1,7,255,1200,300,0,0,-89.517,0.634,-31.320
EX0521-092111,9,C05,prep,79,79,0,595844.091,0.685,-0.677,0.194,0.188,0,0,0,0,0,0,0,0,0,0.000,0,0,1.940,0.011,-1.720,-0.180,0.880,0.016,0.982,0.012,0.004,0.010,-0.022,0.000,0.000,0.000,0.000,0,2,0,1,7,255,1200,300,0,0,-89.508,0.638,-31.320
EX0521-092111,9,C05,prep,95,95,0,595849.091,0.685,-0.677,0.194,0.188,0,0,0,0,0,0,0,0,0,0.000,0,0,1.407,0.011,1.220,0.020,-0.700,0.013,1.009,0.009,0.004,0.010,-0.022,0.000,0.000,0.000,0.000,0,2,0,1,7,255,1200,300,0,0,-89.515,0.635,-31.320
EX0521-092111,9,C05,prep,95,95,0,595854.091,0.685,-0.677,0.194,0.188,0,0,0,0,0,0,0,0,0,0.000,0,0,0.224,0.015,-0.200,0.020,0.100,0.015,0.978,0.015,-0.004,-0.014,-0.116,0.000,0.000,0.000,0.000,0,2,0,1,7,255,1200,300,0,0,-89.509,0.635,-31.320
EX0521-092111,9,C05,prep,135,135,0,595859.091,0.685,-0.677,0.194,0.188,0,0,0,0,0,0,0,0,0,0.000,0,0,0.809,0.028,-0.680,-0.180,0.400,0.014,1.004,0.006,-0.004,0.028,0.096,0.000,0.000,0.000,0.000,0,2,0,1,7,255,1200,300,0,0,-89.506,0.635,-31.320
EX0521-092111,9,C05,prep,135,135,0,595864.092,0.685,-0.677,0.194,0.188,0,0,0,0,0,0,0,0,0,0.000,0,0,1.525,0.019,1.340,0.200,-0.700,0.015,0.992,0.013,-0.006,-0.018,-0.022,0.000,0.000,0.000,0.000,0,2,0,1,7,255,1200,300,0,0,-89.513,0.631,-31.320
EX0521-092111,9,C05,prep,136,136,0,595869.092,0.685,-0.677,0.194,0.188,0,0,0,0,0,0,0,0,0,0.000,0,0,2.018,0.023,-1.780,-0.360,0.880,0.015,0.986,0.009,0.018,0.014,-0.022,0.000,0.000,0.000,0.000,0,2,0,1,7,255,1200,300,0,0,-89.504,0.635,-31.320
EX0521-092111,9,C05,prep,136,136,0,595874.093,0.685,-0.677,0.194,0.188,0,0,0,0,0,0,0,0,0,0.000,0,0,1.190,0.013,1.020,0.200,-0.580,0.015,1.003,0.013,-0.004,-0.012,-0.022,0.000,0.000,0.000,0.000,0,2,0,1,7,255,1200,300,0,0,-89.509,0.632,-31.320
EX0521-092111,9,C05,prep,137,137,0,595879.092,0.685,-0.677,0.194,0.188,0,0,0,0,0,0,0,0,0,0.000,0,0,0.075,0.010,0.040,-0.060,-0.020,0.015,0.985,0.012,0.006,-0.008,-0.076,0.000,0.000,0.000,0.000,0,2,0,1,7,255,1200,300,0,0,-89.509,0.632,-31.320
EX0521-092111,9,C05,prep,137,137,0,595884.092,0.685,-0.677,0.194,0.188,0,0,0,0,0,0,0,0,0,0.000,0,0,1.154,0.008,-1.040,-0.300,0.400,0.014,1.001,0.010,0.000,-0.008,0.068,0.000,0.000,0.000,0.000,0,2,0,1,7,255,1200,300,0,0,-89.504,0.632,-31.320
EX0521-092111,9,C05,prep,171,171,0,595889.091,0.685,-0.677,0.194,0.188,0,0,0,0,0,0,0,0,0,0.000,0,0,2.576,0.009,2.360,0.260,-1.000,0.016,0.988,0.013,0.004,-0.008,-0.060,0.000,0.000,0.000,0.000,0,2,0,1,7,255,1200,300,0,0,-89.516,0.627,-31.320
EX0521-092111,9,C05,prep,171,171,0,595894.091,0.685,-0.677,0.194,0.188,0,0,0,0,0,0,0,0,0,0.000,0,0,2.511,0.015,-2.340,-0.240,0.880,0.013,1.000,0.005,0.004,0.014,0.054,0.000,0.000,0.000,0.000,0,2,0,1,7,255,1200,300,0,0,-89.505,0.632,-31.320
EX0521-092111,9,C05,prep,171,171,0,595899.091,0.685,-0.677,0.194,0.188,0,0,0,0,0,0,0,0,0,0.000,0,0,0.404,0.020,0.240,-0.240,-0.220,0.015,0.991,0.016,0.004,-0.020,-0.026,0.000,0.000,0.000,0.000,0,2,0,1,7,255,1200,300,0,0,-89.498,0.632,-31.320
EX0521-092111,9,C05,prep,171,171,0,595904.092,0.685,-0.677,0.194,0.188,0,0,0,0,0,0,0,0,0,0.000,0,0,2.443,0.022,2.300,0.320,-0.760,0.017,0.983,0.010,0.022,-0.004,-0.026,0.000,0.000,0.000,0.000,0,2,0,1,7,255,1200,300,0,0,-89.510,0.628,-31.320
EX0521-092111,9,C05,prep,171,171,0,595909.092,0.685,-0.677,0.194,0.188,0,0,0,0,0,0,0,0,0,0.000,0,0,2.087,0.016,-2.020,-0.060,0.520,0.011,1.013,0.003,0.016,-0.004,-0.026,0.000,0.000,0.000,0.000,0,2,0,1,7,255,1200,300,0,0,-89.501,0.628,-31.320
EX0521-092111,9,C05,prep,171,171,0,595914.092,0.685,-0.677,0.194,0.188,0,0,0,0,0,0,0,0,0,0.000,0,0,0.616,0.016,-0.440,-0.420,0.100,0.016,0.981,0.021,0.016,-0.004,-0.108,0.000,0.000,0.000,0.000,0,2,0,1,7,255,1200,300,0,0,-89.490,0.630,-31.320
EX0521-092111,9,C05,prep,174,174,0,595919.092,0.685,-0.677,0.194,0.188,0,0,0,0,0,0,0,0,0,0.000,0,0,2.508,0.019,2.440,0.260,-0.520,0.017,0.984,0.011,0.016,-0.010,-0.098,0.000,0.000,0.000,0.000,0,2,0,1,7,255,1200,300,0,0,-89.503,0.630,-31.320
EX0521-092111,9,C05,prep,174,174,0,595924.092,0.685,-0.677,0.194,0.188,0,0,0,0,0,0,0,0,0,0.000,0,0,0.691,0.024,-0.260,0.500,-0.400,0.012,1.017,-0.002,0.022,-0.010,-0.098,0.000,0.000,0.000,0.000,0,2,0,1,7,255,1200,300,0,0,-89.512,0.630,-31.320
EX0521-092111,9,C05,prep,174,174,0,595929.091,0.685,-0.677,0.194,0.188,0,0,0,0,0,0,0,0,0,0.000,0,0,3.002,0.024,-2.820,-0.420,0.940,0.016,0.973,0.021,0.022,-0.010,-0.098,0.000,0.000,0.000,0.000,0,2,0,1,7,255,1200,300,0,0,-89.494,0.635,-31.320
EX0521-092111,9,C05,prep,174,174,0,595934.091,0.685,-0.677,0.194,0.188,0,0,0,0,0,0,0,0,0,0.000,0,0,2.029,0.035,2.000,0.020,-0.340,0.014,0.997,0.015,-0.024,-0.026,0.030,0.000,0.000,0.000,0.000,0,2,0,1,7,255,1200,300,0,0,-89.502,0.635,-31.320
EX0521-092111,9,C05,prep,197,197,0,595939.091,0.685,-0.677,0.194,0.188,0,0,0,0,0,0,0,0,0,0.000,0,0,2.798,0.035,2.500,0.200,-1.240,0.012,1.004,0.000,-0.024,-0.026,0.030,0.000,0.000,0.000,0.000,0,2,0,1,7,255,1200,300,0,0,-89.518,0.629,-31.320
EX0521-092111,9,C05,prep,197,197,0,595944.091,0.685,-0.677,0.194,0.188,0,0,0,0,0,0,0,0,0,0.000,0,0,5.311,0.027,-4.960,-0.600,1.800,0.017,0.982,0.014,0.006,-0.026,0.030,0.000,0.000,0.000,0.000,0,2,0,1,7,255,1200,300,0,0,-89.491,0.639,-31.323
EX0521-092111,9,C05,prep,198,198,0,595949.092,0.685,-0.677,0.194,0.188,0,0,0,0,0,0,0,0,0,0.000,0,0,2.242,0.019,2.120,0.200,-0.700,0.013,1.001,0.015,0.006,-0.018,0.068,0.000,0.000,0.000,0.000,0,2,0,1,7,255,1200,300,0,0,-89.500,0.635,-31.323
EX0521-092111,9,C05,prep,198,198,0,595954.092,0.685,-0.677,0.194,0.188,0,0,0,0,0,0,0,0,0,0.000,0,0,1.721,0.019,1.640,0.020,-0.520,0.015,0.984,0.005,0.006,-0.018,-0.096,0.000,0.000,0.000,0.000,0,2,0,1,7,255,1200,300,0,0,-89.509,0.635,-31.323
EX0521-092111,9,C05,prep,207,207,0,595959.094,0.685,-0.677,0.194,0.188,0,0,0,0,0,0,0,0,0,0.000,0,0,2.800,0.027,-2.700,-0.240,0.700,0.013,1.005,0.010,-0.006,0.026,0.068,0.000,0.000,0.000,0.000,0,2,0,1,7,255,1200,300,0,0,-89.495,0.639,-31.323
EX0521-092111,9,C05,prep,207,207,0,595964.092,0.685,-0.677,0.194,0.188,0,0,0,0,0,0,0,0,0,0.000,0,0,1.487,0.027,1.340,0.080,-0.640,0.016,0.985,0.018,-0.006,0.026,-0.084,0.000,0.000,0.000,0.000,0,2,0,1,7,255,1200,300,0,0,-89.499,0.635,-31.323
EX0521-092111,9,C05,prep,239,239,0,595969.091,0.685,-0.677,0.194,0.188,0,0,0,0,0,0,0,0,0,0.000,0,0,0.476,0.027,-0.020,-0.120,0.460,0.015,0.987,0.006,-0.006,0.026,-0.066,0.000,0.000,0.000,0.000,0,2,0,1,7,255,1200,300,0,0,-89.499,0.635,-31.323
EX0521-092111,9,C05,prep,239,239,0,595974.093,0.685,-0.677,0.194,0.188,0,0,0,0,0,0,0,0,0,0.000,0,0,0.432,0.029,-0.260,-0.060,-0.340,0.014,1.006,0.009,0.008,0.028,-0.066,0.000,0.000,0.000,0.000,0,2,0,1,7,255,1200,300,0,0,-89.500,0.635,-31.323
EX0521-092111,9,C05,prep,239,239,0,595979.091,0.685,-0.677,0.194,0.188,0,0,0,0,0,0,0,0,0,0.000,0,0,0.871,0.029,-0.800,-0.060,0.340,0.016,0.978,0.017,0.008,0.028,-0.066,0.000,0.000,0.000,0.000,0,2,0,1,7,255,1200,300,0,0,-89.493,0.636,-31.323
EX0521-092111,9,C05,prep,239,239,0,595984.091,0.685,-0.677,0.194,0.188,0,0,0,0,0,0,0,0,0,0.000,0,0,0.906,0.025,0.900,0.000,-0.100,0.014,1.004,0.009,0.006,0.024,0.102,0.000,0.000,0.000,0.000,0,2,0,1,7,255,1200,300,0,0,-89.498,0.636,-31.323
EX0521-092111,9,C05,prep,239,239,0,595989.092,0.685,-0.677,0.194,0.188,0,0,0,0,0,0,0,0,0,0.000,0,0,0.580,0.025,0.420,0.000,-0.400,0.014,0.992,0.006,0.006,0.024,-0.018,0.000,0.000,0.000,0.000,0,2,0,1,7,255,1200,300,0,0,-89.498,0.636,-31.323
EX0521-092111,9,C05,prep,239,239,0,595994.092,0.685,-0.677,0.194,0.188,0,0,0,0,0,0,0,0,0,0.000,0,0,2.033,0.025,-1.900,-0.180,0.700,0.014,0.989,0.015,0.006,0.024,-0.018,0.000,0.000,0.000,0.000,0,2,0,1,7,255,1200,300,0,0,-89.487,0.639,-31.323
EX0521-092111,9,C05,prep,267,267,0,595999.092,0.685,-0.677,0.194,0.188,0,0,0,0,0,0,0,0,0,0.000,0,0,1.986,0.017,1.880,0.000,-0.640,0.013,1.000,0.011,-0.012,0.012,-0.018,0.000,0.000,0.000,0.000,0,2,0,1,7,255,1200,300,0,0,-89.496,0.636,-31.323
EX0521-092111,9,C05,prep,267,267,0,596004.092,0.685,-0.677,0.194,0.188,0,0,0,0,0,0,0,0,0,0.000,0,0,0.602,0.017,-0.560,0.000,0.220,0.015,0.987,0.006,-0.012,0.012,-0.052,0.000,0.000,0.000,0.000,0,2,0,1,7,255,1200,300,0,0,-89.496,0.636,-31.323
EX0521-092111,9,C05,prep,267,267,0,596009.092,0.685,-0.677,0.194,0.188,0,0,0,0,0,0,0,0,0,0.000,0,0,1.219,0.017,-1.180,-0.120,0.280,0.014,1.000,0.014,-0.012,0.012,0.054,0.000,0.000,0.000,0.000,0,2,0,1,7,255,1200,300,0,0,-89.489,0.636,-31.323
EX0521-092111,9,C05,prep,267,267,0,596014.092,0.685,-0.677,0.194,0.188,0,0,0,0,0,0,0,0,0,0.000,0,0,1.341,0.016,1.260,0.000,-0.460,0.015,0.990,0.013,-0.002,-0.016,-0.036,0.000,0.000,0.000,0.000,0,2,0,1,7,255,1200,300,0,0,-89.495,0.636,-31.323
EX0521-092111,9,C05,prep,268,268,0,596019.091,0.685,-0.677,0.194,0.188,0,0,0,0,0,0,0,0,0,0.000,0,0,0.400,0.016,-0.260,-0.120,0.280,0.014,0.994,0.006,-0.002,-0.016,-0.004,0.000,0.000,0.000,0.000,0,2,0,1,7,255,1200,300,0,0,-89.495,0.636,-31.323
EX0521-092111,9,C05,prep,268,268,0,596024.091,0.685,-0.677,0.194,0.188,0,0,0,0,0,0,0,0,0,0.000,0,0,0.581,0.004,-0.560,-0.120,-0.100,0.013,0.997,0.012,-0.002,0.004,-0.004,0.000,0.000,0.000,0.000,0,2,0,1,7,255,1200,300,0,0,-89.496,0.636,-31.323
EX0521-092111,9,C05,prep,303,303,0,596029.092,0.685,-0.677,0.194,0.188,0,0,0,0,0,0,0,0,0,0.000,0,0,0.326,0.007,0.300,-0.120,-0.040,0.016,0.985,0.013,0.006,0.004,-0.004,0.000,0.000,0.000,0.000,0,2,0,1,7,255,1200,300,0,0,-89.496,0.637,-31.323
EX0521-092111,9,C05,prep,303,303,0,596034.092,0.685,-0.677,0.194,0.188,0,0,0,0,0,0,0,0,0,0.000,0,0,0.624,0.007,0.600,-0.060,-0.160,0.013,1.000,0.007,0.006,0.004,0.026,0.000,0.000,0.000,0.000,0,2,0,1,7,255,1200,300,0,0,-89.499,0.637,-31.323
EX0521-092111,9,C05,prep,303,303,0,596039.092,0.685,-0.677,0.194,0.188,0,0,0,0,0,0,0,0,0,0.000,0,0,0.925,0.007,-0.920,0.000,0.100,0.014,0.991,0.012,0.006,-0.004,-0.026,0.000,0.000,0.000,0.000,0,2,0,1,7,255,1200,300,0,0,-89.494,0.637,-31.323
EX0521-092111,9,C05,prep,303,303,0,596044.092,0.685,-0.677,0.194,0.188,0,0,0,0,0,0,0,0,0,0.000,0,0,0.254,0.007,-0.200,-0.120,0.100,0.015,0.991,0.014,-0.006,-0.004,-0.026,0.000,0.000,0.000,0.000,0,2,0,1,7,255,1200,300,0,0,-89.494,0.637,-31.323
EX0521-092111,9,C05,prep,305,305,0,596049.092,0.685,-0.677,0.194,0.188,0,0,0,0,0,0,0,0,0,0.000,0,0,1.132,0.007,1.080,0.000,-0.340,0.014,0.996,0.009,-0.006,-0.004,-0.026,0.000,0.000,0.000,0.000,0,2,0,1,7,255,1200,300,0,0,-89.500,0.637,-31.323
EX0521-092111,9,C05,prep,305,305,0,596054.091,0.685,-0.677,0.194,0.188,0,0,0,0,0,0,0,0,0,0.000,0,0,0.781,0.023,-0.740,-0.120,0.220,0.015,0.991,0.009,0.012,0.020,-0.026,0.000,0.000,0.000,0.000,0,2,0,1,7,255,1200,300,0,0,-89.496,0.637,-31.323
EX0521-092111,9,C05,prep,335,335,0,596059.091,0.685,-0.677,0.194,0.188,0,0,0,0,0,0,0,0,0,0.000,0,0,0.338,0.023,-0.320,-0.100,0.040,0.015,0.994,0.013,0.012,0.020,-0.002,0.000,0.000,0.000,0.000,0,2,0,1,7,255,1200,300,0,0,-89.496,0.637,-31.323
EX0521-092111,9,C05,prep,335,335,0,596064.093,0.685,-0.677,0.194,0.188,0,0,0,0,0,0,0,0,0,0.000,0,0,1.116,0.007,1.080,0.020,-0.280,0.015,0.992,0.012,0.004,-0.006,-0.016,0.000,0.000,0.000,0.000,0,2,0,1,7,255,1200,300,0,0,-89.502,0.637,-31.323
EX0521-092111,9,C05,prep,335,335,0,596069.091,0.685,-0.677,0.194,0.188,0,0,0,0,0,0,0,0,0,0.000,0,0,0.602,0.007,-0.560,0.020,0.220,0.013,0.996,0.007,0.004,-0.006,-0.002,0.000,0.000,0.000,0.000,0,2,0,1,7,255,1200,300,0,0,-89.502,0.637,-31.323
EX0521-092111,9,C05,prep,335,335,0,596074.093,0.685,-0.677,0.194,0.188,0,0,0,0,0,0,0,0,0,0.000,0,0,0.502,0.007,-0.500,-0.040,-0.020,0.014,0.993,0.013,0.004,-0.006,-0.006,0.000,0.000,0.000,0.000,0,2,0,1,7,255,1200,300,0,0,-89.502,0.637,-31.323
EX0521-092111,9,C05,prep,335,335,0,596079.092,0.685,-0.677,0.194,0.188,0,0,0,0,0,0,0,0,0,0.000,0,0,0.546,0.007,0.540,0.020,-0.080,0.015,0.993,0.012,0.004,-0.006,-0.006,0.000,0.000,0.000,0.000,0,2,0,1,7,255,1200,300,0,0,-89.502,0.637,-31.323
EX0521-092111,9,C05,prep,335,335,0,596084.092,0.685,-0.677,0.194,0.188,0,0,0,0,0,0,0,0,0,0.000,0,0,0.198,0.007,0.180,0.020,-0.080,0.014,0.996,0.009,0.004,-0.006,-0.006,0.000,0.000,0.000,0.000,0,2,0,1,7,255,1200,300,0,0,-89.503,0.637,-31.323
EX0521-092111,9,C05,prep,353,353,0,596089.092,0.685,-0.677,0.194,0.188,0,0,0,0,0,0,0,0,0,0.000,0,0,0.665,0.004,-0.620,-0.180,0.160,0.014,0.993,0.012,0.004,0.000,-0.008,0.000,0.000,0.000,0.000,0,2,0,1,7,255,1200,300,0,0,-89.500,0.637,-31.323
EX0521-092111,9,C05,prep,353,353,0,596094.092,0.685,-0.677,0.194,0.188,0,0,0,0,0,0,0,0,0,0.000,0,0,0.272,0.004,0.240,-0.100,-0.080,0.015,0.991,0.013,-0.004,0.000,-0.008,0.000,0.000,0.000,0.000,0,2,0,1,7,255,1200,300,0,0,-89.500,0.637,-31.323
EX0521-092111,9,C05,prep,353,353,0,596099.091,0.685,-0.677,0.194,0.188,0,0,0,0,0,0,0,0,0,0.000,0,0,0.690,0.004,0.660,0.020,-0.200,0.014,0.996,0.008,-0.004,0.000,-0.008,0.000,0.000,0.000,0.000,0,2,0,1,7,255,1200,300,0,0,-89.503,0.637,-31.323
EX0521-092111,9,C05,prep,353,353,0,596104.091,0.685,-0.677,0.194,0.188,0,0,0,0,0,0,0,0,0,0.000,0,0,0.935,0.015,-0.920,-0.040,0.160,0.014,0.993,0.010,0.006,0.014,-0.012,0.000,0.000,0.000,0.000,0,2,0,1,7,255,1200,300,0,0,-89.499,0.637,-31.323
EX0521-092111,9,C05,prep,368,368,0,596109.091,0.685,-0.677,0.194,0.188,0,0,0,0,0,0,0,0,0,0.000,0,0,0.110,0.015,0.040,0.020,-0.100,0.015,0.993,0.013,0.006,0.014,-0.006,0.000,0.000,0.000,0.000,0,2,0,1,7,255,1200,300,0,0,-89.499,0.637,-31.323
EX0521-092111,9,C05,prep,368,368,0,596114.092,0.685,-0.677,0.194,0.188,0,0,0,0,0,0,0,0,0,0.000,0,0,0.566,0.011,0.540,-0.060,-0.160,0.014,0.993,0.010,0.004,0.010,-0.012,0.000,0.000,0.000,0.000,0,2,0,1,7,255,1200,300,0,0,-89.499,0.636,-31.323
EX0521-092111,9,C05,prep,369,369,0,596119.092,0.685,-0.677,0.194,0.188,0,0,0,0,0,0,0,0,0,0.000,0,0,0.400,0.011,-0.380,-0.120,0.040,0.015,0.995,0.010,0.004,0.010,-0.006,0.000,0.000,0.000,0.000,0,2,0,1,7,255,1200,300,0,0,-89.499,0.636,-31.323
EX0521-092111,9,C05,prep,369,369,0,596124.092,0.685,-0.677,0.194,0.188,0,0,0,0,0,0,0,0,0,0.000,0,0,0.185,0.011,-0.140,-0.120,-0.020,0.014,0.992,0.014,0.004,0.010,-0.012,0.000,0.000,0.000,0.000,0,2,0,1,7,255,1200,300,0,0,-89.495,0.636,-31.323
EX0521-092111,9,C05,prep,383,383,0,596129.092,0.685,-0.677,0.194,0.188,0,0,0,0,0,0,0,0,0,0.000,0,0,0.506,0.010,0.480,0.020,-0.160,0.014,0.993,0.011,-0.002,0.010,-0.012,0.000,0.000,0.000,0.000,0,2,0,1,7,255,1200,300,0,0,-89.495,0.636,-31.323
EX0521-092111,9,C05,prep,383,383,0,596134.092,0.685,-0.677,0.194,0.188,0,0,0,0,0,0,0,0,0,0.000,0,0,0.205,0.010,-0.200,0.020,0.040,0.015,0.996,0.008,-0.002,0.010,-0.012,0.000,0.000,0.000,0.000,0,2,0,1,7,255,1200,300,0,0,-89.495,0.636,-31.323
EX0521-092111,9,C05,prep,383,383,0,596139.092,0.685,-0.677,0.194,0.188,0,0,0,0,0,0,0,0,0,0.000,0,0,0.446,0.014,-0.440,-0.060,0.040,0.016,0.990,0.012,0.010,0.010,-0.012,0.000,0.000,0.000,0.000,0,2,0,1,7,255,1200,300,0,0,-89.495,0.638,-31.323
EX0521-092111,9,C05,prep,383,383,0,596144.091,0.685,-0.677,0.194,0.188,0,0,0,0,0,0,0,0,0,0.000,0,0,0.322,0.010,0.300,-0.060,-0.100,0.014,0.994,0.012,0.010,-0.002,0.004,0.000,0.000,0.000,0.000,0,2,0,1,7,255,1200,300,0,0,-89.495,0.638,-31.323
EX0521-092111,9,C05,prep,399,399,0,596149.091,0.685,-0.677,0.194,0.188,0,0,0,0,0,0,0,0,0,0.000,0,0,0.167,0.010,0.120,-0.060,-0.100,0.014,0.995,0.009,0.010,-0.002,0.004,0.000,0.000,0.000,0.000,0,2,0,1,7,255,1200,300,0,0,-89.495,0.638,-31.323
EX0521-092111,9,C05,prep,399,399,0,596154.091,0.685,-0.677,0.194,0.188,0,0,0,0,0,0,0,0,0,0.000,0,0,0.400,0.002,-0.380,-0.120,0.040,0.015,0.994,0.011,0.002,0.000,0.004,0.000,0.000,0.000,0.000,0,2,0,1,7,255,1200,300,0,0,-89.495,0.638,-31.323
EX0521-092111,9,C05,prep,448,448,0,596159.094,0.685,-0.677,0.194,0.188,0,0,0,0,0,0,0,0,0,0.000,0,0,0.260,0.002,0.240,-0.060,-0.080,0.014,0.994,0.013,0.002,0.000,-0.002,0.000,0.000,0.000,0.000,0,2,0,1,7,255,1200,300,0,0,-89.496,0.638,-31.323
EX0521-092111,9,C05,prep,448,448,0,596164.092,0.685,-0.677,0.194,0.188,0,0,0,0,0,0,0,0,0,0.000,0,0,0.316,0.002,0.300,-0.060,-0.080,0.015,0.993,0.008,0.002,0.000,-0.002,0.000,0.000,0.000,0.000,0,2,0,1,7,255,1200,300,0,0,-89.496,0.638,-31.323
EX0521-092111,9,C05,prep,448,448,0,596169.092,0.685,-0.677,0.194,0.188,0,0,0,0,0,0,0,0,0,0.000,0,0,0.455,0.015,-0.440,-0.060,0.100,0.014,0.994,0.010,0.006,0.014,-0.002,0.000,0.000,0.000,0.000,0,2,0,1,7,255,1200,300,0,0,-89.496,0.638,-31.323
EX0521-092111,9,C05,prep,448,448,0,596174.094,0.685,-0.677,0.194,0.188,0,0,0,0,0,0,0,0,0,0.000,0,0,0.092,0.015,0.040,0.020,-0.080,0.015,0.992,0.013,0.006,0.014,-0.006,0.000,0.000,0.000,0.000,0,2,0,1,7,255,1200,300,0,0,-89.496,0.638,-31.323
EX0521-092111,9,C05,prep,448,448,0,596179.092,0.685,-0.677,0.194,0.188,0,0,0,0,0,0,0,0,0,0.000,0,0,0.301,0.006,0.300,0.020,-0.020,0.015,0.994,0.011,0.004,0.004,-0.002,0.000,0.000,0.000,0.000,0,2,0,1,7,255,1200,300,0,0,-89.496,0.637,-31.323
EX0521-092111,9,C05,prep,448,448,0,596184.091,0.685,-0.677,0.194,0.188,0,0,0,0,0,0,0,0,0,0.000,0,0,0.234,0.006,-0.200,-0.120,-0.020,0.014,0.995,0.010,0.004,0.004,-0.002,0.000,0.000,0.000,0.000,0,2,0,1,7,255,1200,300,0,0,-89.496,0.637,-31.323
EX0521-092111,9,C05,prep,448,448,0,596189.091,0.685,-0.677,0.194,0.188,0,0,0,0,0,0,0,0,0,0.000,0,0,0.146,0.006,-0.080,-0.120,-0.020,0.014,0.991,0.011,0.004,0.004,-0.002,0.000,0.000,0.000,0.000,0,2,0,1,7,255,1200,300,0,0,-89.496,0.637,-31.323
EX0521-092111,9,C05,prep,448,448,0,596194.091,0.685,-0.677,0.194,0.188,0,0,0,0,0,0,0,0,0,0.000,0,0,0.311,0.006,0.300,0.020,-0.080,0.016,0.994,0.010,0.004,0.004,0.004,0.000,0.000,0.000,0.000,0,2,0,1,7,255,1200,300,0,0,-89.496,0.637,-31.323
EX0521-092111,9,C05,prep,449,449,0,596199.091,0.685,-0.677,0.194,0.188,0,0,0,0,0,0,0,0,0,0.000,0,0,0.154,0.006,-0.140,-0.060,-0.020,0.014,0.993,0.010,0.004,0.004,-0.006,0.000,0.000,0.000,0.000,0,2,0,1,7,255,1200,300,0,0,-89.497,0.637,-31.323
EX0521-092111,9,C05,prep,449,449,0,596204.092,0.685,-0.677,0.194,0.188,0,0,0,0,0,0,0,0,0,0.000,0,0,0.268,0.004,-0.260,-0.060,-0.020,0.015,0.992,0.012,0.004,0.002,-0.006,0.000,0.000,0.000,0.000,0,2,0,1,7,255,1200,300,0,0,-89.497,0.637,-31.323
EX0521-092111,9,C05,prep,471,471,0,596209.092,0.685,-0.677,0.194,0.188,0,0,0,0,0,0,0,0,0,0.000,0,0,0.242,0.011,0.240,0.020,-0.020,0.015,0.993,0.010,0.004,0.010,-0.006,0.000,0.000,0.000,0.000,0,2,0,1,7,255,1200,300,0,0,-89.497,0.637,-31.323
EX0521-092111,9,C05,prep,471,471,0,596214.092,0.685,-0.677,0.194,0.188,0,0,0,0,0,0,0,0,0,0.000,0,0,0.066,0.012,-0.020,-0.060,-0.020,0.013,0.993,0.009,0.002,0.012,-0.010,0.000,0.000,0.000,0.000,0,2,0,1,7,255,1200,300,0,0,-89.497,0.637,-31.323
EX0521-092111,9,C05,prep,472,472,0,596219.092,0.685,-0.677,0.194,0.188,0,0,0,0,0,0,0,0,0,0.000,0,0,0.270,0.013,-0.260,-0.060,0.040,0.015,0.993,0.012,0.004,0.012,-0.010,0.000,0.000,0.000,0.000,0,2,0,1,7,255,1200,300,0,0,-89.497,0.637,-31.323
EX0521-092111,9,C05,prep,472,472,0,596224.092,0.685,-0.677,0.194,0.188,0,0,0,0,0,0,0,0,0,0.000,0,0,0.214,0.006,0.180,-0.060,-0.100,0.014,0.992,0.012,0.000,-0.006,-0.010,0.000,0.000,0.000,0.000,0,2,0,1,7,255,1200,300,0,0,-89.497,0.637,-31.323
EX0521-092111,9,C05,prep,473,473,0,596229.091,0.685,-0.677,0.194,0.188,0,0,0,0,0,0,0,0,0,0.000,0,0,0.075,0.007,0.040,-0.060,-0.020,0.015,0.994,0.010,0.004,-0.006,-0.010,0.000,0.000,0.000,0.000,0,2,0,1,7,255,1200,300,0,0,-89.497,0.637,-31.323
EX0521-092111,9,C05,prep,473,473,0,596234.091,0.685,-0.677,0.194,0.188,0,0,0,0,0,0,0,0,0,0.000,0,0,0.328,0.004,-0.320,-0.060,0.040,0.015,0.994,0.012,0.000,-0.004,0.000,0.000,0.000,0.000,0.000,0,2,0,1,7,255,1200,300,0,0,-89.498,0.637,-31.323
EX0521-092111,9,C05,prep,512,512,0,596239.091,0.685,-0.677,0.194,0.188,0,0,0,0,0,0,0,0,0,0.000,0,0,0.049,0.004,0.040,0.020,-0.020,0.014,0.992,0.012,0.000,-0.004,0.000,0.000,0.000,0.000,0.000,0,2,0,1,7,255,1200,300,0,0,-89.498,0.637,-31.323
EX0521-092111,9,C05,prep,512,512,0,596244.091,0.685,-0.677,0.194,0.188,0,0,0,0,0,0,0,0,0,0.000,0,0,0.157,0.004,0.120,0.020,-0.100,0.015,0.994,0.010,0.000,-0.004,0.000,0.000,0.000,0.000,0.000,0,2,0,1,7,255,1200,300,0,0,-89.498,0.637,-31.323
EX0521-092111,9,C05,prep,513,513,0,596249.092,0.685,-0.677,0.194,0.188,0,0,0,0,0,0,0,0,0,0.000,0,0,0.154,0.004,-0.140,-0.060,-0.020,0.014,0.993,0.012,-0.004,-0.002,-0.010,0.000,0.000,0.000,0.000,0,2,0,1,7,255,1200,300,0,0,-89.498,0.637,-31.323
EX0521-092111,9,C05,prep,513,513,0,596254.092,0.685,-0.677,0.194,0.188,0,0,0,0,0,0,0,0,0,0.000,0,0,0.123,0.003,-0.020,-0.120,-0.020,0.015,0.993,0.012,-0.002,-0.002,-0.010,0.000,0.000,0.000,0.000,0,2,0,1,7,255,1200,300,0,0,-89.498,0.637,-31.323
EX0521-092111,9,C05,prep,514,514,0,596259.092,0.685,-0.677,0.194,0.188,0,0,0,0,0,0,0,0,0,0.000,0,0,0.201,0.003,0.180,-0.040,-0.080,0.015,0.993,0.010,-0.002,-0.002,-0.010,0.000,0.000,0.000,0.000,0,2,0,1,7,255,1200,300,0,0,-89.498,0.637,-31.323
EX0521-092111,9,C05,prep,514,514,0,596264.092,0.685,-0.677,0.194,0.188,0,0,0,0,0,0,0,0,0,0.000,0,0,0.085,0.006,-0.080,0.020,-0.020,0.014,0.994,0.011,0.000,0.006,-0.006,0.000,0.000,0.000,0.000,0,2,0,1,7,255,1200,300,0,0,-89.498,0.637,-31.323
EX0521-092111,9,C05,prep,543,543,0,596269.092,0.685,-0.677,0.194,0.188,0,0,0,0,0,0,0,0,0,0.000,0,0,0.205,0.007,-0.200,-0.040,-0.020,0.015,0.994,0.012,0.004,0.006,0.000,0.000,0.000,0.000,0.000,0,2,0,1,7,255,1200,300,0,0,-89.498,0.637,-31.323
EX0521-092111,9,C05,prep,543,543,0,596274.093,0.685,-0.677,0.194,0.188,0,0,0,0,0,0,0,0,0,0.000,0,0,0.201,0.002,0.180,-0.040,-0.080,0.014,0.993,0.012,0.000,-0.002,0.000,0.000,0.000,0.000,0.000,0,2,0,1,7,255,1200,300,0,0,-89.499,0.637,-31.323
EX0521-092111,9,C05,prep,543,543,0,596279.091,0.685,-0.677,0.194,0.188,0,0,0,0,0,0,0,0,0,0.000,0,0,0.035,0.004,-0.020,0.020,-0.020,0.015,0.993,0.010,0.004,-0.002,-0.004,0.000,0.000,0.000,0.000,0,2,0,1,7,255,1200,300,0,0,-89.499,0.637,-31.323
EX0521-092111,9,C05,prep,543,543,0,596284.091,0.685,-0.677,0.194,0.188,0,0,0,0,0,0,0,0,0,0.000,0,0,0.208,0.008,-0.200,-0.040,0.040,0.014,0.993,0.010,-0.002,0.008,-0.006,0.000,0.000,0.000,0.000,0,2,0,1,7,255,1200,300,0,0,-89.499,0.637,-31.323
EX0521-092111,9,C05,prep,543,543,0,596289.092,0.685,-0.677,0.194,0.188,0,0,0,0,0,0,0,0,0,0.000,0,0,0.128,0.008,0.120,-0.040,-0.020,0.014,0.993,0.011,0.000,0.008,-0.004,0.000,0.000,0.000,0.000,0,2,0,1,7,255,1200,300,0,0,-89.499,0.637,-31.323
EX0521-092111,9,C05,prep,543,543,0,596294.092,0.685,-0.677,0.194,0.188,0,0,0,0,0,0,0,0,0,0.000,0,0,0.066,0.006,0.060,0.020,-0.020,0.015,0.994,0.011,0.000,0.006,-0.004,0.000,0.000,0.000,0.000,0,2,0,1,7,255,1200,300,0,0,-89.499,0.637,-31.323
EX0521-092111,9,C05,prep,564,564,0,596299.092,0.685,-0.677,0.194,0.188,0,0,0,0,0,0,0,0,0,0.000,0,0,0.205,0.002,-0.200,0.020,0.040,0.015,0.993,0.011,0.002,0.000,-0.004,0.000,0.000,0.000,0.000,0,2,0,1,7,255,1200,300,0,0,-89.499,0.637,-31.323
EX0521-092111,9,C05,prep,564,564,0,596304.092,0.685,-0.677,0.194,0.188,0,0,0,0,0,0,0,0,0,0.000,0,0,0.066,0.003,0.060,0.020,-0.020,0.015,0.993,0.012,0.002,-0.002,-0.004,0.000,0.000,0.000,0.000,0,2,0,1,7,255,1200,300,0,0,-89.499,0.637,-31.323
EX0521-092111,9,C05,prep,564,564,0,596309.092,0.685,-0.677,0.194,0.188,0,0,0,0,0,0,0,0,0,0.000,0,0,0.214,0.002,0.180,-0.060,-0.100,0.013,0.994,0.010,0.000,-0.002,-0.004,0.000,0.000,0.000,0.000,0,2,0,1,7,255,1200,300,0,0,-89.499,0.637,-31.323
EX0521-092111,9,C05,prep,564,564,0,596314.092,0.685,-0.677,0.194,0.188,0,0,0,0,0,0,0,0,0,0.000,0,0,0.108,0.015,-0.080,-0.060,-0.040,0.013,0.994,0.010,-0.004,0.014,0.000,0.000,0.000,0.000,0.000,0,2,0,1,7,255,1200,300,0,0,-89.500,0.637,-31.323
EX0521-092111,9,C05,prep,565,565,0,596319.091,0.685,-0.677,0.194,0.188,0,0,0,0,0,0,0,0,0,0.000,0,0,0.161,0.015,0.040,-0.120,-0.100,0.015,0.994,0.011,-0.004,0.014,0.000,0.000,0.000,0.000,0.000,0,2,0,1,7,255,1200,300,0,0,-89.500,0.636,-31.323
EX0521-092111,9,C05,prep,565,565,0,596324.091,0.685,-0.677,0.194,0.188,0,0,0,0,0,0,0,0,0,0.000,0,0,0.214,0.004,0.180,-0.060,-0.100,0.014,0.993,0.012,-0.004,-0.002,0.000,0.000,0.000,0.000,0.000,0,2,0,1,7,255,1200,300,0,0,-89.500,0.636,-31.323
EX0521-092111,9,C05,prep,576,576,0,596329.092,0.685,-0.677,0.194,0.188,0,0,0,0,0,0,0,0,0,0.000,0,0,0.108,0.003,-0.080,-0.060,0.040,0.014,0.994,0.011,-0.002,-0.002,0.000,0.000,0.000,0.000,0.000,0,2,0,1,7,255,1200,300,0,0,-89.500,0.636,-31.323
EX0521-092111,9,C05,prep,576,576,0,596334.092,0.685,-0.677,0.194,0.188,0,0,0,0,0,0,0,0,0,0.000,0,0,0.108,0.004,-0.080,-0.060,0.040,0.015,0.993,0.012,-0.002,-0.004,-0.010,0.000,0.000,0.000,0.000,0,2,0,1,7,255,1200,300,0,0,-89.500,0.636,-31.323
EX0521-092111,9,C05,prep,601,601,0,596339.092,0.685,-0.677,0.194,0.188,0,0,0,0,0,0,0,0,0,0.000,0,0,0.123,0.000,0.040,-0.060,-0.100,0.015,0.993,0.010,0.000,0.000,-0.010,0.000,0.000,0.000,0.000,0,2,0,1,7,255,1200,300,0,0,-89.500,0.636,-31.323
EX0521-092111,9,C05,prep,601,601,0,596344.092,0.685,-0.677,0.194,0.188,0,0,0,0,0,0,0,0,0,0.000,0,0,0.108,0.008,-0.080,-0.060,0.040,0.015,0.994,0.011,0.008,0.000,-0.010,0.000,0.000,0.000,0.000,0,2,0,1,7,255,1200,300,0,0,-89.500,0.636,-31.323
EX0521-092111,9,C05,prep,601,601,0,596349.092,0.685,-0.677,0.194,0.188,0,0,0,0,0,0,0,0,0,0.000,0,0,0.089,0.008,-0.080,0.000,-0.040,0.014,0.993,0.012,0.008,0.000,-0.004,0.000,0.000,0.000,0.000,0,2,0,1,7,255,1200,300,0,0,-89.501,0.636,-31.323
EX0521-092111,9,C05,prep,601,601,0,596354.092,0.685,-0.677,0.194,0.188,0,0,0,0,0,0,0,0,0,0.000,0,0,0.194,0.004,0.180,-0.060,-0.040,0.014,0.993,0.012,-0.004,0.000,-0.004,0.000,0.000,0.000,0.000,0,2,0,1,7,255,1200,300,0,0,-89.501,0.636,-31.323
EX0521-092111,9,C05,prep,636,636,0,596359.095,0.685,-0.677,0.194,0.188,0,0,0,0,0,0,0,0,0,0.000,0,0,0.075,0.004,-0.020,-0.060,-0.040,0.014,0.995,0.010,-0.004,0.000,-0.004,0.000,0.000,0.000,0.000,0,2,0,1,7,255,1200,300,0,0,-89.501,0.636,-31.323
EX0521-092111,9,C05,prep,636,636,0,596364.091,0.685,-0.677,0.194,0.188,0,0,0,0,0,0,0,0,0,0.000,0,0,0.157,0.008,-0.140,-0.060,-0.040,0.014,0.993,0.010,0.002,0.008,-0.004,0.000,0.000,0.000,0.000,0,2,0,1,7,255,1200,300,0,0,-89.501,0.636,-31.323
EX0521-092111,9,C05,prep,636,636,0,596369.091,0.685,-0.677,0.194,0.188,0,0,0,0,0,0,0,0,0,0.000,0,0,0.082,0.008,0.040,-0.060,-0.040,0.014,0.994,0.011,0.002,0.008,0.000,0.000,0.000,0.000,0.000,0,2,0,1,7,255,1200,300,0,0,-89.501,0.636,-31.323
EX0521-092111,9,C05,prep,636,636,0,596374.093,0.685,-0.677,0.194,0.188,0,0,0,0,0,0,0,0,0,0.000,0,0,0.082,0.008,0.040,-0.060,-0.040,0.014,0.993,0.010,0.002,0.008,-0.004,0.000,0.000,0.000,0.000,0,2,0,1,7,255,1200,300,0,0,-89.501,0.636,-31.323
EX0521-092111,9,C05,prep,637,637,0,596379.092,0.685,-0.677,0.194,0.188,0,0,0,0,0,0,0,0,0,0.000,0,0,0.108,0.006,-0.080,-0.060,-0.040,0.015,0.993,0.010,0.002,0.006,-0.004,0.000,0.000,0.000,0.000,0,2,0,1,7,255,1200,300,0,0,-89.501,0.636,-31.323
EX0521-092111,9,C05,prep,637,637,0,596384.092,0.685,-0.677,0.194,0.188,0,0,0,0,0,0,0,0,0,0.000,0,0,0.075,0.006,-0.020,-0.060,-0.040,0.014,0.992,0.011,0.002,0.006,-0.010,0.000,0.000,0.000,0.000,0,2,0,1,7,255,1200,300,0,0,-89.501,0.636,-31.323
EX0521-092111,9,C05,prep,668,668,0,596389.092,0.685,-0.677,0.194,0.188,0,0,0,0,0,0,0,0,0,0.000,0,0,0.141,0.007,0.100,0.000,-0.100,0.015,0.994,0.010,0.006,0.004,-0.010,0.000,0.000,0.000,0.000,0,2,0,1,7,255,1200,300,0,0,-89.502,0.636,-31.323
EX0521-092111,9,C05,prep,668,668,0,596394.092,0.685,-0.677,0.194,0.188,0,0,0,0,0,0,0,0,0,0.000,0,0,0.089,0.002,-0.080,0.000,-0.040,0.014,0.993,0.011,-0.002,0.000,-0.004,0.000,0.000,0.000,0.000,0,2,0,1,7,255,1200,300,0,0,-89.502,0.636,-31.323
EX0521-092111,9,C05,prep,668,668,0,596399.092,0.685,-0.677,0.194,0.188,0,0,0,0,0,0,0,0,0,0.000,0,0,0.089,0.002,-0.080,0.000,-0.040,0.015,0.993,0.012,-0.002,0.000,-0.004,0.000,0.000,0.000,0.000,0,2,0,1,7,255,1200,300,0,0,-89.502,0.636,-31.323
EX0521-092111,9,C05,prep,668,668,0,596404.091,0.685,-0.677,0.194,0.188,0,0,0,0,0,0,0,0,0,0.000,0,0,0.141,0.011,0.100,0.000,-0.100,0.015,0.993,0.012,-0.004,-0.010,-0.008,0.000,0.000,0.000,0.000,0,2,0,1,7,255,1200,300,0,0,-89.502,0.636,-31.323
EX0521-092111,9,C05,prep,668,668,0,596409.091,0.685,-0.677,0.194,0.188,0,0,0,0,0,0,0,0,0,0.000,0,0,0.075,0.011,-0.020,-0.060,-0.040,0.014,0.993,0.012,-0.004,-0.010,-0.008,0.000,0.000,0.000,0.000,0,2,0,1,7,255,1200,300,0,0,-89.502,0.636,-31.323
EX0521-092111,9,C05,prep,668,668,0,596414.092,0.685,-0.677,0.194,0.188,0,0,0,0,0,0,0,0,0,0.000,0,0,0.108,0.006,-0.080,-0.060,-0.040,0.015,0.994,0.011,-0.004,-0.004,-0.004,0.000,0.000,0.000,0.000,0,2,0,1,7,255,1200,300,0,0,-89.502,0.636,-31.323
EX0521-092111,9,C05,prep,670,670,0,596419.092,0.685,-0.677,0.194,0.188,0,0,0,0,0,0,0,0,0,0.000,0,0,0.082,0.003,0.040,-0.060,-0.040,0.015,0.993,0.011,0.002,-0.002,-0.004,0.000,0.000,0.000,0.000,0,2,0,1,7,255,1200,300,0,0,-89.502,0.636,-31.323
EX0521-092111,9,C05,prep,670,670,0,596424.092,0.685,-0.677,0.194,0.188,0,0,0,0,0,0,0,0,0,0.000,0,0,0.082,0.003,0.040,-0.060,-0.040,0.015,0.994,0.010,0.002,-0.002,0.000,0.000,0.000,0.000,0.000,0,2,0,1,7,255,1200,300,0,0,-89.502,0.636,-31.323
EX0521-092111,9,C05,prep,702,702,0,596429.092,0.685,-0.677,0.194,0.188,0,0,0,0,0,0,0,0,0,0.000,0,0,0.108,0.003,-0.080,-0.060,-0.040,0.014,0.992,0.011,0.002,0.002,-0.008,0.000,0.000,0.000,0.000,0,2,0,1,7,255,1200,300,0,0,-89.503,0.636,-31.323
EX0521-092111,9,C05,prep,702,702,0,596434.092,0.685,-0.677,0.194,0.188,0,0,0,0,0,0,0,0,0,0.000,0,0,0.057,0.006,0.040,0.000,-0.040,0.014,0.992,0.011,-0.006,0.002,-0.014,0.000,0.000,0.000,0.000,0,2,0,1,7,255,1200,300,0,0,-89.503,0.636,-31.323
EX0521-092111,9,C05,prep,702,702,0,596439.092,0.685,-0.677,0.194,0.188,0,0,0,0,0,0,0,0,0,0.000,0,0,0.102,0.006,-0.020,0.000,-0.100,0.014,0.994,0.010,-0.006,0.002,-0.014,0.000,0.000,0.000,0.000,0,2,0,1,7,255,1200,300,0,0,-89.503,0.636,-31.323
EX0521-092111,9,C05,prep,702,702,0,596444.091,0.685,-0.677,0.194,0.188,0,0,0,0,0,0,0,0,0,0.000,0,0,0.108,0.003,-0.080,-0.060,-0.040,0.015,0.994,0.011,-0.002,0.002,0.000,0.000,0.000,0.000,0.000,0,2,0,1,7,255,1200,300,0,0,-89.503,0.636,-31.323
EX0521-092111,9,C05,prep,704,704,0,596449.091,0.685,-0.677,0.194,0.188,0,0,0,0,0,0,0,0,0,0.000,0,0,0.118,0.004,-0.020,-0.060,-0.100,0.015,0.994,0.013,-0.002,-0.004,0.002,0.000,0.000,0.000,0.000,0,2,0,1,7,255,1200,300,0,0,-89.503,0.636,-31.323
EX0521-092111,9,C05,prep,704,704,0,596454.091,0.685,-0.677,0.194,0.188,0,0,0,0,0,0,0,0,0,0.000,0,0,0.082,0.006,0.040,-0.060,-0.040,0.015,0.994,0.011,0.004,-0.004,0.002,0.000,0.000,0.000,0.000,0,2,0,1,7,255,1200,300,0,0,-89.503,0.636,-31.323
EX0521-092111,9,C05,prep,736,736,0,596459.091,0.685,-0.677,0.194,0.188,0,0,0,0,0,0,0,0,0,0.000,0,0,0.130,0.006,-0.080,-0.100,-0.020,0.013,0.993,0.012,-0.006,0.002,0.002,0.000,0.000,0.000,0.000,0,2,0,1,7,255,1200,300,0,0,-89.503,0.635,-31.323
EX0521-092111,9,C05,prep,736,736,0,596464.092,0.685,-0.677,0.194,0.188,0,0,0,0,0,0,0,0,0,0.000,0,0,0.028,0.004,0.000,0.020,-0.020,0.015,0.994,0.011,0.004,0.002,0.002,0.000,0.000,0.000,0.000,0,2,0,1,7,255,1200,300,0,0,-89.504,0.635,-31.323
EX0521-092111,9,C05,prep,736,736,0,596469.092,0.685,-0.677,0.194,0.188,0,0,0,0,0,0,0,0,0,0.000,0,0,0.066,0.003,0.060,0.020,-0.020,0.014,0.995,0.011,-0.002,0.002,0.002,0.000,0.000,0.000,0.000,0,2,0,1,7,255,1200,300,0,0,-89.504,0.635,-31.323
EX0521-092111,9,C05,prep,736,736,0,596474.093,0.685,-0.677,0.194,0.188,0,0,0,0,0,0,0,0,0,0.000,0,0,0.092,0.004,-0.080,-0.040,-0.020,0.015,0.993,0.010,0.004,0.002,0.002,0.000,0.000,0.000,0.000,0,2,0,1,7,255,1200,300,0,0,-89.504,0.635,-31.323
EX0521-092111,9,C05,prep,736,736,0,596479.092,0.685,-0.677,0.194,0.188,0,0,0,0,0,0,0,0,0,0.000,0,0,0.057,0.004,0.000,-0.040,0.040,0.015,0.992,0.011,0.004,0.002,-0.004,0.000,0.000,0.000,0.000,0,2,0,1,7,255,1200,300,0,0,-89.504,0.635,-31.323
EX0521-092111,9,C05,prep,736,736,0,596484.092,0.685,-0.677,0.194,0.188,0,0,0,0,0,0,0,0,0,0.000,0,0,0.128,0.004,0.120,-0.040,-0.020,0.014,0.992,0.012,0.004,0.002,-0.012,0.000,0.000,0.000,0.000,0,2,0,1,7,255,1200,300,0,0,-89.504,0.635,-31.323
EX0521-092111,9,C05,prep,768,768,0,596489.091,0.685,-0.677,0.194,0.188,0,0,0,0,0,0,0,0,0,0.000,0,0,0.089,0.004,0.000,-0.040,-0.080,0.014,0.993,0.009,0.004,0.002,-0.012,0.000,0.000,0.000,0.000,0,2,0,1,7,255,1200,300,0,0,-89.504,0.635,-31.323
EX0521-092111,9,C05,prep,768,768,0,596494.091,0.685,-0.677,0.194,0.188,0,0,0,0,0,0,0,0,0,0.000,0,0,0.115,0.003,-0.080,0.020,-0.080,0.015,0.994,0.011,0.002,-0.002,-0.008,0.000,0.000,0.000,0.000,0,2,0,1,7,255,1200,300,0,0,-89.504,0.635,-31.323
EX0521-092111,9,C05,prep,768,768,0,596499.091,0.685,-0.677,0.194,0.188,0,0,0,0,0,0,0,0,0,0.000,0,0,0.089,0.003,0.000,-0.040,-0.080,0.014,0.994,0.011,0.002,0.002,0.002,0.000,0.000,0.000,0.000,0,2,0,1,7,255,1200,300,0,0,-89.504,0.635,-31.323
EX0521-092111,9,C05,prep,768,768,0,596504.091,0.685,-0.677,0.194,0.188,0,0,0,0,0,0,0,0,0,0.000,0,0,0.045,0.003,0.000,-0.040,-0.020,0.015,0.994,0.011,0.002,0.002,0.002,0.000,0.000,0.000,0.000,0,2,0,1,7,255,1200,300,0,0,-89.505,0.635,-31.323
EX0521-092111,9,C05,prep,768,768,0,596509.092,0.685,-0.677,0.194,0.188,0,0,0,0,0,0,0,0,0,0.000,0,0,0.102,0.003,-0.080,-0.060,-0.020,0.014,0.994,0.010,0.002,0.002,0.002,0.000,0.000,0.000,0.000,0,2,0,1,7,255,1200,300,0,0,-89.505,0.635,-31.323
EX0521-092111,9,C05,prep,768,768,0,596514.092,0.685,-0.677,0.194,0.188,0,0,0,0,0,0,0,0,0,0.000,0,0,0.082,0.004,0.040,-0.060,0.040,0.015,0.993,0.012,0.004,0.002,0.002,0.000,0.000,0.000,0.000,0,2,0,1,7,255,1200,300,0,0,-89.505,0.635,-31.323
EX0521-092111,9,C05,prep,769,769,0,596519.092,0.685,-0.677,0.194,0.188,0,0,0,0,0,0,0,0,0,0.000,0,0,0.136,0.004,0.120,-0.060,-0.020,0.015,0.995,0.011,0.004,0.000,0.006,0.000,0.000,0.000,0.000,0,2,0,1,7,255,1200,300,0,0,-89.505,0.635,-31.323
EX0521-092111,9,C05,prep,769,769,0,596524.092,0.685,-0.677,0.194,0.188,0,0,0,0,0,0,0,0,0,0.000,0,0,0.066,0.004,-0.020,-0.060,-0.020,0.014,0.993,0.011,0.004,0.000,-0.008,0.000,0.000,0.000,0.000,0,2,0,1,7,255,1200,300,0,0,-89.505,0.635,-31.323
EX0521-092111,9,C05,prep,784,784,0,596529.092,0.685,-0.677,0.194,0.188,0,0,0,0,0,0,0,0,0,0.000,0,0,0.104,0.006,-0.020,0.020,-0.100,0.015,0.992,0.011,0.006,0.000,-0.008,0.000,0.000,0.000,0.000,0,2,0,1,7,255,1200,300,0,0,-89.505,0.635,-31.323
EX0521-092111,9,C05,prep,784,784,0,596534.091,0.685,-0.677,0.194,0.188,0,0,0,0,0,0,0,0,0,0.000,0,0,0.118,0.006,-0.020,-0.060,-0.100,0.015,0.992,0.012,0.002,-0.006,-0.012,0.000,0.000,0.000,0.000,0,2,0,1,7,255,1200,300,0,0,-89.505,0.635,-31.323
EX0521-092111,9,C05,prep,801,801,0,596539.091,0.685,-0.677,0.194,0.188,0,0,0,0,0,0,0,0,0,0.000,0,0,0.102,0.006,-0.080,-0.060,-0.020,0.013,0.994,0.011,0.002,-0.006,-0.012,0.000,0.000,0.000,0.000,0,2,0,1,7,255,1200,300,0,0,-89.505,0.635,-31.323
EX0521-092111,9,C05,prep,801,801,0,596544.091,0.685,-0.677,0.194,0.188,0,0,0,0,0,0,0,0,0,0.000,0,0,0.066,0.003,-0.020,-0.060,-0.020,0.015,0.994,0.011,0.002,0.002,0.002,0.000,0.000,0.000,0.000,0,2,0,1,7,255,1200,300,0,0,-89.506,0.635,-31.323
EX0521-092111,9,C05,prep,801,801,0,596549.091,0.685,-0.677,0.194,0.188,0,0,0,0,0,0,0,0,0,0.000,0,0,0.123,0.003,0.120,0.020,-0.020,0.014,0.993,0.011,-0.002,0.002,0.002,0.000,0.000,0.000,0.000,0,2,0,1,7,255,1200,300,0,0,-89.506,0.635,-31.323
EX0521-092111,9,C05,prep,801,801,0,596554.092,0.685,-0.677,0.194,0.188,0,0,0,0,0,0,0,0,0,0.000,0,0,0.066,0.004,-0.020,-0.060,-0.020,0.015,0.992,0.011,0.004,0.000,-0.004,0.000,0.000,0.000,0.000,0,2,0,1,7,255,1200,300,0,0,-89.506,0.635,-31.323
EX0521-092111,9,C05,prep,802,802,0,596559.094,0.685,-0.677,0.194,0.188,0,0,0,0,0,0,0,0,0,0.000,0,0,0.075,0.002,-0.020,-0.060,-0.040,0.014,0.994,0.011,-0.002,0.000,-0.004,0.000,0.000,0.000,0.000,0,2,0,1,7,255,1200,300,0,0,-89.506,0.635,-31.323
EX0521-092111,9,C05,prep,802,802,0,596564.092,0.685,-0.677,0.194,0.188,0,0,0,0,0,0,0,0,0,0.000,0,0,0.123,0.003,0.040,-0.060,-0.100,0.014,0.993,0.012,-0.002,-0.002,-0.008,0.000,0.000,0.000,0.000,0,2,0,1,7,255,1200,300,0,0,-89.506,0.635,-31.323
EX0521-092111,9,C05,prep,847,847,0,596569.092,0.685,-0.677,0.194,0.188,0,0,0,0,0,0,0,0,0,0.000,0,0,0.045,0.004,-0.020,0.000,-0.040,0.016,0.993,0.011,-0.002,-0.004,-0.008,0.000,0.000,0.000,0.000,0,2,0,1,7,255,1200,300,0,0,-89.506,0.635,-31.323
EX0521-092111,9,C05,prep,847,847,0,596574.093,0.685,-0.677,0.194,0.188,0,0,0,0,0,0,0,0,0,0.000,0,0,0.108,0.013,-0.080,-0.060,-0.040,0.015,0.994,0.009,0.012,-0.004,-0.008,0.000,0.000,0.000,0.000,0,2,0,1,7,255,1200,300,0,0,-89.506,0.635,-31.323
EX0521-092111,9,C05,prep,847,847,0,596579.091,0.685,-0.677,0.194,0.188,0,0,0,0,0,0,0,0,0,0.000,0,0,0.102,0.012,-0.020,0.000,-0.100,0.014,0.993,0.011,0.012,0.002,-0.008,0.000,0.000,0.000,0.000,0,2,0,1,7,255,1200,300,0,0,-89.507,0.635,-31.323
EX0521-092111,9,C05,prep,847,847,0,596584.091,0.685,-0.677,0.194,0.188,0,0,0,0,0,0,0,0,0,0.000,0,0,0.082,0.003,0.040,-0.060,-0.040,0.014,0.993,0.011,-0.002,0.002,-0.002,0.000,0.000,0.000,0.000,0,2,0,1,7,255,1200,300,0,0,-89.507,0.635,-31.323
EX0521-092111,9,C05,prep,847,847,0,596589.091,0.685,-0.677,0.194,0.188,0,0,0,0,0,0,0,0,0,0.000,0,0,0.108,0.002,-0.080,-0.060,-0.040,0.014,0.993,0.011,-0.002,0.000,-0.002,0.000,0.000,0.000,0.000,0,2,0,1,7,255,1200,300,0,0,-89.507,0.635,-31.323
EX0521-092111,9,C05,prep,847,847,0,596594.091,0.685,-0.677,0.194,0.188,0,0,0,0,0,0,0,0,0,0.000,0,0,0.075,0.002,-0.020,-0.060,-0.040,0.014,0.994,0.010,-0.002,0.000,-0.002,0.000,0.000,0.000,0.000,0,2,0,1,7,255,1200,300,0,0,-89.507,0.635,-31.323
EX0521-092111,9,C05,prep,848,848,0,596599.092,0.685,-0.677,0.194,0.188,0,0,0,0,0,0,0,0,0,0.000,0,0,0.045,0.008,-0.020,0.000,-0.040,0.014,0.995,0.010,-0.002,0.008,0.002,0.000,0.000,0.000,0.000,0,2,0,1,7,255,1200,300,0,0,-89.507,0.635,-31.323
EX0521-092111,9,C05,prep,848,848,0,596604.092,0.685,-0.677,0.194,0.188,0,0,0,0,0,0,0,0,0,0.000,0,0,0.141,0.008,-0.080,-0.060,-0.100,0.014,0.994,0.012,-0.002,0.008,0.002,0.000,0.000,0.000,0.000,0,2,0,1,7,255,1200,300,0,0,-89.507,0.634,-31.323
EX0521-092111,9,C05,prep,868,868,0,596609.092,0.685,-0.677,0.194,0.188,0,0,0,0,0,0,0,0,0,0.000,0,0,0.066,0.003,-0.020,-0.060,-0.020,0.015,0.992,0.011,-0.002,-0.002,0.002,0.000,0.000,0.000,0.000,0,2,0,1,7,255,1200,300,0,0,-89.507,0.634,-31.323
EX0521-092111,9,C05,prep,868,868,0,596614.092,0.685,-0.677,0.194,0.188,0,0,0,0,0,0,0,0,0,0.000,0,0,0.075,0.003,0.040,-0.060,-0.020,0.015,0.993,0.011,0.002,-0.002,-0.002,0.000,0.000,0.000,0.000,0,2,0,1,7,255,1200,300,0,0,-89.507,0.634,-31.323
EX0521-092111,9,C05,prep,869,869,0,596619.092,0.685,-0.677,0.194,0.188,0,0,0,0,0,0,0,0,0,0.000,0,0,0.123,0.003,-0.020,-0.120,-0.020,0.014,0.993,0.011,0.002,-0.002,-0.008,0.000,0.000,0.000,0.000,0,2,0,1,7,255,1200,300,0,0,-89.508,0.634,-31.323
EX0521-092111,9,C05,prep,869,869,0,596624.091,0.685,-0.677,0.194,0.188,0,0,0,0,0,0,0,0,0,0.000,0,0,0.085,0.000,-0.080,0.020,-0.020,0.014,0.993,0.011,0.000,0.000,-0.008,0.000,0.000,0.000,0.000,0,2,0,1,7,255,1200,300,0,0,-89.508,0.634,-31.323
EX0521-092111,9,C05,prep,879,879,0,596629.091,0.685,-0.677,0.194,0.188,0,0,0,0,0,0,0,0,0,0.000,0,0,0.066,0.004,-0.020,-0.060,-0.020,0.014,0.993,0.011,0.000,0.004,-0.008,0.000,0.000,0.000,0.000,0,2,0,1,7,255,1200,300,0,0,-89.508,0.634,-31.323
EX0521-092111,9,C05,prep,879,879,0,596634.091,0.685,-0.677,0.194,0.188,0,0,0,0,0,0,0,0,0,0.000,0,0,0.066,0.004,-0.020,-0.060,-0.020,0.014,0.992,0.013,0.000,0.004,-0.008,0.000,0.000,0.000,0.000,0,2,0,1,7,255,1200,300,0,0,-89.508,0.634,-31.323
EX0521-092111,9,C05,prep,901,901,0,596639.092,0.685,-0.677,0.194,0.188,0,0,0,0,0,0,0,0,0,0.000,0,0,0.075,0.006,0.040,-0.060,-0.020,0.015,0.993,0.011,0.000,-0.006,-0.008,0.000,0.000,0.000,0.000,0,2,0,1,7,255,1200,300,0,0,-89.508,0.634,-31.323
EX0521-092111,9,C05,prep,901,901,0,596644.092,0.685,-0.677,0.194,0.188,0,0,0,0,0,0,0,0,0,0.000,0,0,0.066,0.007,-0.020,-0.060,-0.020,0.015,0.994,0.011,0.004,-0.006,-0.006,0.000,0.000,0.000,0.000,0,2,0,1,7,255,1200,300,0,0,-89.508,0.634,-31.323
EX0521-092111,9,C05,prep,903,903,0,596649.092,0.685,-0.677,0.194,0.188,0,0,0,0,0,0,0,0,0,0.000,0,0,0.049,0.004,0.040,0.020,-0.020,0.014,0.993,0.010,0.004,0.000,-0.002,0.000,0.000,0.000,0.000,0,2,0,1,7,255,1200,300,0,0,-89.508,0.634,-31.323
EX0521-092111,9,C05,prep,903,903,0,596654.092,0.685,-0.677,0.194,0.188,0,0,0,0,0,0,0,0,0,0.000,0,0,0.066,0.003,-0.020,-0.060,-0.020,0.014,0.994,0.011,0.002,0.002,0.002,0.000,0.000,0.000,0.000,0,2,0,1,7,255,1200,300,0,0,-89.508,0.634,-31.323
EX0521-092111,9,C05,prep,934,934,0,596659.092,0.685,-0.677,0.194,0.188,0,0,0,0,0,0,0,0,0,0.000,0,0,0.049,0.004,-0.020,-0.040,-0.020,0.014,0.993,0.011,0.000,0.004,-0.002,0.000,0.000,0.000,0.000,0,2,0,1,7,255,1200,300,0,0,-89.509,0.634,-31.323
EX0521-092111,9,C05,prep,934,934,0,596664.091,0.685,-0.677,0.194,0.188,0,0,0,0,0,0,0,0,0,0.000,0,0,0.108,0.002,0.060,-0.040,-0.080,0.015,0.993,0.011,0.000,0.002,-0.002,0.000,0.000,0.000,0.000,0,2,0,1,7,255,1200,300,0,0,-89.509,0.634,-31.323
EX0521-092111,9,C05,prep,967,967,0,596669.091,0.685,-0.677,0.194,0.188,0,0,0,0,0,0,0,0,0,0.000,0,0,0.049,0.000,-0.020,-0.040,-0.020,0.014,0.993,0.012,0.000,0.000,-0.006,0.000,0.000,0.000,0.000,0,2,0,1,7,255,1200,300,0,0,-89.509,0.634,-31.323
EX0521-092111,9,C05,prep,967,967,0,596674.093,0.685,-0.677,0.194,0.188,0,0,0,0,0,0,0,0,0,0.000,0,0,0.092,0.007,-0.020,-0.040,-0.080,0.015,0.993,0.011,0.004,-0.006,-0.006,0.000,0.000,0.000,0.000,0,2,0,1,7,255,1200,300,0,0,-89.509,0.634,-31.323
EX0521-092111,9,C05,prep,967,967,0,596679.091,0.685,-0.677,0.194,0.188,0,0,0,0,0,0,0,0,0,0.000,0,0,0.049,0.008,-0.020,-0.040,-0.020,0.015,0.992,0.010,0.006,-0.006,-0.006,0.000,0.000,0.000,0.000,0,2,0,1,7,255,1200,300,0,0,-89.509,0.634,-31.323
EX0521-092111,9,C05,prep,967,967,0,596684.092,0.685,-0.677,0.194,0.188,0,0,0,0,0,0,0,0,0,0.000,0,0,0.075,0.006,0.060,-0.040,-0.020,0.015,0.993,0.011,0.006,0.000,-0.006,0.000,0.000,0.000,0.000,0,2,0,1,7,255,1200,300,0,0,-89.509,0.634,-31.323
EX0521-092111,9,C05,prep,975,975,0,596689.092,0.685,-0.677,0.194,0.188,0,0,0,0,0,0,0,0,0,0.000,0,0,0.049,0.004,-0.020,-0.040,-0.020,0.015,0.993,0.011,0.004,0.000,-0.006,0.000,0.000,0.000,0.000,0,2,0,1,7,255,1200,300,0,0,-89.509,0.634,-31.323
EX0521-092111,9,C05,prep,975,975,0,596694.092,0.685,-0.677,0.194,0.188,0,0,0,0,0,0,0,0,0,0.000,0,0,0.075,0.004,0.060,-0.040,-0.020,0.013,0.994,0.012,0.004,0.000,-0.002,0.000,0.000,0.000,0.000,0,2,0,1,7,255,1200,300,0,0,-89.510,0.634,-31.323
EX0521-092111,9,C05,prep,975,975,0,596699.092,0.685,-0.677,0.194,0.188,0,0,0,0,0,0,0,0,0,0.000,0,0,0.049,0.006,-0.020,-0.040,-0.020,0.014,0.993,0.012,-0.006,0.000,-0.006,0.000,0.000,0.000,0.000,0,2,0,1,7,255,1200,300,0,0,-89.510,0.634,-31.323
EX0521-092111,9,C05,prep,975,975,0,596704.092,0.685,-0.677,0.194,0.188,0,0,0,0,0,0,0,0,0,0.000,0,0,0.092,0.006,-0.080,-0.040,-0.020,0.014,0.993,0.010,-0.006,0.000,-0.002,0.000,0.000,0.000,0.000,0,2,0,1,7,255,1200,300,0,0,-89.510,0.634,-31.323
EX0521-092111,9,C05,prep,975,975,0,596709.091,0.685,-0.677,0.194,0.188,0,0,0,0,0,0,0,0,0,0.000,0,0,0.082,0.006,0.040,-0.060,-0.040,0.014,0.993,0.011,-0.006,0.002,-0.006,0.000,0.000,0.000,0.000,0,2,0,1,7,255,1200,300,0,0,-89.510,0.634,-31.323
EX0521-092111,9,C05,prep,975,975,0,596714.092,0.685,-0.677,0.194,0.188,0,0,0,0,0,0,0,0,0,0.000,0,0,0.082,0.002,0.040,-0.060,-0.040,0.014,0.994,0.011,0.000,0.002,-0.002,0.000,0.000,0.000,0.000,0,2,0,1,7,255,1200,300,0,0,-89.510,0.634,-31.323
EX0521-092111,9,C05,prep,975,975,0,596719.091,0.685,-0.677,0.194,0.188,0,0,0,0,0,0,0,0,0,0.000,0,0,0.118,0.006,-0.020,-0.060,-0.100,0.014,0.994,0.012,-0.006,0.002,0.002,0.000,0.000,0.000,0.000,0,2,0,1,7,255,1200,300,0,0,-89.510,0.634,-31.323
EX0521-092111,9,C05,prep,975,975,0,596724.091,0.685,-0.677,0.194,0.188,0,0,0,0,0,0,0,0,0,0.000,0,0,0.082,0.006,0.040,-0.060,-0.040,0.014,0.993,0.011,-0.006,0.002,0.002,0.000,0.000,0.000,0.000,0,2,0,1,7,255,1200,300,0,0,-89.510,0.634,-31.323
EX0521-092111,9,C05,prep,975,975,0,596729.092,0.685,-0.677,0.194,0.188,0,0,0,0,0,0,0,0,0,0.000,0,0,0.075,0.006,-0.020,-0.060,-0.040,0.015,0.994,0.011,-0.006,-0.002,0.002,0.000,0.000,0.000,0.000,0,2,0,1,7,255,1200,300,0,0,-89.510,0.634,-31.323
EX0521-092111,9,C05,prep,975,975,0,596734.092,0.685,-0.677,0.194,0.188,0,0,0,0,0,0,0,0,0,0.000,0,0,0.118,0.003,-0.020,-0.060,-0.100,0.015,0.994,0.010,0.002,0.002,0.002,0.000,0.000,0.000,0.000,0,2,0,1,7,255,1200,300,0,0,-89.511,0.634,-31.323
EX0521-092111,9,C05,prep,1001,1001,0,596739.092,0.685,-0.677,0.194,0.188,0,0,0,0,0,0,0,0,0,0.000,0,0,0.075,0.004,0.040,-0.060,0.020,0.015,0.993,0.012,0.002,-0.004,0.002,0.000,0.000,0.000,0.000,0,2,0,1,7,255,1200,300,0,0,-89.511,0.634,-31.323
EX0521-092111,9,C05,prep,1001,1001,0,596744.092,0.685,-0.677,0.194,0.188,0,0,0,0,0,0,0,0,0,0.000,0,0,0.075,0.007,-0.020,-0.060,-0.040,0.015,0.993,0.010,0.006,0.004,-0.002,0.000,0.000,0.000,0.000,0,2,0,1,7,255,1200,300,0,0,-89.511,0.633,-31.323
EX0521-092111,9,C05,prep,1012,1012,0,596749.091,0.685,-0.677,0.194,0.188,0,0,0,0,0,0,0,0,0,0.000,0,0,0.075,0.008,-0.020,-0.060,-0.040,0.015,0.994,0.011,0.006,-0.006,-0.002,0.000,0.000,0.000,0.000,0,2,0,1,7,255,1200,300,0,0,-89.511,0.633,-31.323
EX0521-092111,9,C05,prep,1012,1012,0,596754.091,0.685,-0.677,0.194,0.188,0,0,0,0,0,0,0,0,0,0.000,0,0,0.057,0.008,0.040,0.000,-0.040,0.015,0.992,0.012,0.006,-0.006,-0.002,0.000,0.000,0.000,0.000,0,2,0,1,7,255,1200,300,0,0,-89.511,0.633,-31.323
EX0521-092111,9,C05,prep,1013,1013,0,596759.093,0.685,-0.677,0.194,0.188,0,0,0,0,0,0,0,0,0,0.000,0,0,0.057,0.006,0.040,0.000,-0.040,0.014,0.994,0.011,-0.002,-0.006,0.002,0.000,0.000,0.000,0.000,0,2,0,1,7,255,1200,300,0,0,-89.511,0.633,-31.323
EX0521-092111,9,C05,prep,1013,1013,0,596764.091,0.685,-0.677,0.194,0.188,0,0,0,0,0,0,0,0,0,0.000,0,0,0.075,0.003,-0.020,-0.060,-0.040,0.014,0.993,0.011,-0.002,-0.002,-0.002,0.000,0.000,0.000,0.000,0,2,0,1,7,255,1200,300,0,0,-89.511,0.633,-31.323
EX0521-092111,9,C05,prep,1039,1039,0,596769.091,0.685,-0.677,0.194,0.188,0,0,0,0,0,0,0,0,0,0.000,0,0,0.075,0.003,-0.020,-0.060,-0.040,0.014,0.993,0.011,-0.002,-0.002,-0.002,0.000,0.000,0.000,0.000,0,2,0,1,7,255,1200,300,0,0,-89.511,0.633,-31.323
EX0521-092111,9,C05,prep,1039,1039,0,596774.095,0.685,-0.677,0.194,0.188,0,0,0,0,0,0,0,0,0,0.000,0,0,0.082,0.002,0.040,-0.060,-0.040,0.015,0.993,0.012,0.000,-0.002,-0.002,0.000,0.000,0.000,0.000,0,2,0,1,7,255,1200,300,0,0,-89.512,0.633,-31.323
EX0521-092111,9,C05,prep,1039,1039,0,596779.092,0.685,-0.677,0.194,0.188,0,0,0,0,0,0,0,0,0,0.000,0,0,0.082,0.006,0.040,-0.060,-0.040,0.014,0.994,0.012,-0.002,-0.006,-0.002,0.000,0.000,0.000,0.000,0,2,0,1,7,255,1200,300,0,0,-89.512,0.633,-31.323
EX0521-092111,9,C05,prep,1039,1039,0,596784.093,0.685,-0.677,0.194,0.188,0,0,0,0,0,0,0,0,0,0.000,0,0,0.045,0.007,-0.020,0.000,-0.040,0.014,0.993,0.011,-0.004,-0.006,-0.002,0.000,0.000,0.000,0.000,0,2,0,1,7,255,1200,300,0,0,-89.512,0.633,-31.323
EX0521-092111,9,C05,prep,1039,1039,0,596789.092,0.685,-0.677,0.194,0.188,0,0,0,0,0,0,0,0,0,0.000,0,0,0.082,0.006,0.040,-0.060,-0.040,0.015,0.993,0.011,-0.004,-0.004,-0.002,0.000,0.000,0.000,0.000,0,2,0,1,7,255,1200,300,0,0,-89.512,0.633,-31.323
EX0521-092111,9,C05,prep,1039,1039,0,596794.091,0.685,-0.677,0.194,0.188,0,0,0,0,0,0,0,0,0,0.000,0,0,0.075,0.006,-0.020,-0.060,-0.040,0.014,0.994,0.012,-0.004,-0.004,-0.002,0.000,0.000,0.000,0.000,0,2,0,1,7,255,1200,300,0,0,-89.512,0.633,-31.323
EX0521-092111,9,C05,prep,1062,1062,0,596799.091,0.685,-0.677,0.194,0.188,0,0,0,0,0,0,0,0,0,0.000,0,0,0.075,0.004,-0.020,-0.060,-0.040,0.015,0.994,0.011,0.002,-0.004,0.002,0.000,0.000,0.000,0.000,0,2,0,1,7,255,1200,300,0,0,-89.512,0.633,-31.323
EX0521-092111,9,C05,prep,1062,1062,0,596804.091,0.685,-0.677,0.194,0.188,0,0,0,0,0,0,0,0,0,0.000,0,0,0.108,0.003,-0.080,-0.060,-0.040,0.014,0.994,0.010,0.002,-0.002,0.002,0.000,0.000,0.000,0.000,0,2,0,1,7,255,1200,300,0,0,-89.512,0.633,-31.323
EX0521-092111,9,C05,prep,1062,1062,0,596809.091,0.685,-0.677,0.194,0.188,0,0,0,0,0,0,0,0,0,0.000,0,0,0.128,0.007,-0.080,0.000,-0.100,0.015,0.994,0.010,0.006,0.004,0.002,0.000,0.000,0.000,0.000,0,2,0,1,7,255,1200,300,0,0,-89.513,0.633,-31.323
EX0521-092111,9,C05,prep,1062,1062,0,596814.092,0.685,-0.677,0.194,0.188,0,0,0,0,0,0,0,0,0,0.000,0,0,0.075,0.004,-0.020,-0.060,-0.040,0.014,0.992,0.011,0.002,0.004,0.002,0.000,0.000,0.000,0.000,0,2,0,1,7,255,1200,300,0,0,-89.513,0.633,-31.323
EX0521-092111,9,C05,prep,1071,1071,0,596819.092,0.685,-0.677,0.194,0.188,0,0,0,0,0,0,0,0,0,0.000,0,0,0.075,0.003,-0.020,-0.060,-0.040,0.015,0.992,0.011,0.002,-0.002,-0.016,0.000,0.000,0.000,0.000,0,2,0,1,7,255,1200,300,0,0,-89.513,0.633,-31.323
EX0521-092111,9,C05,prep,1071,1071,0,596824.092,0.685,-0.677,0.194,0.188,0,0,0,0,0,0,0,0,0,0.000,0,0,0.045,0.003,-0.020,0.000,-0.040,0.014,0.993,0.011,-0.002,-0.002,-0.016,0.000,0.000,0.000,0.000,0,2,0,1,7,255,1200,300,0,0,-89.513,0.633,-31.323
EX0521-092111,9,C05,prep,1071,1071,0,596829.092,0.685,-0.677,0.194,0.188,0,0,0,0,0,0,0,0,0,0.000,0,0,0.108,0.002,-0.080,-0.060,-0.040,0.014,0.994,0.011,0.000,-0.002,-0.002,0.000,0.000,0.000,0.000,0,2,0,1,7,255,1200,300,0,0,-89.513,0.633,-31.323
EX0521-092111,9,C05,prep,1071,1071,0,596834.092,0.685,-0.677,0.194,0.188,0,0,0,0,0,0,0,0,0,0.000,0,0,0.123,0.002,0.040,-0.060,-0.100,0.016,0.993,0.011,0.000,-0.002,-0.002,0.000,0.000,0.000,0.000,0,2,0,1,7,255,1200,300,0,0,-89.513,0.633,-31.323
EX0521-092111,9,C05,prep,1097,1097,0,596839.091,0.685,-0.677,0.194,0.188,0,0,0,0,0,0,0,0,0,0.000,0,0,0.075,0.004,-0.020,-0.060,-0.040,0.015,0.993,0.011,0.002,-0.004,-0.002,0.000,0.000,0.000,0.000,0,2,0,1,7,255,1200,300,0,0,-89.513,0.633,-31.323
EX0521-092111,9,C05,prep,1097,1097,0,596844.091,0.685,-0.677,0.194,0.188,0,0,0,0,0,0,0,0,0,0.000,0,0,0.128,0.009,-0.020,-0.120,-0.040,0.015,0.992,0.011,0.008,-0.004,-0.002,0.000,0.000,0.000,0.000,0,2,0,1,7,255,1200,300,0,0,-89.513,0.633,-31.323
EX0521-092111,9,C05,prep,1098,1098,0,596849.091,0.685,-0.677,0.194,0.188,0,0,0,0,0,0,0,0,0,0.000,0,0,0.118,0.004,-0.020,-0.060,-0.100,0.015,0.994,0.011,0.002,-0.004,-0.002,0.000,0.000,0.000,0.000,0,2,0,1,7,255,1200,300,0,0,-89.514,0.633,-31.323
EX0521-092111,9,C05,prep,1098,1098,0,596854.091,0.685,-0.677,0.194,0.188,0,0,0,0,0,0,0,0,0,0.000,0,0,0.108,0.002,-0.080,-0.060,-0.040,0.014,0.993,0.011,0.000,-0.002,-0.006,0.000,0.000,0.000,0.000,0,2,0,1,7,255,1200,300,0,0,-89.514,0.633,-31.323
EX0521-092111,9,C05,prep,1103,1103,0,596859.092,0.685,-0.677,0.194,0.188,0,0,0,0,0,0,0,0,0,0.000,0,0,0.102,0.000,-0.020,-0.060,-0.080,0.015,0.994,0.011,0.000,0.000,0.004,0.000,0.000,0.000,0.000,0,2,0,1,7,255,1200,300,0,0,-89.514,0.633,-31.323
EX0521-092111,9,C05,prep,1103,1103,0,596864.092,0.685,-0.677,0.194,0.188,0,0,0,0,0,0,0,0,0,0.000,0,0,0.066,0.004,-0.020,-0.060,-0.020,0.014,0.994,0.011,-0.004,0.002,0.004,0.000,0.000,0.000,0.000,0,2,0,1,7,255,1200,300,0,0,-89.514,0.633,-31.323
EX0521-092111,9,C05,prep,1133,1133,0,596869.092,0.685,-0.677,0.194,0.188,0,0,0,0,0,0,0,0,0,0.000,0,0,0.066,0.004,-0.020,-0.060,-0.020,0.014,0.993,0.012,-0.004,0.000,0.004,0.000,0.000,0.000,0.000,0,2,0,1,7,255,1200,300,0,0,-89.514,0.633,-31.323
EX0521-092111,9,C05,prep,1133,1133,0,596874.092,0.685,-0.677,0.194,0.188,0,0,0,0,0,0,0,0,0,0.000,0,0,0.075,0.006,0.040,-0.060,-0.020,0.014,0.994,0.011,-0.006,0.002,0.008,0.000,0.000,0.000,0.000,0,2,0,1,7,255,1200,300,0,0,-89.514,0.633,-31.323
EX0521-092111,9,C05,prep,1134,1134,0,596879.092,0.685,-0.677,0.194,0.188,0,0,0,0,0,0,0,0,0,0.000,0,0,0.075,0.006,-0.020,-0.060,0.040,0.014,0.994,0.011,-0.006,0.002,0.004,0.000,0.000,0.000,0.000,0,2,0,1,7,255,1200,300,0,0,-89.514,0.633,-31.323
EX0521-092111,9,C05,prep,1134,1134,0,596884.093,0.685,-0.677,0.194,0.188,0,0,0,0,0,0,0,0,0,0.000,0,0,0.146,0.006,-0.020,-0.120,-0.080,0.014,0.993,0.011,-0.004,0.004,0.004,0.000,0.000,0.000,0.000,0,2,0,1,7,255,1200,300,0,0,-89.515,0.632,-31.323
EX0521-092111,9,C05,prep,1165,1165,0,596889.091,0.685,-0.677,0.194,0.188,0,0,0,0,0,0,0,0,0,0.000,0,0,0.035,0.006,-0.020,0.020,-0.020,0.014,0.994,0.012,-0.004,0.004,0.004,0.000,0.000,0.000,0.000,0,2,0,1,7,255,1200,300,0,0,-89.515,0.632,-31.323
EX0521-092111,9,C05,prep,1165,1165,0,596894.091,0.685,-0.677,0.194,0.188,0,0,0,0,0,0,0,0,0,0.000,0,0,0.066,0.008,-0.020,-0.060,-0.020,0.014,0.993,0.012,-0.006,-0.006,-0.006,0.000,0.000,0.000,0.000,0,2,0,1,7,255,1200,300,0,0,-89.515,0.632,-31.323
EX0521-092111,9,C05,prep,1165,1165,0,596899.092,0.685,-0.677,0.194,0.188,0,0,0,0,0,0,0,0,0,0.000,0,0,0.102,0.008,-0.080,-0.060,-0.020,0.016,0.993,0.011,-0.006,-0.006,-0.002,0.000,0.000,0.000,0.000,0,2,0,1,7,255,1200,300,0,0,-89.515,0.632,-31.323
EX0521-092111,9,C05,prep,1165,1165,0,596904.092,0.685,-0.677,0.194,0.188,0,0,0,0,0,0,0,0,0,0.000,0,0,0.102,0.006,-0.020,-0.060,-0.080,0.014,0.994,0.010,0.002,-0.006,-0.002,0.000,0.000,0.000,0.000,0,2,0,1,7,255,1200,300,0,0,-89.515,0.632,-31.323
EX0521-092111,9,C05,prep,1166,1166,0,596909.092,0.685,-0.677,0.194,0.188,0,0,0,0,0,0,0,0,0,0.000,0,0,0.082,0.008,0.040,-0.060,-0.040,0.015,0.992,0.012,0.002,-0.008,-0.002,0.000,0.000,0.000,0.000,0,2,0,1,7,255,1200,300,0,0,-89.515,0.632,-31.323
EX0521-092111,9,C05,prep,1166,1166,0,596914.092,0.685,-0.677,0.194,0.188,0,0,0,0,0,0,0,0,0,0.000,0,0,0.075,0.004,-0.020,-0.060,-0.040,0.015,0.994,0.011,0.002,-0.004,0.004,0.000,0.000,0.000,0.000,0,2,0,1,7,255,1200,300,0,0,-89.515,0.632,-31.323
EX0521-092111,9,C05,prep,1166,1166,0,596919.092,0.685,-0.677,0.194,0.188,0,0,0,0,0,0,0,0,0,0.000,0,0,0.082,0.004,0.040,-0.060,-0.040,0.014,0.993,0.011,0.000,-0.004,-0.006,0.000,0.000,0.000,0.000,0,2,0,1,7,255,1200,300,0,0,-89.515,0.632,-31.323
EX0521-092111,9,C05,prep,1166,1166,0,596924.091,0.685,-0.677,0.194,0.188,0,0,0,0,0,0,0,0,0,0.000,0,0,0.075,0.002,-0.020,-0.060,-0.040,0.015,0.993,0.011,0.002,0.000,-0.006,0.000,0.000,0.000,0.000,0,2,0,1,7,255,1200,300,0,0,-89.516,0.632,-31.323
EX0521-092111,9,C05,prep,1183,1183,0,596929.091,0.685,-0.677,0.194,0.188,0,0,0,0,0,0,0,0,0,0.000,0,0,0.118,0.000,-0.020,-0.060,-0.100,0.014,0.993,0.011,0.000,0.000,-0.006,0.000,0.000,0.000,0.000,0,2,0,1,7,255,1200,300,0,0,-89.516,0.632,-31.323
EX0521-092111,9,C05,prep,1183,1183,0,596934.091,0.685,-0.677,0.194,0.188,0,0,0,0,0,0,0,0,0,0.000,0,0,0.045,0.003,-0.020,0.000,-0.040,0.015,0.994,0.011,0.002,-0.002,-0.002,0.000,0.000,0.000,0.000,0,2,0,1,7,255,1200,300,0,0,-89.516,0.632,-31.323
EX0521-092111,9,C05,prep,1183,1183,0,596939.092,0.685,-0.677,0.194,0.188,0,0,0,0,0,0,0,0,0,0.000,0,0,0.075,0.003,-0.020,-0.060,-0.040,0.014,0.994,0.011,-0.002,-0.002,0.004,0.000,0.000,0.000,0.000,0,2,0,1,7,255,1200,300,0,0,-89.516,0.632,-31.323
EX0521-092111,9,C05,prep,1183,1183,0,596944.092,0.685,-0.677,0.194,0.188,0,0,0,0,0,0,0,0,0,0.000,0,0,0.075,0.004,-0.020,-0.060,-0.040,0.015,0.994,0.011,0.002,-0.004,0.004,0.000,0.000,0.000,0.000,0,2,0,1,7,255,1200,300,0,0,-89.516,0.632,-31.323
EX0521-092111,9,C05,prep,1200,1200,0,596949.092,0.685,-0.677,0.194,0.188,0,0,0,0,0,0,0,0,0,0.000,0,0,0.057,0.003,0.040,0.000,-0.040,0.014,0.992,0.011,-0.002,-0.002,0.004,0.000,0.000,0.000,0.000,0,2,0,1,7,255,1200,300,0,0,-89.516,0.632,-31.323
EX0521-092111,9,C05,prep,1200,1200,0,596954.092,0.685,-0.677,0.194,0.188,0,0,0,0,0,0,0,0,0,0.000,0,0,0.123,0.003,0.040,-0.060,-0.100,0.014,0.993,0.011,-0.002,-0.002,-0.002,0.000,0.000,0.000,0.000,0,2,0,1,7,255,1200,300,0,0,-89.516,0.632,-31.323
EX0521-092111,9,C05,prep,1235,1235,0,596959.093,0.685,-0.677,0.194,0.188,0,0,0,0,0,0,0,0,0,0.000,0,0,0.049,0.003,-0.020,-0.040,-0.020,0.015,0.993,0.011,-0.002,-0.002,-0.002,0.000,0.000,0.000,0.000,0,2,0,1,7,255,1200,300,0,0,-89.516,0.632,-31.323
EX0521-092111,9,C05,prep,1235,1235,0,596964.092,0.685,-0.677,0.194,0.188,0,0,0,0,0,0,0,0,0,0.000,0,0,0.120,0.003,-0.080,-0.040,-0.080,0.013,0.994,0.012,-0.002,-0.002,-0.002,0.000,0.000,0.000,0.000,0,2,0,1,7,255,1200,300,0,0,-89.517,0.632,-31.323
EX0521-092111,9,C05,prep,1280,1280,0,596969.091,0.685,-0.677,0.194,0.188,0,0,0,0,0,0,0,0,0,0.000,0,0,0.082,0.007,0.060,-0.040,0.040,0.014,0.993,0.012,-0.006,-0.004,-0.002,0.000,0.000,0.000,0.000,0,2,0,1,7,255,1200,300,0,0,-89.517,0.632,-31.323
EX0521-092111,9,C05,prep,1280,1280,0,596974.094,0.685,-0.677,0.194,0.188,0,0,0,0,0,0,0,0,0,0.000,0,0,0.075,0.008,0.060,-0.040,-0.020,0.016,0.993,0.011,-0.006,-0.006,-0.002,0.000,0.000,0.000,0.000,0,2,0,1,7,255,1200,300,0,0,-89.517,0.632,-31.323
EX0521-092111,9,C05,prep,1280,1280,0,596979.091,0.685,-0.677,0.194,0.188,0,0,0,0,0,0,0,0,0,0.000,0,0,0.075,0.008,0.060,-0.040,-0.020,0.015,0.994,0.010,0.006,-0.006,-0.002,0.000,0.000,0.000,0.000,0,2,0,1,7,255,1200,300,0,0,-89.517,0.632,-31.323
EX0521-092111,9,C05,prep,1280,1280,0,596984.093,0.685,-0.677,0.194,0.188,0,0,0,0,0,0,0,0,0,0.000,0,0,0.066,0.006,0.060,0.020,-0.020,0.014,0.995,0.012,0.006,-0.002,0.004,0.000,0.000,0.000,0.000,0,2,0,1,7,255,1200,300,0,0,-89.517,0.632,-31.323
EX0521-092111,9,C05,prep,1280,1280,0,596989.092,0.685,-0.677,0.194,0.188,0,0,0,0,0,0,0,0,0,0.000,0,0,0.085,0.003,-0.080,0.020,-0.020,0.015,0.994,0.011,0.002,-0.002,0.004,0.000,0.000,0.000,0.000,0,2,0,1,7,255,1200,300,0,0,-89.517,0.632,-31.323
EX0521-092111,9,C05,prep,1280,1280,0,596994.092,0.685,-0.677,0.194,0.188,0,0,0,0,0,0,0,0,0,0.000,0,0,0.092,0.004,-0.080,-0.040,-0.020,0.015,0.993,0.011,0.002,-0.004,0.004,0.000,0.000,0.000,0.000,0,2,0,1,7,255,1200,300,0,0,-89.517,0.632,-31.323
EX0521-092111,9,C05,prep,1280,1280,0,596999.092,0.685,-0.677,0.194,0.188,0,0,0,0,0,0,0,0,0,0.000,0,0,0.066,0.004,0.060,0.020,-0.020,0.015,0.993,0.011,0.002,-0.004,-0.002,0.000,0.000,0.000,0.000,0,2,0,1,7,255,1200,300,0,0,-89.518,0.632,-31.323
EX0521-092111,9,C05,prep,1280,1280,0,597004.092,0.685,-0.677,0.194,0.188,0,0,0,0,0,0,0,0,0,0.000,0,0,0.035,0.007,-0.020,0.020,-0.020,0.015,0.994,0.011,0.006,-0.004,-0.002,0.000,0.000,0.000,0.000,0,2,0,1,7,255,1200,300,0,0,-89.518,0.632,-31.323
EX0521-092111,9,C05,prep,1280,1280,0,597009.091,0.685,-0.677,0.194,0.188,0,0,0,0,0,0,0,0,0,0.000,0,0,0.075,0.003,0.040,-0.060,-0.020,0.014,0.993,0.011,0.002,-0.002,-0.002,0.000,0.000,0.000,0.000,0,2,0,1,7,255,1200,300,0,0,-89.518,0.632,-31.323
EX0521-092111,9,C05,prep,1280,1280,0,597014.091,0.685,-0.677,0.194,0.188,0,0,0,0,0,0,0,0,0,0.000,0,0,0.102,0.003,-0.020,-0.060,-0.080,0.014,0.993,0.011,-0.002,-0.002,-0.006,0.000,0.000,0.000,0.000,0,2,0,1,7,255,1200,300,0,0,-89.518,0.632,-31.323
EX0521-092111,9,C05,prep,1280,1280,0,597019.091,0.685,-0.677,0.194,0.188,0,0,0,0,0,0,0,0,0,0.000,0,0,0.066,0.004,-0.020,-0.060,-0.020,0.014,0.993,0.011,-0.004,0.000,-0.006,0.000,0.000,0.000,0.000,0,2,0,1,7,255,1200,300,0,0,-89.518,0.632,-31.323
EX0521-092111,9,C05,prep,1280,1280,0,597024.092,0.685,-0.677,0.194,0.188,0,0,0,0,0,0,0,0,0,0.000,0,0,0.066,0.003,-0.020,-0.060,-0.020,0.015,0.993,0.011,-0.002,-0.002,-0.006,0.000,0.000,0.000,0.000,0,2,0,1,7,255,1200,300,0,0,-89.518,0.631,-31.323
EX0521-092111,9,C05,prep,1280,1280,0,597029.092,0.685,-0.677,0.194,0.188,0,0,0,0,0,0,0,0,0,0.000,0,0,0.066,0.002,-0.020,-0.060,-0.020,0.015,0.993,0.011,0.002,0.000,-0.002,0.000,0.000,0.000,0.000,0,2,0,1,7,255,1200,300,0,0,-89.518,0.631,-31.323
EX0521-092111,9,C05,prep,1280,1280,0,597034.092,0.685,-0.677,0.194,0.188,0,0,0,0,0,0,0,0,0,0.000,0,0,0.102,0.004,-0.080,-0.060,-0.020,0.014,0.993,0.009,0.004,0.000,-0.002,0.000,0.000,0.000,0.000,0,2,0,1,7,255,1200,300,0,0,-89.518,0.631,-31.323
EX0521-092111,9,C05,prep,1304,1304,0,597039.092,0.685,-0.677,0.194,0.188,0,0,0,0,0,0,0,0,0,0.000,0,0,0.066,0.004,-0.020,-0.060,-0.020,0.014,0.993,0.011,0.004,0.002,-0.002,0.000,0.000,0.000,0.000,0,2,0,1,7,255,1200,300,0,0,-89.519,0.631,-31.323
EX0521-092111,9,C05,prep,1304,1304,0,597044.092,0.685,-0.677,0.194,0.188,0,0,0,0,0,0,0,0,0,0.000,0,0,0.066,0.006,-0.020,-0.060,-0.020,0.014,0.994,0.010,0.002,0.006,-0.002,0.000,0.000,0.000,0.000,0,2,0,1,7,255,1200,300,0,0,-89.519,0.631,-31.323
EX0521-092111,9,C05,prep,1304,1304,0,597049.092,0.685,-0.677,0.194,0.188,0,0,0,0,0,0,0,0,0,0.000,0,0,0.146,0.002,-0.080,-0.120,-0.020,0.014,0.995,0.012,0.000,0.002,0.008,0.000,0.000,0.000,0.000,0,2,0,1,7,255,1200,300,0,0,-89.519,0.631,-31.323
EX0521-092111,9,C05,prep,1304,1304,0,597054.091,0.685,-0.677,0.194,0.188,0,0,0,0,0,0,0,0,0,0.000,0,0,0.066,0.006,-0.020,-0.060,-0.020,0.015,0.993,0.010,0.002,0.006,0.008,0.000,0.000,0.000,0.000,0,2,0,1,7,255,1200,300,0,0,-89.519,0.631,-31.323
EX0521-092111,9,C05,prep,1305,1305,0,597059.091,0.685,-0.677,0.194,0.188,0,0,0,0,0,0,0,0,0,0.000,0,0,0.035,0.009,-0.020,0.020,-0.020,0.016,0.993,0.011,0.008,-0.004,-0.002,0.000,0.000,0.000,0.000,0,2,0,1,7,255,1200,300,0,0,-89.519,0.633,-31.323
EX0521-092111,9,C05,prep,1305,1305,0,597064.091,0.685,-0.677,0.194,0.188,0,0,0,0,0,0,0,0,0,0.000,0,0,0.092,0.009,-0.020,-0.040,-0.080,0.015,0.993,0.010,0.008,0.004,-0.002,0.000,0.000,0.000,0.000,0,2,0,1,7,255,1200,300,0,0,-89.519,0.633,-31.323
EX0521-092111,9,C05,prep,1344,1344,0,597069.092,0.685,-0.677,0.194,0.188,0,0,0,0,0,0,0,0,0,0.000,0,0,0.049,0.007,-0.020,-0.040,-0.020,0.013,0.994,0.011,0.006,0.004,-0.002,0.000,0.000,0.000,0.000,0,2,0,1,7,255,1200,300,0,0,-89.519,0.633,-31.323
EX0521-092111,9,C05,prep,1344,1344,0,597074.094,0.685,-0.677,0.194,0.188,0,0,0,0,0,0,0,0,0,0.000,0,0,0.049,0.006,-0.020,-0.040,-0.020,0.014,0.994,0.011,-0.004,0.004,0.004,0.000,0.000,0.000,0.000,0,2,0,1,7,255,1200,300,0,0,-89.519,0.633,-31.323
EX0521-092111,9,C05,prep,1344,1344,0,597079.092,0.685,-0.677,0.194,0.188,0,0,0,0,0,0,0,0,0,0.000,0,0,0.120,0.004,-0.080,-0.040,-0.080,0.015,0.994,0.011,-0.004,-0.002,0.004,0.000,0.000,0.000,0.000,0,2,0,1,7,255,1200,300,0,0,-89.520,0.633,-31.323
EX0521-092111,9,C05,prep,1344,1344,0,597084.093,0.685,-0.677,0.194,0.188,0,0,0,0,0,0,0,0,0,0.000,0,0,0.049,0.002,-0.020,-0.040,-0.020,0.014,0.993,0.010,0.000,-0.002,0.004,0.000,0.000,0.000,0.000,0,2,0,1,7,255,1200,300,0,0,-89.520,0.633,-31.323
EX0521-092111,9,C05,prep,1344,1344,0,597089.092,0.685,-0.677,0.194,0.188,0,0,0,0,0,0,0,0,0,0.000,0,0,0.104,0.004,-0.020,-0.100,-0.020,0.015,0.994,0.010,0.002,0.004,0.004,0.000,0.000,0.000,0.000,0,2,0,1,7,255,1200,300,0,0,-89.520,0.632,-31.323
EX0521-092111,9,C05,prep,1344,1344,0,597094.091,0.685,-0.677,0.194,0.188,0,0,0,0,0,0,0,0,0,0.000,0,0,0.060,0.007,-0.020,-0.040,0.040,0.016,0.994,0.011,0.006,0.004,0.004,0.000,0.000,0.000,0.000,0,2,0,1,7,255,1200,300,0,0,-89.520,0.632,-31.323
EX0521-092111,9,C05,prep,1359,1359,0,597099.091,0.685,-0.677,0.194,0.188,0,0,0,0,0,0,0,0,0,0.000,0,0,0.092,0.008,-0.080,-0.040,-0.020,0.015,0.993,0.012,0.006,-0.006,0.004,0.000,0.000,0.000,0.000,0,2,0,1,7,255,1200,300,0,0,-89.520,0.632,-31.323
EX0521-092111,9,C05,prep,1359,1359,0,597104.091,0.685,-0.677,0.194,0.188,0,0,0,0,0,0,0,0,0,0.000,0,0,0.049,0.006,-0.020,-0.040,-0.020,0.014,0.993,0.011,-0.002,-0.006,-0.002,0.000,0.000,0.000,0.000,0,2,0,1,7,255,1200,300,0,0,-89.520,0.632,-31.323
EX0521-092111,9,C05,prep,1359,1359,0,597109.092,0.685,-0.677,0.194,0.188,0,0,0,0,0,0,0,0,0,0.000,0,0,0.075,0.003,-0.020,-0.060,-0.040,0.014,0.994,0.011,-0.002,-0.002,-0.002,0.000,0.000,0.000,0.000,0,2,0,1,7,255,1200,300,0,0,-89.520,0.632,-31.323
EX0521-092111,9,C05,prep,1359,1359,0,597114.092,0.685,-0.677,0.194,0.188,0,0,0,0,0,0,0,0,0,0.000,0,0,0.075,0.004,-0.020,-0.060,-0.040,0.013,0.995,0.011,-0.004,0.002,0.008,0.000,0.000,0.000,0.000,0,2,0,1,7,255,1200,300,0,0,-89.520,0.632,-31.323
EX0521-092111,9,C05,prep,1375,1375,0,597119.092,0.685,-0.677,0.194,0.188,0,0,0,0,0,0,0,0,0,0.000,0,0,0.108,0.011,-0.080,-0.060,-0.040,0.013,0.995,0.011,-0.010,0.004,0.012,0.000,0.000,0.000,0.000,0,2,0,1,7,255,1200,300,0,0,-89.521,0.632,-31.323
EX0521-092111,9,C05,prep,1375,1375,0,597124.092,0.685,-0.677,0.194,0.188,0,0,0,0,0,0,0,0,0,0.000,0,0,0.075,0.011,-0.020,-0.060,-0.040,0.014,0.993,0.011,-0.010,0.004,0.012,0.000,0.000,0.000,0.000,0,2,0,1,7,255,1200,300,0,0,-89.521,0.632,-31.323
EX0521-092111,9,C05,prep,1375,1375,0,597129.092,0.685,-0.677,0.194,0.188,0,0,0,0,0,0,0,0,0,0.000,0,0,0.082,0.008,0.040,-0.060,-0.040,0.015,0.993,0.011,-0.008,0.000,-0.002,0.000,0.000,0.000,0.000,0,2,0,1,7,255,1200,300,0,0,-89.521,0.632,-31.323
EX0521-092111,9,C05,prep,1375,1375,0,597134.091,0.685,-0.677,0.194,0.188,0,0,0,0,0,0,0,0,0,0.000,0,0,0.075,0.000,-0.020,-0.060,-0.040,0.014,0.993,0.011,0.000,0.000,-0.006,0.000,0.000,0.000,0.000,0,2,0,1,7,255,1200,300,0,0,-89.521,0.632,-31.323
EX0521-092111,9,C05,prep,1401,1401,0,597139.091,0.685,-0.677,0.194,0.188,0,0,0,0,0,0,0,0,0,0.000,0,0,0.075,0.002,-0.020,-0.060,0.040,0.014,0.994,0.011,0.000,0.002,-0.006,0.000,0.000,0.000,0.000,0,2,0,1,7,255,1200,300,0,0,-89.521,0.632,-31.323
EX0521-092111,9,C05,prep,1401,1401,0,597144.091,0.685,-0.677,0.194,0.188,0,0,0,0,0,0,0,0,0,0.000,0,0,0.075,0.002,-0.020,-0.060,-0.040,0.014,0.994,0.011,0.000,0.002,0.002,0.000,0.000,0.000,0.000,0,2,0,1,7,255,1200,300,0,0,-89.521,0.632,-31.323
EX0521-092111,9,C05,prep,1402,1402,0,597149.091,0.685,-0.677,0.194,0.188,0,0,0,0,0,0,0,0,0,0.000,0,0,0.089,0.004,-0.080,0.000,-0.040,0.014,0.994,0.011,-0.004,0.002,0.002,0.000,0.000,0.000,0.000,0,2,0,1,7,255,1200,300,0,0,-89.521,0.632,-31.323
EX0521-092111,9,C05,prep,1402,1402,0,597154.092,0.685,-0.677,0.194,0.188,0,0,0,0,0,0,0,0,0,0.000,0,0,0.075,0.006,-0.020,-0.060,-0.040,0.013,0.993,0.010,-0.004,0.004,0.002,0.000,0.000,0.000,0.000,0,2,0,1,7,255,1200,300,0,0,-89.522,0.632,-31.323
EX0521-092111,9,C05,prep,1402,1402,0,597159.092,0.685,-0.677,0.194,0.188,0,0,0,0,0,0,0,0,0,0.000,0,0,0.141,0.013,-0.080,-0.060,-0.100,0.015,0.994,0.009,-0.004,0.012,0.002,0.000,0.000,0.000,0.000,0,2,0,1,7,255,1200,300,0,0,-89.522,0.632,-31.323
EX0521-092111,9,C05,prep,1402,1402,0,597164.092,0.685,-0.677,0.194,0.188,0,0,0,0,0,0,0,0,0,0.000,0,0,0.045,0.016,-0.020,0.000,-0.040,0.015,0.993,0.010,0.010,0.012,-0.002,0.000,0.000,0.000,0.000,0,2,0,1,7,255,1200,300,0,0,-89.522,0.632,-31.323
EX0521-092111,9,C05,prep,1439,1439,0,597169.092,0.685,-0.677,0.194,0.188,0,0,0,0,0,0,0,0,0,0.000,0,0,0.075,0.011,-0.020,-0.060,-0.040,0.014,0.993,0.011,0.010,0.004,-0.006,0.000,0.000,0.000,0.000,0,2,0,1,7,255,1200,300,0,0,-89.522,0.632,-31.323
EX0521-092111,9,C05,prep,1439,1439,0,597174.093,0.685,-0.677,0.194,0.188,0,0,0,0,0,0,0,0,0,0.000,0,0,0.108,0.006,-0.080,-0.060,-0.040,0.014,0.993,0.010,0.004,0.004,-0.006,0.000,0.000,0.000,0.000,0,2,0,1,7,255,1200,300,0,0,-89.522,0.632,-31.323
EX0521-092111,9,C05,prep,1439,1439,0,597179.092,0.685,-0.677,0.194,0.188,0,0,0,0,0,0,0,0,0,0.000,0,0,0.082,0.006,0.040,-0.060,-0.040,0.014,0.994,0.011,-0.004,0.004,-0.002,0.000,0.000,0.000,0.000,0,2,0,1,7,255,1200,300,0,0,-89.522,0.632,-31.323
EX0521-092111,9,C05,prep,1439,1439,0,597184.093,0.685,-0.677,0.194,0.188,0,0,0,0,0,0,0,0,0,0.000,0,0,0.123,0.004,0.040,-0.060,-0.100,0.014,0.994,0.012,-0.004,-0.002,0.002,0.000,0.000,0.000,0.000,0,2,0,1,7,255,1200,300,0,0,-89.522,0.632,-31.323
EX0521-092111,9,C05,prep,1439,1439,0,597189.091,0.685,-0.677,0.194,0.188,0,0,0,0,0,0,0,0,0,0.000,0,0,0.045,0.004,-0.020,0.000,-0.040,0.015,0.995,0.011,-0.004,-0.002,0.008,0.000,0.000,0.000,0.000,0,2,0,1,7,255,1200,300,0,0,-89.522,0.632,-31.323
EX0521-092111,9,C05,prep,1439,1439,0,597194.092,0.685,-0.677,0.194,0.188,0,0,0,0,0,0,0,0,0,0.000,0,0,0.075,0.004,-0.020,-0.060,-0.040,0.015,0.993,0.011,0.004,-0.002,0.008,0.000,0.000,0.000,0.000,0,2,0,1,7,255,1200,300,0,0,-89.523,0.632,-31.323
EX0521-092111,9,C05,prep,1469,1469,0,597199.092,0.685,-0.677,0.194,0.188,0,0,0,0,0,0,0,0,0,0.000,0,0,0.075,0.004,-0.020,-0.060,-0.040,0.014,0.994,0.011,0.004,0.000,0.002,0.000,0.000,0.000,0.000,0,2,0,1,7,255,1200,300,0,0,-89.523,0.632,-31.323
EX0521-092111,9,C05,prep,1469,1469,0,597204.092,0.685,-0.677,0.194,0.188,0,0,0,0,0,0,0,0,0,0.000,0,0,0.075,0.004,-0.020,-0.060,-0.040,0.015,0.993,0.011,0.004,-0.002,-0.002,0.000,0.000,0.000,0.000,0,2,0,1,7,255,1200,300,0,0,-89.523,0.632,-31.323
EX0521-092111,9,C05,prep,1469,1469,0,597209.092,0.685,-0.677,0.194,0.188,0,0,0,0,0,0,0,0,0,0.000,0,0,0.066,0.004,-0.020,-0.060,-0.020,0.014,0.995,0.011,-0.004,0.000,0.002,0.000,0.000,0.000,0.000,0,2,0,1,7,255,1200,300,0,0,-89.523,0.632,-31.323
EX0521-092111,9,C05,prep,1469,1469,0,597214.091,0.685,-0.677,0.194,0.188,0,0,0,0,0,0,0,0,0,0.000,0,0,0.035,0.006,-0.020,0.020,-0.020,0.015,0.994,0.010,0.004,0.004,0.008,0.000,0.000,0.000,0.000,0,2,0,1,7,255,1200,300,0,0,-89.523,0.632,-31.323
EX0521-092111,9,C05,prep,1470,1470,0,597219.092,0.685,-0.677,0.194,0.188,0,0,0,0,0,0,0,0,0,0.000,0,0,0.066,0.006,-0.020,-0.060,-0.020,0.014,0.994,0.011,-0.004,0.004,0.008,0.000,0.000,0.000,0.000,0,2,0,1,7,255,1200,300,0,0,-89.523,0.632,-31.323
EX0521-092111,9,C05,prep,1470,1470,0,597224.091,0.685,-0.677,0.194,0.188,0,0,0,0,0,0,0,0,0,0.000,0,0,0.066,0.002,-0.020,-0.060,-0.020,0.014,0.993,0.011,0.000,0.002,0.008,0.000,0.000,0.000,0.000,0,2,0,1,7,255,1200,300,0,0,-89.523,0.632,-31.323
EX0521-092111,9,C05,prep,1510,1510,0,597229.091,0.685,-0.677,0.194,0.188,0,0,0,0,0,0,0,0,0,0.000,0,0,0.075,0.003,0.040,-0.060,-0.020,0.014,0.993,0.010,-0.002,0.002,-0.002,0.000,0.000,0.000,0.000,0,2,0,1,7,255,1200,300,0,0,-89.523,0.632,-31.323
EX0521-092111,9,C05,prep,1510,1510,0,597234.092,0.685,-0.677,0.194,0.188,0,0,0,0,0,0,0,0,0,0.000,0,0,0.066,0.002,-0.020,-0.060,-0.020,0.015,0.994,0.010,0.000,0.002,-0.002,0.000,0.000,0.000,0.000,0,2,0,1,7,255,1200,300,0,0,-89.524,0.631,-31.323
EX0521-092111,9,C05,prep,1510,1510,0,597239.092,0.685,-0.677,0.194,0.188,0,0,0,0,0,0,0,0,0,0.000,0,0,0.066,0.008,-0.020,-0.060,-0.020,0.014,0.994,0.010,-0.002,0.008,0.002,0.000,0.000,0.000,0.000,0,2,0,1,7,255,1200,300,0,0,-89.524,0.631,-31.323
EX0521-092111,9,C05,prep,1510,1510,0,597244.092,0.685,-0.677,0.194,0.188,0,0,0,0,0,0,0,0,0,0.000,0,0,0.123,0.002,0.040,-0.060,-0.100,0.014,0.994,0.011,0.000,0.002,0.002,0.000,0.000,0.000,0.000,0,2,0,1,7,255,1200,300,0,0,-89.524,0.631,-31.323
EX0521-092111,9,C05,prep,1510,1510,0,597249.092,0.685,-0.677,0.194,0.188,0,0,0,0,0,0,0,0,0,0.000,0,0,0.085,0.002,-0.080,0.020,-0.020,0.014,0.995,0.011,-0.002,0.000,0.008,0.000,0.000,0.000,0.000,0,2,0,1,7,255,1200,300,0,0,-89.524,0.631,-31.323
EX0521-092111,9,C05,prep,1510,1510,0,597254.092,0.685,-0.677,0.194,0.188,0,0,0,0,0,0,0,0,0,0.000,0,0,0.035,0.000,-0.020,0.020,-0.020,0.015,0.993,0.012,0.000,0.000,0.008,0.000,0.000,0.000,0.000,0,2,0,1,7,255,1200,300,0,0,-89.524,0.631,-31.323
EX0521-092111,9,C05,prep,1534,1534,0,597259.091,0.685,-0.677,0.194,0.188,0,0,0,0,0,0,0,0,0,0.000,0,0,0.028,0.006,0.000,0.020,-0.020,0.015,0.993,0.011,0.000,-0.006,-0.002,0.000,0.000,0.000,0.000,0,2,0,1,7,255,1200,300,0,0,-89.524,0.631,-31.323
EX0521-092111,9,C05,prep,1534,1534,0,597264.091,0.685,-0.677,0.194,0.188,0,0,0,0,0,0,0,0,0,0.000,0,0,0.045,0.006,0.000,-0.040,-0.020,0.014,0.994,0.011,0.000,-0.006,-0.002,0.000,0.000,0.000,0.000,0,2,0,1,7,255,1200,300,0,0,-89.524,0.631,-31.323
EX0521-092111,9,C05,prep,1536,1536,0,597269.091,0.685,-0.677,0.194,0.188,0,0,0,0,0,0,0,0,0,0.000,0,0,0.075,0.000,0.060,-0.040,-0.020,0.014,0.994,0.010,0.000,0.000,0.002,0.000,0.000,0.000,0.000,0,2,0,1,7,255,1200,300,0,0,-89.525,0.631,-31.323
EX0521-092111,9,C05,prep,1536,1536,0,597274.092,0.685,-0.677,0.194,0.188,0,0,0,0,0,0,0,0,0,0.000,0,0,0.089,0.000,0.000,-0.040,-0.080,0.014,0.994,0.011,0.000,0.000,0.006,0.000,0.000,0.000,0.000,0,2,0,1,7,255,1200,300,0,0,-89.525,0.631,-31.323
EX0521-092111,9,C05,prep,1537,1537,0,597279.092,0.685,-0.677,0.194,0.188,0,0,0,0,0,0,0,0,0,0.000,0,0,0.123,0.008,0.060,-0.100,0.040,0.014,0.994,0.011,-0.008,0.000,0.006,0.000,0.000,0.000,0.000,0,2,0,1,7,255,1200,300,0,0,-89.525,0.631,-31.323
EX0521-092111,9,C05,prep,1537,1537,0,597284.093,0.685,-0.677,0.194,0.188,0,0,0,0,0,0,0,0,0,0.000,0,0,0.045,0.008,0.000,-0.040,-0.020,0.014,0.994,0.011,-0.008,0.000,0.006,0.000,0.000,0.000,0.000,0,2,0,1,7,255,1200,300,0,0,-89.525,0.631,-31.323
EX0521-092111,9,C05,prep,1567,1567,0,597289.092,0.685,-0.677,0.194,0.188,0,0,0,0,0,0,0,0,0,0.000,0,0,0.108,0.000,0.060,-0.040,-0.080,0.015,0.994,0.011,0.000,0.000,0.002,0.000,0.000,0.000,0.000,0,2,0,1,7,255,1200,300,0,0,-89.525,0.631,-31.323
EX0521-092111,9,C05,prep,1567,1567,0,597294.092,0.685,-0.677,0.194,0.188,0,0,0,0,0,0,0,0,0,0.000,0,0,0.028,0.000,0.000,0.020,-0.020,0.013,0.995,0.011,0.000,0.000,0.002,0.000,0.000,0.000,0.000,0,2,0,1,7,255,1200,300,0,0,-89.525,0.631,-31.323
EX0521-092111,9,C05,prep,1567,1567,0,597299.091,0.685,-0.677,0.194,0.188,0,0,0,0,0,0,0,0,0,0.000,0,0,0.045,0.012,0.000,-0.040,-0.020,0.013,0.994,0.011,-0.012,0.002,0.002,0.000,0.000,0.000,0.000,0,2,0,1,7,255,1200,300,0,0,-89.525,0.631,-31.323
EX0521-092111,9,C05,prep,1567,1567,0,597304.091,0.685,-0.677,0.194,0.188,0,0,0,0,0,0,0,0,0,0.000,0,0,0.045,0.013,0.000,-0.040,-0.020,0.013,0.994,0.011,-0.012,0.006,0.002,0.000,0.000,0.000,0.000,0,2,0,1,7,255,1200,300,0,0,-89.525,0.631,-31.323
EX0521-092111,9,C05,prep,1567,1567,0,597309.091,0.685,-0.677,0.194,0.188,0,0,0,0,0,0,0,0,0,0.000,0,0,0.082,0.008,0.040,-0.060,0.040,0.016,0.993,0.011,-0.008,0.002,0.002,0.000,0.000,0.000,0.000,0,2,0,1,7,255,1200,300,0,0,-89.526,0.631,-31.323
EX0521-092111,9,C05,prep,1567,1567,0,597314.092,0.685,-0.677,0.194,0.188,0,0,0,0,0,0,0,0,0,0.000,0,0,0.066,0.011,-0.020,-0.060,-0.020,0.016,0.994,0.010,0.010,-0.004,0.002,0.000,0.000,0.000,0.000,0,2,0,1,7,255,1200,300,0,0,-89.526,0.632,-31.323
EX0521-092111,9,C05,prep,1567,1567,0,597319.092,0.685,-0.677,0.194,0.188,0,0,0,0,0,0,0,0,0,0.000,0,0,0.035,0.012,-0.020,0.020,-0.020,0.015,0.995,0.011,0.010,-0.006,0.002,0.000,0.000,0.000,0.000,0,2,0,1,7,255,1200,300,0,0,-89.526,0.632,-31.323
EX0521-092111,9,C05,prep,1567,1567,0,597324.092,0.685,-0.677,0.194,0.188,0,0,0,0,0,0,0,0,0,0.000,0,0,0.066,0.006,-0.020,-0.060,-0.020,0.015,0.994,0.012,0.000,-0.006,0.002,0.000,0.000,0.000,0.000,0,2,0,1,7,255,1200,300,0,0,-89.526,0.632,-31.323
EX0521-092111,9,C05,prep,1600,1600,0,597329.092,0.685,-0.677,0.194,0.188,0,0,0,0,0,0,0,0,0,0.000,0,0,0.102,0.008,-0.080,-0.060,-0.020,0.015,0.995,0.011,0.000,-0.008,0.012,0.000,0.000,0.000,0.000,0,2,0,1,7,255,1200,300,0,0,-89.526,0.632,-31.323
EX0521-092111,9,C05,prep,1600,1600,0,597334.092,0.685,-0.677,0.194,0.188,0,0,0,0,0,0,0,0,0,0.000,0,0,0.066,0.009,-0.020,-0.060,-0.020,0.015,0.993,0.011,0.004,-0.008,0.002,0.000,0.000,0.000,0.000,0,2,0,1,7,255,1200,300,0,0,-89.526,0.632,-31.323
EX0521-092111,9,C05,prep,1600,1600,0,597339.091,0.685,-0.677,0.194,0.188,0,0,0,0,0,0,0,0,0,0.000,0,0,0.066,0.004,-0.020,-0.060,-0.020,0.014,0.995,0.011,0.004,-0.002,0.012,0.000,0.000,0.000,0.000,0,2,0,1,7,255,1200,300,0,0,-89.526,0.632,-31.323
EX0521-092111,9,C05,prep,1600,1600,0,597344.091,0.685,-0.677,0.194,0.188,0,0,0,0,0,0,0,0,0,0.000,0,0,0.066,0.008,-0.020,-0.060,-0.020,0.014,0.994,0.012,-0.008,-0.002,0.006,0.000,0.000,0.000,0.000,0,2,0,1,7,255,1200,300,0,0,-89.526,0.632,-31.323
EX0521-092111,9,C05,prep,1601,1601,0,597349.091,0.685,-0.677,0.194,0.188,0,0,0,0,0,0,0,0,0,0.000,0,0,0.066,0.008,-0.020,-0.060,-0.020,0.014,0.993,0.011,-0.008,0.000,0.006,0.000,0.000,0.000,0.000,0,2,0,1,7,255,1200,300,0,0,-89.527,0.632,-31.323
EX0521-092111,9,C05,prep,1601,1601,0,597354.092,0.685,-0.677,0.194,0.188,0,0,0,0,0,0,0,0,0,0.000,0,0,0.066,0.008,-0.020,-0.060,-0.020,0.015,0.994,0.011,-0.008,-0.002,0.006,0.000,0.000,0.000,0.000,0,2,0,1,7,255,1200,300,0,0,-89.527,0.632,-31.323
EX0521-092111,9,C05,prep,1616,1616,0,597359.092,0.685,-0.677,0.194,0.188,0,0,0,0,0,0,0,0,0,0.000,0,0,0.075,0.004,-0.020,-0.060,-0.040,0.015,0.994,0.010,0.004,0.000,0.002,0.000,0.000,0.000,0.000,0,2,0,1,7,255,1200,300,0,0,-89.527,0.632,-31.323
EX0521-092111,9,C05,prep,1616,1616,0,597364.092,0.685,-0.677,0.194,0.188,0,0,0,0,0,0,0,0,0,0.000,0,0,0.075,0.004,-0.020,-0.060,-0.040,0.014,0.994,0.011,0.004,0.000,0.006,0.000,0.000,0.000,0.000,0,2,0,1,7,255,1200,300,0,0,-89.527,0.632,-31.323
EX0521-092111,9,C05,prep,1648,1648,0,597369.092,0.685,-0.677,0.194,0.188,0,0,0,0,0,0,0,0,0,0.000,0,0,0.075,0.002,-0.020,-0.060,-0.040,0.013,0.993,0.011,0.000,0.002,0.002,0.000,0.000,0.000,0.000,0,2,0,1,7,255,1200,300,0,0,-89.527,0.632,-31.323
EX0521-092111,9,C05,prep,1648,1648,0,597374.093,0.685,-0.677,0.194,0.188,0,0,0,0,0,0,0,0,0,0.000,0,0,0.128,0.012,-0.020,-0.120,-0.040,0.013,0.994,0.011,-0.012,0.002,0.006,0.000,0.000,0.000,0.000,0,2,0,1,7,255,1200,300,0,0,-89.527,0.632,-31.323
EX0521-092111,9,C05,prep,1648,1648,0,597379.092,0.685,-0.677,0.194,0.188,0,0,0,0,0,0,0,0,0,0.000,0,0,0.045,0.012,-0.020,0.000,-0.040,0.015,0.994,0.010,-0.012,0.002,0.006,0.000,0.000,0.000,0.000,0,2,0,1,7,255,1200,300,0,0,-89.527,0.632,-31.323
EX0521-092111,9,C05,prep,1648,1648,0,597384.093,0.685,-0.677,0.194,0.188,0,0,0,0,0,0,0,0,0,0.000,0,0,0.075,0.008,-0.020,-0.060,-0.040,0.015,0.994,0.011,0.008,0.000,0.006,0.000,0.000,0.000,0.000,0,2,0,1,7,255,1200,300,0,0,-89.528,0.632,-31.323
EX0521-092111,9,C05,prep,1648,1648,0,597389.091,0.685,-0.677,0.194,0.188,0,0,0,0,0,0,0,0,0,0.000,0,0,0.075,0.009,-0.020,-0.060,-0.040,0.015,0.993,0.011,0.008,-0.004,0.006,0.000,0.000,0.000,0.000,0,2,0,1,7,255,1200,300,0,0,-89.528,0.632,-31.323
EX0521-092111,9,C05,prep,1648,1648,0,597394.092,0.685,-0.677,0.194,0.188,0,0,0,0,0,0,0,0,0,0.000,0,0,0.082,0.004,0.040,-0.060,-0.040,0.013,0.993,0.011,0.000,-0.004,-0.004,0.000,0.000,0.000,0.000,0,2,0,1,7,255,1200,300,0,0,-89.528,0.632,-31.323
EX0521-092111,9,C05,prep,1648,1648,0,597399.092,0.685,-0.677,0.194,0.188,0,0,0,0,0,0,0,0,0,0.000,0,0,0.075,0.006,-0.020,-0.060,-0.040,0.014,0.994,0.011,-0.004,0.004,-0.004,0.000,0.000,0.000,0.000,0,2,0,1,7,255,1200,300,0,0,-89.528,0.632,-31.323
EX0521-092111,9,C05,prep,1648,1648,0,597404.092,0.685,-0.677,0.194,0.188,0,0,0,0,0,0,0,0,0,0.000,0,0,0.075,0.007,-0.020,-0.060,-0.040,0.014,0.996,0.010,-0.004,0.006,0.006,0.000,0.000,0.000,0.000,0,2,0,1,7,255,1200,300,0,0,-89.528,0.632,-31.323
EX0521-092111,9,C05,prep,1664,1664,0,597409.092,0.685,-0.677,0.194,0.188,0,0,0,0,0,0,0,0,0,0.000,0,0,0.085,0.006,-0.080,0.020,-0.020,0.014,0.995,0.010,0.002,0.006,0.010,0.000,0.000,0.000,0.000,0,2,0,1,7,255,1200,300,0,0,-89.528,0.632,-31.323
EX0521-092111,9,C05,prep,1664,1664,0,597414.092,0.685,-0.677,0.194,0.188,0,0,0,0,0,0,0,0,0,0.000,0,0,0.092,0.007,-0.020,-0.040,-0.080,0.015,0.993,0.011,0.004,0.006,0.010,0.000,0.000,0.000,0.000,0,2,0,1,7,255,1200,300,0,0,-89.528,0.632,-31.323
EX0521-092111,9,C05,prep,1664,1664,0,597419.092,0.685,-0.677,0.194,0.188,0,0,0,0,0,0,0,0,0,0.000,0,0,0.075,0.004,0.060,-0.040,-0.020,0.015,0.994,0.011,0.004,-0.002,0.002,0.000,0.000,0.000,0.000,0,2,0,1,7,255,1200,300,0,0,-89.528,0.632,-31.323
EX0521-092111,9,C05,prep,1664,1664,0,597424.091,0.685,-0.677,0.194,0.188,0,0,0,0,0,0,0,0,0,0.000,0,0,0.035,0.004,-0.020,0.020,-0.020,0.015,0.995,0.011,0.004,-0.002,0.002,0.000,0.000,0.000,0.000,0,2,0,1,7,255,1200,300,0,0,-89.529,0.632,-31.323
EX0521-092111,9,C05,prep,1679,1679,0,597429.091,0.685,-0.677,0.194,0.188,0,0,0,0,0,0,0,0,0,0.000,0,0,0.049,0.007,-0.020,-0.040,-0.020,0.016,0.993,0.012,0.004,-0.006,0.002,0.000,0.000,0.000,0.000,0,2,0,1,7,255,1200,300,0,0,-89.529,0.632,-31.323
EX0521-092111,9,C05,prep,1679,1679,0,597434.092,0.685,-0.677,0.194,0.188,0,0,0,0,0,0,0,0,0,0.000,0,0,0.102,0.009,0.060,0.020,-0.080,0.015,0.995,0.011,0.004,-0.008,0.010,0.000,0.000,0.000,0.000,0,2,0,1,7,255,1200,300,0,0,-89.529,0.632,-31.323
EX0521-092111,9,C05,prep,1697,1697,0,597439.092,0.685,-0.677,0.194,0.188,0,0,0,0,0,0,0,0,0,0.000,0,0,0.075,0.009,0.060,-0.040,-0.020,0.014,0.994,0.011,0.004,-0.008,0.000,0.000,0.000,0.000,0.000,0,2,0,1,7,255,1200,300,0,0,-89.529,0.631,-31.323
EX0521-092111,9,C05,prep,1697,1697,0,597444.092,0.685,-0.677,0.194,0.188,0,0,0,0,0,0,0,0,0,0.000,0,0,0.092,0.009,-0.020,-0.040,-0.080,0.016,0.994,0.011,0.004,-0.008,0.006,0.000,0.000,0.000,0.000,0,2,0,1,7,255,1200,300,0,0,-89.529,0.633,-31.323
EX0521-092111,9,C05,prep,1698,1698,0,597449.092,0.685,-0.677,0.194,0.188,0,0,0,0,0,0,0,0,0,0.000,0,0,0.092,0.010,-0.020,-0.040,-0.080,0.015,0.994,0.012,-0.002,-0.010,0.000,0.000,0.000,0.000,0.000,0,2,0,1,7,255,1200,300,0,0,-89.529,0.633,-31.323
EX0521-092111,9,C05,prep,1698,1698,0,597454.091,0.685,-0.677,0.194,0.188,0,0,0,0,0,0,0,0,0,0.000,0,0,0.049,0.010,-0.020,-0.040,-0.020,0.014,0.993,0.011,-0.002,-0.010,0.000,0.000,0.000,0.000,0.000,0,2,0,1,7,255,1200,300,0,0,-89.529,0.633,-31.323
EX0521-092111,9,C05,prep,1712,1712,0,597459.091,0.685,-0.677,0.194,0.188,0,0,0,0,0,0,0,0,0,0.000,0,0,0.115,0.008,-0.080,0.020,-0.080,0.014,0.994,0.012,-0.006,-0.006,0.000,0.000,0.000,0.000,0.000,0,2,0,1,7,255,1200,300,0,0,-89.529,0.633,-31.323
EX0521-092111,9,C05,prep,1712,1712,0,597464.091,0.685,-0.677,0.194,0.188,0,0,0,0,0,0,0,0,0,0.000,0,0,0.092,0.006,-0.080,-0.040,-0.020,0.014,0.993,0.010,-0.006,0.000,-0.004,0.000,0.000,0.000,0.000,0,2,0,1,7,255,1200,300,0,0,-89.530,0.633,-31.323
EX0521-092111,9,C05,prep,1734,1734,0,597469.092,0.685,-0.677,0.194,0.188,0,0,0,0,0,0,0,0,0,0.000,0,0,0.035,0.006,-0.020,0.020,-0.020,0.014,0.994,0.010,-0.002,0.006,0.000,0.000,0.000,0.000,0.000,0,2,0,1,7,255,1200,300,0,0,-89.530,0.633,-31.323
EX0521-092111,9,C05,prep,1734,1734,0,597474.092,0.685,-0.677,0.194,0.188,0,0,0,0,0,0,0,0,0,0.000,0,0,0.118,0.006,0.060,-0.100,-0.020,0.013,0.993,0.011,-0.002,0.006,-0.004,0.000,0.000,0.000,0.000,0,2,0,1,7,255,1200,300,0,0,-89.530,0.633,-31.323
EX0521-092111,9,C05,prep,1768,1768,0,597479.093,0.685,-0.677,0.194,0.188,0,0,0,0,0,0,0,0,0,0.000,0,0,0.049,0.003,-0.020,-0.040,-0.020,0.015,0.993,0.010,-0.002,0.002,-0.004,0.000,0.000,0.000,0.000,0,2,0,1,7,255,1200,300,0,0,-89.530,0.633,-31.323
EX0521-092111,9,C05,prep,1768,1768,0,597484.093,0.685,-0.677,0.194,0.188,0,0,0,0,0,0,0,0,0,0.000,0,0,0.104,0.003,-0.020,-0.100,-0.020,0.014,0.993,0.010,-0.002,0.002,-0.004,0.000,0.000,0.000,0.000,0,2,0,1,7,255,1200,300,0,0,-89.530,0.633,-31.323
EX0521-092111,9,C05,prep,1768,1768,0,597489.092,0.685,-0.677,0.194,0.188,0,0,0,0,0,0,0,0,0,0.000,0,0,0.049,0.003,-0.020,-0.040,-0.020,0.014,0.993,0.011,-0.002,0.002,-0.004,0.000,0.000,0.000,0.000,0,2,0,1,7,255,1200,300,0,0,-89.530,0.633,-31.323
EX0521-092111,9,C05,prep,1768,1768,0,597494.091,0.685,-0.677,0.194,0.188,0,0,0,0,0,0,0,0,0,0.000,0,0,0.104,0.004,-0.020,-0.100,-0.020,0.014,0.994,0.011,-0.002,0.004,-0.004,0.000,0.000,0.000,0.000,0,2,0,1,7,255,1200,300,0,0,-89.530,0.633,-31.323
EX0521-092111,9,C05,prep,1768,1768,0,597499.091,0.685,-0.677,0.194,0.188,0,0,0,0,0,0,0,0,0,0.000,0,0,0.104,0.002,-0.020,-0.100,-0.020,0.014,0.995,0.011,-0.002,0.000,0.000,0.000,0.000,0.000,0.000,0,2,0,1,7,255,1200,300,0,0,-89.531,0.633,-31.323
EX0521-092111,9,C05,prep,1768,1768,0,597504.091,0.685,-0.677,0.194,0.188,0,0,0,0,0,0,0,0,0,0.000,0,0,0.108,0.002,0.060,-0.040,-0.080,0.015,0.994,0.011,-0.002,0.000,0.000,0.000,0.000,0.000,0.000,0,2,0,1,7,255,1200,300,0,0,-89.531,0.632,-31.323
EX0521-092111,9,C05,prep,1770,1770,0,597509.092,0.685,-0.677,0.194,0.188,0,0,0,0,0,0,0,0,0,0.000,0,0,0.045,0.002,-0.020,0.000,-0.040,0.015,0.994,0.011,0.000,-0.002,0.000,0.000,0.000,0.000,0.000,0,2,0,1,7,255,1200,300,0,0,-89.531,0.632,-31.323
EX0521-092111,9,C05,prep,1770,1770,0,597514.092,0.685,-0.677,0.194,0.188,0,0,0,0,0,0,0,0,0,0.000,0,0,0.082,0.002,0.040,-0.060,-0.040,0.014,0.994,0.011,0.000,-0.002,0.000,0.000,0.000,0.000,0.000,0,2,0,1,7,255,1200,300,0,0,-89.531,0.632,-31.323
EX0521-092111,9,C05,prep,1771,1771,0,597519.092,0.685,-0.677,0.194,0.188,0,0,0,0,0,0,0,0,0,0.000,0,0,0.075,0.000,-0.020,-0.060,-0.040,0.015,0.995,0.010,0.000,0.000,0.006,0.000,0.000,0.000,0.000,0,2,0,1,7,255,1200,300,0,0,-89.531,0.632,-31.323
EX0521-092111,9,C05,prep,1771,1771,0,597524.092,0.685,-0.677,0.194,0.188,0,0,0,0,0,0,0,0,0,0.000,0,0,0.108,0.002,0.040,0.000,-0.100,0.014,0.994,0.011,-0.002,0.000,0.006,0.000,0.000,0.000,0.000,0,2,0,1,7,255,1200,300,0,0,-89.531,0.632,-31.323
EX0521-092111,9,C05,prep,1776,1776,0,597529.092,0.685,-0.677,0.194,0.188,0,0,0,0,0,0,0,0,0,0.000,0,0,0.075,0.002,-0.020,-0.060,-0.040,0.014,0.993,0.011,-0.002,0.000,0.000,0.000,0.000,0.000,0.000,0,2,0,1,7,255,1200,300,0,0,-89.531,0.632,-31.323
EX0521-092111,9,C05,prep,1776,1776,0,597534.091,0.685,-0.677,0.194,0.188,0,0,0,0,0,0,0,0,0,0.000,0,0,0.075,0.004,-0.020,-0.060,-0.040,0.014,0.995,0.011,-0.004,0.000,0.000,0.000,0.000,0.000,0.000,0,2,0,1,7,255,1200,300,0,0,-89.531,0.632,-31.323
EX0521-092111,9,C05,prep,1801,1801,0,597539.091,0.685,-0.677,0.194,0.188,0,0,0,0,0,0,0,0,0,0.000,0,0,0.057,0.004,0.040,0.000,-0.040,0.015,0.994,0.011,-0.004,-0.002,0.000,0.000,0.000,0.000,0.000,0,2,0,1,7,255,1200,300,0,0,-89.532,0.632,-31.323
EX0521-092111,9,C05,prep,1801,1801,0,597544.091,0.685,-0.677,0.194,0.188,0,0,0,0,0,0,0,0,0,0.000,0,0,0.075,0.003,-0.020,-0.060,-0.040,0.015,0.994,0.011,0.002,-0.002,0.000,0.000,0.000,0.000,0.000,0,2,0,1,7,255,1200,300,0,0,-89.532,0.632,-31.323
EX0521-092111,9,C05,prep,1801,1801,0,597549.092,0.685,-0.677,0.194,0.188,0,0,0,0,0,0,0,0,0,0.000,0,0,0.045,0.003,-0.020,0.000,-0.040,0.013,0.995,0.011,0.002,-0.002,0.000,0.000,0.000,0.000,0.000,0,2,0,1,7,255,1200,300,0,0,-89.532,0.632,-31.323
EX0521-092111,9,C05,prep,1801,1801,0,597554.092,0.685,-0.677,0.194,0.188,0,0,0,0,0,0,0,0,0,0.000,0,0,0.128,0.002,-0.020,-0.120,-0.040,0.015,0.994,0.011,0.000,-0.002,0.006,0.000,0.000,0.000,0.000,0,2,0,1,7,255,1200,300,0,0,-89.532,0.632,-31.323
EX0521-092111,9,C05,prep,1840,1840,0,597559.092,0.685,-0.677,0.194,0.188,0,0,0,0,0,0,0,0,0,0.000,0,0,0.049,0.002,-0.020,-0.040,-0.020,0.015,0.993,0.011,0.000,-0.002,0.006,0.000,0.000,0.000,0.000,0,2,0,1,7,255,1200,300,0,0,-89.532,0.632,-31.323
EX0521-092111,9,C05,prep,1840,1840,0,597564.092,0.685,-0.677,0.194,0.188,0,0,0,0,0,0,0,0,0,0.000,0,0,0.049,0.003,-0.020,-0.040,-0.020,0.015,0.993,0.011,0.002,-0.002,-0.004,0.000,0.000,0.000,0.000,0,2,0,1,7,255,1200,300,0,0,-89.532,0.632,-31.323
EX0521-092111,9,C05,prep,1840,1840,0,597569.092,0.685,-0.677,0.194,0.188,0,0,0,0,0,0,0,0,0,0.000,0,0,0.049,0.003,-0.020,-0.040,-0.020,0.014,0.994,0.011,0.002,-0.002,-0.004,0.000,0.000,0.000,0.000,0,2,0,1,7,255,1200,300,0,0,-89.532,0.632,-31.323
EX0521-092111,9,C05,prep,1840,1840,0,597574.093,0.685,-0.677,0.194,0.188,0,0,0,0,0,0,0,0,0,0.000,0,0,0.049,0.002,-0.020,-0.040,-0.020,0.013,0.994,0.010,-0.002,0.000,0.000,0.000,0.000,0.000,0.000,0,2,0,1,7,255,1200,300,0,0,-89.533,0.632,-31.323
EX0521-092111,9,C05,prep,1840,1840,0,597579.092,0.685,-0.677,0.194,0.188,0,0,0,0,0,0,0,0,0,0.000,0,0,0.035,0.002,-0.020,0.020,-0.020,0.015,0.994,0.011,-0.002,0.000,0.000,0.000,0.000,0.000,0.000,0,2,0,1,7,255,1200,300,0,0,-89.533,0.632,-31.323
EX0521-092111,9,C05,prep,1840,1840,0,597584.093,0.685,-0.677,0.194,0.188,0,0,0,0,0,0,0,0,0,0.000,0,0,0.108,0.003,0.060,-0.040,-0.080,0.015,0.993,0.011,0.002,-0.002,0.000,0.000,0.000,0.000,0.000,0,2,0,1,7,255,1200,300,0,0,-89.533,0.632,-31.323
EX0521-092111,9,C05,prep,1868,1868,0,597589.092,0.685,-0.677,0.194,0.188,0,0,0,0,0,0,0,0,0,0.000,0,0,0.092,0.003,-0.020,-0.040,-0.080,0.015,0.994,0.010,0.002,-0.002,0.000,0.000,0.000,0.000,0.000,0,2,0,1,7,255,1200,300,0,0,-89.533,0.632,-31.323
EX0521-092111,9,C05,prep,1868,1868,0,597594.092,0.685,-0.677,0.194,0.188,0,0,0,0,0,0,0,0,0,0.000,0,0,0.049,0.003,-0.020,-0.040,-0.020,0.015,0.994,0.012,0.002,-0.002,0.000,0.000,0.000,0.000,0.000,0,2,0,1,7,255,1200,300,0,0,-89.533,0.632,-31.323
EX0521-092111,9,C05,prep,1869,1869,0,597599.092,0.685,-0.677,0.194,0.188,0,0,0,0,0,0,0,0,0,0.000,0,0,0.141,0.004,0.060,-0.100,-0.080,0.013,0.996,0.010,-0.002,0.004,0.006,0.000,0.000,0.000,0.000,0,2,0,1,7,255,1200,300,0,0,-89.533,0.632,-31.323
EX0521-092111,9,C05,prep,1869,1869,0,597604.092,0.685,-0.677,0.194,0.188,0,0,0,0,0,0,0,0,0,0.000,0,0,0.049,0.002,-0.020,-0.040,-0.020,0.014,0.995,0.011,-0.002,0.000,0.010,0.000,0.000,0.000,0.000,0,2,0,1,7,255,1200,300,0,0,-89.533,0.632,-31.323
EX0521-092111,9,C05,prep,1869,1869,0,597609.091,0.685,-0.677,0.194,0.188,0,0,0,0,0,0,0,0,0,0.000,0,0,0.082,0.004,0.040,-0.060,-0.040,0.014,0.993,0.011,-0.004,0.000,0.010,0.000,0.000,0.000,0.000,0,2,0,1,7,255,1200,300,0,0,-89.533,0.632,-31.323
EX0521-092111,9,C05,prep,1869,1869,0,597614.091,0.685,-0.677,0.194,0.188,0,0,0,0,0,0,0,0,0,0.000,0,0,0.045,0.006,-0.020,0.000,-0.040,0.014,0.995,0.011,-0.004,-0.004,0.010,0.000,0.000,0.000,0.000,0,2,0,1,7,255,1200,300,0,0,-89.534,0.632,-31.323
EX0521-092111,9,C05,prep,1870,1870,0,597619.092,0.685,-0.677,0.194,0.188,0,0,0,0,0,0,0,0,0,0.000,0,0,0.075,0.006,-0.020,-0.060,-0.040,0.014,0.995,0.011,-0.004,-0.004,0.010,0.000,0.000,0.000,0.000,0,2,0,1,7,255,1200,300,0,0,-89.534,0.632,-31.323
EX0521-092111,9,C05,prep,1870,1870,0,597624.091,0.685,-0.677,0.194,0.188,0,0,0,0,0,0,0,0,0,0.000,0,0,0.118,0.006,-0.020,-0.060,-0.100,0.014,0.993,0.013,-0.004,-0.004,0.010,0.000,0.000,0.000,0.000,0,2,0,1,7,255,1200,300,0,0,-89.534,0.632,-31.323
EX0521-092111,9,C05,prep,1900,1900,0,597629.092,0.685,-0.677,0.194,0.188,0,0,0,0,0,0,0,0,0,0.000,0,0,0.075,0.006,-0.020,-0.060,-0.040,0.014,0.994,0.011,-0.004,-0.004,0.004,0.000,0.000,0.000,0.000,0,2,0,1,7,255,1200,300,0,0,-89.534,0.632,-31.323
EX0521-092111,9,C05,prep,1900,1900,0,597634.092,0.685,-0.677,0.194,0.188,0,0,0,0,0,0,0,0,0,0.000,0,0,0.128,0.010,-0.020,-0.120,-0.040,0.014,0.994,0.012,-0.006,-0.008,0.004,0.000,0.000,0.000,0.000,0,2,0,1,7,255,1200,300,0,0,-89.534,0.632,-31.323
EX0521-092111,9,C05,prep,1900,1900,0,597639.092,0.685,-0.677,0.194,0.188,0,0,0,0,0,0,0,0,0,0.000,0,0,0.057,0.006,0.040,0.000,-0.040,0.014,0.994,0.011,-0.004,-0.004,0.004,0.000,0.000,0.000,0.000,0,2,0,1,7,255,1200,300,0,0,-89.534,0.632,-31.323
EX0521-092111,9,C05,prep,1900,1900,0,597644.092,0.685,-0.677,0.194,0.188,0,0,0,0,0,0,0,0,0,0.000,0,0,0.082,0.002,0.040,-0.060,-0.040,0.015,0.994,0.010,-0.002,0.000,0.004,0.000,0.000,0.000,0.000,0,2,0,1,7,255,1200,300,0,0,-89.534,0.632,-31.323
EX0521-092111,9,C05,prep,1902,1902,0,597649.091,0.685,-0.677,0.194,0.188,0,0,0,0,0,0,0,0,0,0.000,0,0,0.123,0.002,0.040,-0.060,-0.100,0.014,0.993,0.012,-0.002,0.000,0.000,0.000,0.000,0.000,0.000,0,2,0,1,7,255,1200,300,0,0,-89.534,0.632,-31.323
EX0521-092111,9,C05,prep,1902,1902,0,597654.091,0.685,-0.677,0.194,0.188,0,0,0,0,0,0,0,0,0,0.000,0,0,0.102,0.006,-0.080,-0.060,0.020,0.014,0.994,0.011,-0.004,-0.004,0.000,0.000,0.000,0.000,0.000,0,2,0,1,7,255,1200,300,0,0,-89.535,0.631,-31.323
EX0521-092111,9,C05,prep,1904,1904,0,597659.091,0.685,-0.677,0.194,0.188,0,0,0,0,0,0,0,0,0,0.000,0,0,0.075,0.007,-0.020,-0.060,-0.040,0.013,0.994,0.012,-0.006,-0.004,0.000,0.000,0.000,0.000,0.000,0,2,0,1,7,255,1200,300,0,0,-89.535,0.631,-31.323
EX0521-092111,9,C05,prep,1904,1904,0,597664.092,0.685,-0.677,0.194,0.188,0,0,0,0,0,0,0,0,0,0.000,0,0,0.075,0.006,-0.020,-0.060,-0.040,0.014,0.995,0.011,-0.004,-0.004,0.004,0.000,0.000,0.000,0.000,0,2,0,1,7,255,1200,300,0,0,-89.535,0.631,-31.323
EX0521-092111,9,C05,prep,1936,1936,0,597669.092,0.685,-0.677,0.194,0.188,0,0,0,0,0,0,0,0,0,0.000,0,0,0.075,0.004,-0.020,-0.060,-0.040,0.015,0.995,0.010,-0.004,-0.002,0.010,0.000,0.000,0.000,0.000,0,2,0,1,7,255,1200,300,0,0,-89.535,0.631,-31.323
EX0521-092111,9,C05,prep,1936,1936,0,597674.092,0.685,-0.677,0.194,0.188,0,0,0,0,0,0,0,0,0,0.000,0,0,0.075,0.007,-0.020,-0.060,-0.040,0.015,0.994,0.011,0.006,-0.004,0.010,0.000,0.000,0.000,0.000,0,2,0,1,7,255,1200,300,0,0,-89.535,0.631,-31.323
EX0521-092111,9,C05,prep,1936,1936,0,597679.092,0.685,-0.677,0.194,0.188,0,0,0,0,0,0,0,0,0,0.000,0,0,0.118,0.007,-0.020,-0.060,-0.100,0.014,0.994,0.012,0.006,-0.004,0.004,0.000,0.000,0.000,0.000,0,2,0,1,7,255,1200,300,0,0,-89.535,0.631,-31.323
EX0521-092111,9,C05,prep,1936,1936,0,597684.093,0.685,-0.677,0.194,0.188,0,0,0,0,0,0,0,0,0,0.000,0,0,0.082,0.010,0.040,-0.060,-0.040,0.014,0.995,0.012,-0.008,-0.006,0.004,0.000,0.000,0.000,0.000,0,2,0,1,7,255,1200,300,0,0,-89.535,0.631,-31.323
EX0521-092111,9,C05,prep,1936,1936,0,597689.091,0.685,-0.677,0.194,0.188,0,0,0,0,0,0,0,0,0,0.000,0,0,0.066,0.010,-0.020,-0.060,0.020,0.015,0.995,0.010,-0.008,-0.006,0.010,0.000,0.000,0.000,0.000,0,2,0,1,7,255,1200,300,0,0,-89.536,0.631,-31.323
EX0521-092111,9,C05,prep,1936,1936,0,597694.091,0.685,-0.677,0.194,0.188,0,0,0,0,0,0,0,0,0,0.000,0,0,0.075,0.000,-0.020,-0.060,-0.040,0.014,0.994,0.011,0.000,0.000,0.010,0.000,0.000,0.000,0.000,0,2,0,1,7,255,1200,300,0,0,-89.536,0.631,-31.323
EX0521-092111,9,C05,prep,1967,1967,0,597699.091,0.685,-0.677,0.194,0.188,0,0,0,0,0,0,0,0,0,0.000,0,0,0.108,0.000,-0.080,-0.060,-0.040,0.014,0.994,0.011,0.000,0.000,0.004,0.000,0.000,0.000,0.000,0,2,0,1,7,255,1200,300,0,0,-89.536,0.631,-31.323
EX0521-092111,9,C05,prep,1967,1967,0,597704.092,0.685,-0.677,0.194,0.188,0,0,0,0,0,0,0,0,0,0.000,0,0,0.108,0.000,-0.080,-0.060,-0.040,0.014,0.994,0.011,0.000,0.000,0.004,0.000,0.000,0.000,0.000,0,2,0,1,7,255,1200,300,0,0,-89.536,0.631,-31.323
EX0521-092111,9,C05,prep,1967,1967,0,597709.092,0.685,-0.677,0.194,0.188,0,0,0,0,0,0,0,0,0,0.000,0,0,0.045,0.000,0.000,-0.040,-0.020,0.014,0.994,0.010,0.000,0.000,0.004,0.000,0.000,0.000,0.000,0,2,0,1,7,255,1200,300,0,0,-89.536,0.631,-31.323
EX0521-092111,9,C05,prep,1967,1967,0,597714.092,0.685,-0.677,0.194,0.188,0,0,0,0,0,0,0,0,0,0.000,0,0,0.045,0.000,0.000,-0.040,-0.020,0.015,0.993,0.012,0.000,0.000,0.004,0.000,0.000,0.000,0.000,0,2,0,1,7,255,1200,300,0,0,-89.536,0.631,-31.323
EX0521-092111,9,C05,prep,1968,1968,0,597719.092,0.685,-0.677,0.194,0.188,0,0,0,0,0,0,0,0,0,0.000,0,0,0.075,0.010,0.060,-0.040,-0.020,0.014,0.994,0.012,-0.002,-0.010,0.000,0.000,0.000,0.000,0.000,0,2,0,1,7,255,1200,300,0,0,-89.536,0.631,-31.323
EX0521-092111,9,C05,prep,1968,1968,0,597724.091,0.685,-0.677,0.194,0.188,0,0,0,0,0,0,0,0,0,0.000,0,0,0.045,0.010,0.000,-0.040,-0.020,0.014,0.995,0.011,-0.002,-0.010,0.000,0.000,0.000,0.000,0.000,0,2,0,1,7,255,1200,300,0,0,-89.536,0.631,-31.323
EX0521-092111,9,C05,prep,1998,1998,0,597729.091,0.685,-0.677,0.194,0.188,0,0,0,0,0,0,0,0,0,0.000,0,0,0.045,0.006,0.000,-0.040,-0.020,0.015,0.995,0.011,0.000,-0.006,0.014,0.000,0.000,0.000,0.000,0,2,0,1,7,255,1200,300,0,0,-89.537,0.631,-31.323
EX0521-092111,9,C05,prep,1999,1999,0,597734.091,0.685,-0.677,0.194,0.188,0,0,0,0,0,0,0,0,0,0.000,0,0,0.045,0.000,0.000,-0.040,-0.020,0.014,0.994,0.011,0.000,0.000,0.014,0.000,0.000,0.000,0.000,0,2,0,1,7,255,1200,300,0,0,-89.537,0.631,-31.323
EX0521-092111,9,C05,prep,2010,2010,0,597739.092,0.685,-0.677,0.194,0.188,0,0,0,0,0,0,0,0,0,0.000,0,0,0.045,0.000,0.000,-0.040,-0.020,0.013,0.994,0.011,0.000,0.000,0.004,0.000,0.000,0.000,0.000,0,2,0,1,7,255,1200,300,0,0,-89.537,0.631,-31.323
EX0521-092111,9,C05,prep,2010,2010,0,597744.092,0.685,-0.677,0.194,0.188,0,0,0,0,0,0,0,0,0,0.000,0,0,0.045,0.008,0.000,-0.040,-0.020,0.014,0.994,0.011,-0.008,0.000,0.000,0.000,0.000,0.000,0.000,0,2,0,1,7,255,1200,300,0,0,-89.537,0.631,-31.323
EX0521-092111,9,C05,prep,2011,2011,0,597749.092,0.685,-0.677,0.194,0.188,0,0,0,0,0,0,0,0,0,0.000,0,0,0.045,0.008,0.000,-0.040,-0.020,0.015,0.995,0.011,-0.008,-0.002,0.000,0.000,0.000,0.000,0.000,0,2,0,1,7,255,1200,300,0,0,-89.537,0.631,-31.323
EX0521-092111,9,C05,prep,2011,2011,0,597754.092,0.685,-0.677,0.194,0.188,0,0,0,0,0,0,0,0,0,0.000,0,0,0.045,0.006,0.000,-0.040,-0.020,0.014,0.994,0.011,-0.004,-0.004,0.004,0.000,0.000,0.000,0.000,0,2,0,1,7,255,1200,300,0,0,-89.537,0.631,-31.323
EX0521-092111,9,C05,prep,2011,2011,0,597759.093,0.685,-0.677,0.194,0.188,0,0,0,0,0,0,0,0,0,0.000,0,0,0.049,0.004,-0.020,-0.040,-0.020,0.014,0.995,0.010,0.002,-0.004,0.008,0.000,0.000,0.000,0.000,0,2,0,1,7,255,1200,300,0,0,-89.537,0.631,-31.323
EX0521-092111,9,C05,prep,2011,2011,0,597764.091,0.685,-0.677,0.194,0.188,0,0,0,0,0,0,0,0,0,0.000,0,0,0.092,0.004,-0.080,-0.040,-0.020,0.014,0.994,0.010,0.002,0.004,0.004,0.000,0.000,0.000,0.000,0,2,0,1,7,255,1200,300,0,0,-89.537,0.631,-31.323
EX0521-092111,9,C05,prep,2032,2032,0,597769.093,0.685,-0.677,0.194,0.188,0,0,0,0,0,0,0,0,0,0.000,0,0,0.075,0.004,0.060,-0.040,-0.020,0.015,0.994,0.010,0.002,0.004,0.004,0.000,0.000,0.000,0.000,0,2,0,1,7,255,1200,300,0,0,-89.538,0.631,-31.323
EX0521-092111,9,C05,prep,2032,2032,0,597774.093,0.685,-0.677,0.194,0.188,0,0,0,0,0,0,0,0,0,0.000,0,0,0.075,0.003,0.060,-0.040,-0.020,0.014,0.994,0.011,0.002,0.002,0.004,0.000,0.000,0.000,0.000,0,2,0,1,7,255,1200,300,0,0,-89.538,0.631,-31.323
EX0521-092111,9,C05,prep,2032,2032,0,597779.092,0.685,-0.677,0.194,0.188,0,0,0,0,0,0,0,0,0,0.000,0,0,0.049,0.004,-0.020,-0.040,-0.020,0.013,0.994,0.011,-0.004,0.002,-0.002,0.000,0.000,0.000,0.000,0,2,0,1,7,255,1200,300,0,0,-89.538,0.631,-31.323
EX0521-092111,9,C05,prep,2032,2032,0,597784.093,0.685,-0.677,0.194,0.188,0,0,0,0,0,0,0,0,0,0.000,0,0,0.049,0.004,-0.020,-0.040,-0.020,0.015,0.995,0.011,-0.004,-0.002,0.004,0.000,0.000,0.000,0.000,0,2,0,1,7,255,1200,300,0,0,-89.538,0.631,-31.323
EX0521-092111,9,C05,prep,2032,2032,0,597789.092,0.685,-0.677,0.194,0.188,0,0,0,0,0,0,0,0,0,0.000,0,0,0.049,0.004,-0.020,-0.040,-0.020,0.015,0.994,0.011,0.004,-0.002,-0.002,0.000,0.000,0.000,0.000,0,2,0,1,7,255,1200,300,0,0,-89.538,0.631,-31.323
EX0521-092111,9,C05,prep,2032,2032,0,597794.092,0.685,-0.677,0.194,0.188,0,0,0,0,0,0,0,0,0,0.000,0,0,0.035,0.004,-0.020,0.020,-0.020,0.016,0.993,0.010,0.004,-0.002,-0.002,0.000,0.000,0.000,0.000,0,2,0,1,7,255,1200,300,0,0,-89.538,0.631,-31.323
EX0521-092111,9,C05,prep,2047,2047,0,597799.091,0.685,-0.677,0.194,0.188,0,0,0,0,0,0,0,0,0,0.000,0,0,0.049,0.004,-0.020,-0.040,-0.020,0.014,0.994,0.011,0.004,-0.002,-0.002,0.000,0.000,0.000,0.000,0,2,0,1,7,255,1200,300,0,0,-89.538,0.630,-31.323
EX0521-092111,9,C05,prep,2047,2047,0,597804.091,0.685,-0.677,0.194,0.188,0,0,0,0,0,0,0,0,0,0.000,0,0,0.049,0.006,-0.020,-0.040,-0.020,0.015,0.994,0.010,0.006,0.002,-0.002,0.000,0.000,0.000,0.000,0,2,0,1,7,255,1200,300,0,0,-89.539,0.630,-31.323
EX0521-092111,9,C05,prep,2063,2063,0,597809.091,0.685,-0.677,0.194,0.188,0,0,0,0,0,0,0,0,0,0.000,0,0,0.066,0.004,-0.020,-0.060,-0.020,0.014,0.995,0.011,-0.004,0.002,0.004,0.000,0.000,0.000,0.000,0,2,0,1,7,255,1200,300,0,0,-89.539,0.630,-31.323
EX0521-092111,9,C05,prep,2063,2063,0,597814.091,0.685,-0.677,0.194,0.188,0,0,0,0,0,0,0,0,0,0.000,0,0,0.066,0.004,-0.020,-0.060,-0.020,0.014,0.994,0.011,-0.004,-0.002,0.004,0.000,0.000,0.000,0.000,0,2,0,1,7,255,1200,300,0,0,-89.539,0.630,-31.323
EX0521-092111,9,C05,prep,2063,2063,0,597819.092,0.685,-0.677,0.194,0.188,0,0,0,0,0,0,0,0,0,0.000,0,0,0.066,0.006,-0.020,-0.060,-0.020,0.015,0.994,0.011,-0.004,-0.004,-0.002,0.000,0.000,0.000,0.000,0,2,0,1,7,255,1200,300,0,0,-89.539,0.630,-31.323
EX0521-092111,9,C05,prep,2063,2063,0,597824.092,0.685,-0.677,0.194,0.188,0,0,0,0,0,0,0,0,0,0.000,0,0,0.049,0.006,-0.020,0.020,0.040,0.014,0.995,0.011,-0.004,-0.004,-0.002,0.000,0.000,0.000,0.000,0,2,0,1,7,255,1200,300,0,0,-89.539,0.630,-31.323
EX0521-092111,9,C05,prep,2079,2079,0,597829.092,0.685,-0.677,0.194,0.188,0,0,0,0,0,0,0,0,0,0.000,0,0,0.110,0.004,0.040,0.020,-0.100,0.014,0.993,0.011,0.000,-0.004,-0.002,0.000,0.000,0.000,0.000,0,2,0,1,7,255,1200,300,0,0,-89.539,0.630,-31.323
EX0521-092111,9,C05,prep,2079,2079,0,597834.092,0.685,-0.677,0.194,0.188,0,0,0,0,0,0,0,0,0,0.000,0,0,0.130,0.002,-0.080,0.020,-0.100,0.015,0.995,0.011,0.000,-0.002,0.008,0.000,0.000,0.000,0.000,0,2,0,1,7,255,1200,300,0,0,-89.539,0.630,-31.323
EX0521-092111,9,C05,prep,2096,2096,0,597839.091,0.685,-0.677,0.194,0.188,0,0,0,0,0,0,0,0,0,0.000,0,0,0.066,0.002,-0.020,-0.060,-0.020,0.014,0.993,0.012,0.000,-0.002,-0.006,0.000,0.000,0.000,0.000,0,2,0,1,7,255,1200,300,0,0,-89.539,0.630,-31.323
EX0521-092111,9,C05,prep,2096,2096,0,597844.091,0.685,-0.677,0.194,0.188,0,0,0,0,0,0,0,0,0,0.000,0,0,0.123,0.006,0.040,-0.060,-0.100,0.014,0.994,0.011,-0.004,-0.004,0.004,0.000,0.000,0.000,0.000,0,2,0,1,7,255,1200,300,0,0,-89.540,0.630,-31.323
EX0521-092111,9,C05,prep,2096,2096,0,597849.091,0.685,-0.677,0.194,0.188,0,0,0,0,0,0,0,0,0,0.000,0,0,0.066,0.013,-0.020,-0.060,-0.020,0.015,0.993,0.012,-0.004,-0.012,-0.006,0.000,0.000,0.000,0.000,0,2,0,1,7,255,1200,300,0,0,-89.540,0.630,-31.323
EX0521-092111,9,C05,prep,2096,2096,0,597854.092,0.685,-0.677,0.194,0.188,0,0,0,0,0,0,0,0,0,0.000,0,0,0.066,0.006,-0.020,-0.060,-0.020,0.015,0.996,0.011,0.000,-0.006,0.004,0.000,0.000,0.000,0.000,0,2,0,1,7,255,1200,300,0,0,-89.540,0.630,-31.323
EX0521-092111,9,C05,prep,2134,2134,0,597859.092,0.685,-0.677,0.194,0.188,0,0,0,0,0,0,0,0,0,0.000,0,0,0.045,0.006,-0.020,0.000,-0.040,0.014,0.995,0.010,0.002,-0.006,0.012,0.000,0.000,0.000,0.000,0,2,0,1,7,255,1200,300,0,0,-89.540,0.630,-31.323
EX0521-092111,9,C05,prep,2134,2134,0,597864.092,0.685,-0.677,0.194,0.188,0,0,0,0,0,0,0,0,0,0.000,0,0,0.102,0.002,-0.080,-0.060,0.020,0.014,0.994,0.011,0.000,-0.002,0.012,0.000,0.000,0.000,0.000,0,2,0,1,7,255,1200,300,0,0,-89.540,0.630,-31.323
EX0521-092111,9,C05,prep,2135,2135,0,597869.092,0.685,-0.677,0.194,0.188,0,0,0,0,0,0,0,0,0,0.000,0,0,0.123,0.000,0.040,-0.060,-0.100,0.014,0.993,0.011,0.000,0.000,0.004,0.000,0.000,0.000,0.000,0,2,0,1,7,255,1200,300,0,0,-89.540,0.630,-31.323
EX0521-092111,9,C05,prep,2135,2135,0,597874.091,0.685,-0.677,0.194,0.188,0,0,0,0,0,0,0,0,0,0.000,0,0,0.141,0.000,-0.080,-0.060,-0.100,0.014,0.993,0.010,0.000,0.000,-0.006,0.000,0.000,0.000,0.000,0,2,0,1,7,255,1200,300,0,0,-89.540,0.630,-31.323
EX0521-092111,9,C05,prep,2136,2136,0,597879.093,0.685,-0.677,0.194,0.188,0,0,0,0,0,0,0,0,0,0.000,0,0,0.118,0.002,-0.020,-0.060,-0.100,0.014,0.993,0.011,0.000,0.002,-0.006,0.000,0.000,0.000,0.000,0,2,0,1,7,255,1200,300,0,0,-89.540,0.630,-31.323
EX0521-092111,9,C05,prep,2136,2136,0,597884.093,0.685,-0.677,0.194,0.188,0,0,0,0,0,0,0,0,0,0.000,0,0,0.082,0.004,0.040,-0.060,-0.040,0.014,0.995,0.010,-0.002,0.004,-0.006,0.000,0.000,0.000,0.000,0,2,0,1,7,255,1200,300,0,0,-89.541,0.630,-31.323
EX0521-092111,9,C05,prep,2166,2166,0,597889.092,0.685,-0.677,0.194,0.188,0,0,0,0,0,0,0,0,0,0.000,0,0,0.075,0.004,-0.020,-0.060,-0.040,0.014,0.994,0.011,-0.004,0.002,0.004,0.000,0.000,0.000,0.000,0,2,0,1,7,255,1200,300,0,0,-89.541,0.630,-31.323
EX0521-092111,9,C05,prep,2166,2166,0,597894.092,0.685,-0.677,0.194,0.188,0,0,0,0,0,0,0,0,0,0.000,0,0,0.108,0.003,-0.080,-0.060,-0.040,0.015,0.993,0.010,-0.002,0.002,0.004,0.000,0.000,0.000,0.000,0,2,0,1,7,255,1200,300,0,0,-89.541,0.630,-31.323
EX0521-092111,9,C05,prep,2167,2167,0,597899.092,0.685,-0.677,0.194,0.188,0,0,0,0,0,0,0,0,0,0.000,0,0,0.118,0.006,-0.020,-0.060,-0.100,0.015,0.994,0.010,0.006,0.002,0.004,0.000,0.000,0.000,0.000,0,2,0,1,7,255,1200,300,0,0,-89.541,0.630,-31.323
EX0521-092111,9,C05,prep,2167,2167,0,597904.092,0.685,-0.677,0.194,0.188,0,0,0,0,0,0,0,0,0,0.000,0,0,0.045,0.006,-0.020,0.000,-0.040,0.013,0.993,0.011,0.006,0.002,-0.006,0.000,0.000,0.000,0.000,0,2,0,1,7,255,1200,300,0,0,-89.541,0.630,-31.323
EX0521-092111,9,C05,prep,2168,2168,0,597909.092,0.685,-0.677,0.194,0.188,0,0,0,0,0,0,0,0,0,0.000,0,0,0.118,0.003,-0.020,-0.060,-0.100,0.014,0.995,0.010,0.002,0.002,0.004,0.000,0.000,0.000,0.000,0,2,0,1,7,255,1200,300,0,0,-89.541,0.630,-31.323
EX0521-092111,9,C05,prep,2168,2168,0,597914.091,0.685,-0.677,0.194,0.188,0,0,0,0,0,0,0,0,0,0.000,0,0,0.066,0.000,-0.020,-0.060,-0.020,0.015,0.995,0.011,0.000,0.000,0.008,0.000,0.000,0.000,0.000,0,2,0,1,7,255,1200,300,0,0,-89.541,0.630,-31.323
EX0521-092111,9,C05,prep,2169,2169,0,597919.093,0.685,-0.677,0.194,0.188,0,0,0,0,0,0,0,0,0,0.000,0,0,0.123,0.006,0.040,-0.060,-0.100,0.015,0.995,0.012,0.000,-0.006,0.008,0.000,0.000,0.000,0.000,0,2,0,1,7,255,1200,300,0,0,-89.542,0.630,-31.323
EX0521-092111,9,C05,prep,2169,2169,0,597924.091,0.685,-0.677,0.194,0.188,0,0,0,0,0,0,0,0,0,0.000,0,0,0.118,0.006,-0.020,-0.060,-0.100,0.014,0.994,0.011,0.000,-0.006,0.008,0.000,0.000,0.000,0.000,0,2,0,1,7,255,1200,300,0,0,-89.542,0.630,-31.323
EX0521-092111,9,C05,prep,2175,2175,0,597929.092,0.685,-0.677,0.194,0.188,0,0,0,0,0,0,0,0,0,0.000,0,0,0.118,0.004,-0.020,-0.060,-0.100,0.014,0.994,0.011,-0.002,-0.004,-0.002,0.000,0.000,0.000,0.000,0,2,0,1,7,255,1200,300,0,0,-89.542,0.630,-31.323
EX0521-092111,9,C05,prep,2175,2175,0,597934.092,0.685,-0.677,0.194,0.188,0,0,0,0,0,0,0,0,0,0.000,0,0,0.066,0.006,-0.020,-0.060,-0.020,0.014,0.994,0.011,-0.004,-0.004,-0.002,0.000,0.000,0.000,0.000,0,2,0,1,7,255,1200,300,0,0,-89.542,0.630,-31.323
EX0521-092111,9,C05,prep,2196,2196,0,597939.092,0.685,-0.677,0.194,0.188,0,0,0,0,0,0,0,0,0,0.000,0,0,0.075,0.006,0.040,-0.060,-0.020,0.014,0.994,0.011,-0.004,-0.004,-0.002,0.000,0.000,0.000,0.000,0,2,0,1,7,255,1200,300,0,0,-89.542,0.630,-31.323
EX0521-092111,9,C05,prep,2196,2196,0,597944.092,0.685,-0.677,0.194,0.188,0,0,0,0,0,0,0,0,0,0.000,0,0,0.066,0.006,-0.020,-0.060,-0.020,0.014,0.994,0.011,-0.004,-0.004,-0.002,0.000,0.000,0.000,0.000,0,2,0,1,7,255,1200,300,0,0,-89.542,0.629,-31.323
EX0521-092111,9,C05,prep,2198,2198,0,597949.091,0.685,-0.677,0.194,0.188,0,0,0,0,0,0,0,0,0,0.000,0,0,0.049,0.006,0.040,0.020,-0.020,0.015,0.993,0.011,-0.004,-0.004,-0.002,0.000,0.000,0.000,0.000,0,2,0,1,7,255,1200,300,0,0,-89.542,0.629,-31.323
EX0521-092111,9,C05,prep,2198,2198,0,597954.091,0.685,-0.677,0.194,0.188,0,0,0,0,0,0,0,0,0,0.000,0,0,0.075,0.004,0.040,-0.060,-0.020,0.014,0.994,0.010,-0.002,-0.004,-0.002,0.000,0.000,0.000,0.000,0,2,0,1,7,255,1200,300,0,0,-89.542,0.629,-31.323
EX0521-092111,9,C05,prep,2207,2207,0,597959.092,0.685,-0.677,0.194,0.188,0,0,0,0,0,0,0,0,0,0.000,0,0,0.082,0.006,0.040,-0.060,-0.040,0.013,0.994,0.011,-0.002,0.006,-0.002,0.000,0.000,0.000,0.000,0,2,0,1,7,255,1200,300,0,0,-89.543,0.629,-31.323
EX0521-092111,9,C05,prep,2207,2207,0,597964.093,0.685,-0.677,0.194,0.188,0,0,0,0,0,0,0,0,0,0.000,0,0,0.128,0.006,-0.020,-0.120,-0.040,0.015,0.995,0.012,-0.002,0.006,-0.002,0.000,0.000,0.000,0.000,0,2,0,1,7,255,1200,300,0,0,-89.543,0.629,-31.323
EX0521-092111,9,C05,prep,2240,2240,0,597969.092,0.685,-0.677,0.194,0.188,0,0,0,0,0,0,0,0,0,0.000,0,0,0.075,0.010,-0.020,-0.060,-0.040,0.015,0.994,0.012,-0.002,-0.010,-0.002,0.000,0.000,0.000,0.000,0,2,0,1,7,255,1200,300,0,0,-89.543,0.629,-31.323
EX0521-092111,9,C05,prep,2240,2240,0,597974.092,0.685,-0.677,0.194,0.188,0,0,0,0,0,0,0,0,0,0.000,0,0,0.075,0.010,-0.020,-0.060,-0.040,0.014,0.993,0.012,-0.002,-0.010,-0.002,0.000,0.000,0.000,0.000,0,2,0,1,7,255,1200,300,0,0,-89.543,0.629,-31.323
EX0521-092111,9,C05,prep,2240,2240,0,597979.093,0.685,-0.677,0.194,0.188,0,0,0,0,0,0,0,0,0,0.000,0,0,0.082,0.006,0.040,-0.060,-0.040,0.015,0.995,0.011,0.000,-0.006,-0.002,0.000,0.000,0.000,0.000,0,2,0,1,7,255,1200,300,0,0,-89.543,0.629,-31.323
EX0521-092111,9,C05,prep,2240,2240,0,597984.093,0.685,-0.677,0.194,0.188,0,0,0,0,0,0,0,0,0,0.000,0,0,0.075,0.010,-0.020,-0.060,-0.040,0.014,0.995,0.012,-0.008,-0.006,0.008,0.000,0.000,0.000,0.000,0,2,0,1,7,255,1200,300,0,0,-89.543,0.629,-31.323
EX0521-092111,9,C05,prep,2240,2240,0,597989.091,0.685,-0.677,0.194,0.188,0,0,0,0,0,0,0,0,0,0.000,0,0,0.082,0.004,0.040,-0.060,-0.040,0.015,0.995,0.011,0.004,-0.002,0.008,0.000,0.000,0.000,0.000,0,2,0,1,7,255,1200,300,0,0,-89.543,0.629,-31.323
EX0521-092111,9,C05,prep,2240,2240,0,597994.091,0.685,-0.677,0.194,0.188,0,0,0,0,0,0,0,0,0,0.000,0,0,0.045,0.004,-0.020,0.000,-0.040,0.015,0.994,0.011,0.004,-0.002,0.008,0.000,0.000,0.000,0.000,0,2,0,1,7,255,1200,300,0,0,-89.543,0.629,-31.323
EX0521-092111,9,C05,prep,2265,2265,0,597999.092,0.685,-0.677,0.194,0.188,0,0,0,0,0,0,0,0,0,0.000,0,0,0.057,0.004,0.040,0.000,-0.040,0.015,0.994,0.010,0.004,-0.002,0.002,0.000,0.000,0.000,0.000,0,2,0,1,7,255,1200,300,0,0,-89.544,0.629,-31.323
EX0521-092111,9,C05,prep,2265,2265,0,598004.092,0.685,-0.677,0.194,0.188,0,0,0,0,0,0,0,0,0,0.000,0,0,0.057,0.004,0.040,0.000,-0.040,0.015,0.994,0.011,0.004,-0.002,0.002,0.000,0.000,0.000,0.000,0,2,0,1,7,255,1200,300,0,0,-89.544,0.629,-31.323
EX0521-092111,9,C05,prep,2265,2265,0,598009.092,0.685,-0.677,0.194,0.188,0,0,0,0,0,0,0,0,0,0.000,0,0,0.082,0.006,0.040,-0.060,-0.040,0.015,0.994,0.010,0.006,0.000,0.002,0.000,0.000,0.000,0.000,0,2,0,1,7,255,1200,300,0,0,-89.544,0.629,-31.323
EX0521-092111,9,C05,prep,2265,2265,0,598014.092,0.685,-0.677,0.194,0.188,0,0,0,0,0,0,0,0,0,0.000,0,0,0.118,0.004,-0.020,-0.060,-0.100,0.014,0.993,0.011,0.004,-0.002,0.002,0.000,0.000,0.000,0.000,0,2,0,1,7,255,1200,300,0,0,-89.544,0.629,-31.323
EX0521-092111,9,C05,prep,2266,2266,0,598019.093,0.685,-0.677,0.194,0.188,0,0,0,0,0,0,0,0,0,0.000,0,0,0.082,0.006,0.040,-0.060,-0.040,0.014,0.994,0.012,-0.004,-0.004,-0.002,0.000,0.000,0.000,0.000,0,2,0,1,7,255,1200,300,0,0,-89.544,0.629,-31.323
EX0521-092111,9,C05,prep,2266,2266,0,598024.091,0.685,-0.677,0.194,0.188,0,0,0,0,0,0,0,0,0,0.000,0,0,0.057,0.006,0.040,0.000,-0.040,0.014,0.994,0.011,-0.004,-0.004,-0.002,0.000,0.000,0.000,0.000,0,2,0,1,7,255,1200,300,0,0,-89.544,0.629,-31.323
EX0521-092111,9,C05,prep,2272,2272,0,598029.091,0.685,-0.677,0.194,0.188,0,0,0,0,0,0,0,0,0,0.000,0,0,0.045,0.006,-0.020,0.000,-0.040,0.014,0.994,0.011,-0.004,-0.004,-0.002,0.000,0.000,0.000,0.000,0,2,0,1,7,255,1200,300,0,0,-89.544,0.629,-31.323
EX0521-092111,9,C05,prep,2272,2272,0,598034.091,0.685,-0.677,0.194,0.188,0,0,0,0,0,0,0,0,0,0.000,0,0,0.075,0.006,-0.020,-0.060,0.040,0.013,0.993,0.011,-0.004,-0.004,-0.002,0.000,0.000,0.000,0.000,0,2,0,1,7,255,1200,300,0,0,-89.545,0.629,-31.323
EX0521-092111,9,C05,prep,2304,2304,0,598039.092,0.685,-0.677,0.194,0.188,0,0,0,0,0,0,0,0,0,0.000,0,0,0.118,0.006,-0.020,-0.060,-0.100,0.015,0.994,0.011,-0.004,-0.004,0.002,0.000,0.000,0.000,0.000,0,2,0,1,7,255,1200,300,0,0,-89.545,0.629,-31.323
EX0521-092111,9,C05,prep,2304,2304,0,598044.092,0.685,-0.677,0.194,0.188,0,0,0,0,0,0,0,0,0,0.000,0,0,0.082,0.010,0.040,-0.060,-0.040,0.015,0.994,0.011,0.006,-0.008,0.004,0.000,0.000,0.000,0.000,0,2,0,1,7,255,1200,300,0,0,-89.545,0.629,-31.323
EX0521-092111,9,C05,prep,2304,2304,0,598049.092,0.685,-0.677,0.194,0.188,0,0,0,0,0,0,0,0,0,0.000,0,0,0.108,0.010,-0.080,-0.060,-0.040,0.014,0.994,0.011,0.006,-0.008,0.004,0.000,0.000,0.000,0.000,0,2,0,1,7,255,1200,300,0,0,-89.545,0.629,-31.323
EX0521-092111,9,C05,prep,2304,2304,0,598054.092,0.685,-0.677,0.194,0.188,0,0,0,0,0,0,0,0,0,0.000,0,0,0.075,0.000,-0.020,-0.060,-0.040,0.014,0.994,0.011,0.000,0.000,0.002,0.000,0.000,0.000,0.000,0,2,0,1,7,255,1200,300,0,0,-89.545,0.629,-31.323
EX0521-092111,9,C05,prep,2304,2304,0,598059.091,0.685,-0.677,0.194,0.188,0,0,0,0,0,0,0,0,0,0.000,0,0,0.157,0.000,-0.020,-0.120,-0.100,0.013,0.994,0.011,0.000,0.000,0.002,0.000,0.000,0.000,0.000,0,2,0,1,7,255,1200,300,0,0,-89.545,0.629,-31.323
EX0521-092111,9,C05,prep,2304,2304,0,598064.091,0.685,-0.677,0.194,0.188,0,0,0,0,0,0,0,0,0,0.000,0,0,0.075,0.004,-0.020,-0.060,-0.040,0.014,0.994,0.011,-0.004,0.000,-0.002,0.000,0.000,0.000,0.000,0,2,0,1,7,255,1200,300,0,0,-89.545,0.629,-31.323
EX0521-092111,9,C05,prep,2335,2335,0,598069.093,0.685,-0.677,0.194,0.188,0,0,0,0,0,0,0,0,0,0.000,0,0,0.075,0.007,-0.020,-0.060,-0.040,0.014,0.993,0.010,-0.004,0.006,-0.002,0.000,0.000,0.000,0.000,0,2,0,1,7,255,1200,300,0,0,-89.545,0.629,-31.323
EX0521-092111,9,C05,prep,2335,2335,0,598074.093,0.685,-0.677,0.194,0.188,0,0,0,0,0,0,0,0,0,0.000,0,0,0.082,0.000,0.040,-0.060,-0.040,0.014,0.994,0.011,0.000,0.000,-0.002,0.000,0.000,0.000,0.000,0,2,0,1,7,255,1200,300,0,0,-89.546,0.629,-31.323
EX0521-092111,9,C05,prep,2335,2335,0,598079.093,0.685,-0.677,0.194,0.188,0,0,0,0,0,0,0,0,0,0.000,0,0,0.118,0.006,-0.020,-0.060,-0.100,0.015,0.995,0.010,0.004,0.004,0.004,0.000,0.000,0.000,0.000,0,2,0,1,7,255,1200,300,0,0,-89.546,0.629,-31.323
EX0521-092111,9,C05,prep,2335,2335,0,598084.093,0.685,-0.677,0.194,0.188,0,0,0,0,0,0,0,0,0,0.000,0,0,0.075,0.010,-0.020,-0.060,-0.040,0.015,0.995,0.010,0.010,0.000,0.008,0.000,0.000,0.000,0.000,0,2,0,1,7,255,1200,300,0,0,-89.546,0.629,-31.323
EX0521-092111,9,C05,prep,2335,2335,0,598089.092,0.685,-0.677,0.194,0.188,0,0,0,0,0,0,0,0,0,0.000,0,0,0.075,0.010,-0.020,-0.060,-0.040,0.015,0.993,0.011,0.010,0.000,0.008,0.000,0.000,0.000,0.000,0,2,0,1,7,255,1200,300,0,0,-89.546,0.628,-31.323
EX0521-092111,9,C05,prep,2335,2335,0,598094.092,0.685,-0.677,0.194,0.188,0,0,0,0,0,0,0,0,0,0.000,0,0,0.075,0.004,-0.020,-0.060,-0.040,0.013,0.995,0.012,0.004,-0.002,0.008,0.000,0.000,0.000,0.000,0,2,0,1,7,255,1200,300,0,0,-89.546,0.628,-31.323
EX0521-092111,9,C05,prep,2366,2366,0,598099.091,0.685,-0.677,0.194,0.188,0,0,0,0,0,0,0,0,0,0.000,0,0,0.082,0.012,0.040,-0.060,-0.040,0.013,0.996,0.011,-0.012,-0.002,0.008,0.000,0.000,0.000,0.000,0,2,0,1,7,255,1200,300,0,0,-89.546,0.628,-31.323
EX0521-092111,9,C05,prep,2366,2366,0,598104.091,0.685,-0.677,0.194,0.188,0,0,0,0,0,0,0,0,0,0.000,0,0,0.118,0.012,-0.020,-0.060,-0.100,0.014,0.994,0.011,-0.012,0.002,0.008,0.000,0.000,0.000,0.000,0,2,0,1,7,255,1200,300,0,0,-89.546,0.628,-31.323
EX0521-092111,9,C05,prep,2367,2367,0,598109.092,0.685,-0.677,0.194,0.188,0,0,0,0,0,0,0,0,0,0.000,0,0,0.118,0.010,-0.020,-0.060,-0.100,0.014,0.993,0.012,-0.010,0.002,0.002,0.000,0.000,0.000,0.000,0,2,0,1,7,255,1200,300,0,0,-89.547,0.628,-31.323
EX0521-092111,9,C05,prep,2367,2367,0,598114.092,0.685,-0.677,0.194,0.188,0,0,0,0,0,0,0,0,0,0.000,0,0,0.075,0.011,-0.020,-0.060,-0.040,0.013,0.993,0.012,-0.010,-0.004,-0.006,0.000,0.000,0.000,0.000,0,2,0,1,7,255,1200,300,0,0,-89.547,0.628,-31.323
EX0521-092111,9,C05,prep,2368,2368,0,598119.092,0.685,-0.677,0.194,0.188,0,0,0,0,0,0,0,0,0,0.000,0,0,0.157,0.012,-0.020,-0.120,-0.100,0.015,0.994,0.012,-0.010,-0.006,-0.006,0.000,0.000,0.000,0.000,0,2,0,1,7,255,1200,300,0,0,-89.547,0.628,-31.323
EX0521-092111,9,C05,prep,2368,2368,0,598124.092,0.685,-0.677,0.194,0.188,0,0,0,0,0,0,0,0,0,0.000,0,0,0.157,0.010,-0.020,-0.120,-0.100,0.015,0.994,0.012,-0.002,-0.010,0.002,0.000,0.000,0.000,0.000,0,2,0,1,7,255,1200,300,0,0,-89.547,0.628,-31.323
EX0521-092111,9,C05,prep,2399,2399,0,598129.092,0.685,-0.677,0.194,0.188,0,0,0,0,0,0,0,0,0,0.000,0,0,0.082,0.010,0.040,-0.060,-0.040,0.015,0.994,0.010,0.002,-0.010,0.002,0.000,0.000,0.000,0.000,0,2,0,1,7,255,1200,300,0,0,-89.547,0.628,-31.323
EX0521-092111,9,C05,prep,2399,2399,0,598134.091,0.685,-0.677,0.194,0.188,0,0,0,0,0,0,0,0,0,0.000,0,0,0.118,0.006,-0.020,-0.060,-0.100,0.015,0.994,0.011,0.002,-0.006,0.002,0.000,0.000,0.000,0.000,0,2,0,1,7,255,1200,300,0,0,-89.547,0.628,-31.323
EX0521-092111,9,C05,prep,2399,2399,0,598139.091,0.685,-0.677,0.194,0.188,0,0,0,0,0,0,0,0,0,0.000,0,0,0.108,0.003,-0.080,-0.060,-0.040,0.014,0.995,0.010,0.002,0.002,0.002,0.000,0.000,0.000,0.000,0,2,0,1,7,255,1200,300,0,0,-89.547,0.628,-31.323
EX0521-092111,9,C05,prep,2399,2399,0,598144.091,0.685,-0.677,0.194,0.188,0,0,0,0,0,0,0,0,0,0.000,0,0,0.075,0.004,-0.020,-0.060,-0.040,0.013,0.994,0.011,0.002,0.004,0.002,0.000,0.000,0.000,0.000,0,2,0,1,7,255,1200,300,0,0,-89.547,0.628,-31.323
EX0521-092111,9,C05,prep,2400,2400,0,598149.092,0.685,-0.677,0.194,0.188,0,0,0,0,0,0,0,0,0,0.000,0,0,0.075,0.004,-0.020,-0.060,-0.040,0.015,0.994,0.013,-0.002,0.004,0.002,0.000,0.000,0.000,0.000,0,2,0,1,7,255,1200,300,0,0,-89.548,0.628,-31.323
EX0521-092111,9,C05,prep,2400,2400,0,598154.092,0.685,-0.677,0.194,0.188,0,0,0,0,0,0,0,0,0,0.000,0,0,0.128,0.010,-0.020,-0.120,-0.040,0.014,0.995,0.012,-0.006,-0.008,0.002,0.000,0.000,0.000,0.000,0,2,0,1,7,255,1200,300,0,0,-89.548,0.628,-31.323
EX0521-092111,9,C05,prep,2432,2432,0,598159.092,0.685,-0.677,0.194,0.188,0,0,0,0,0,0,0,0,0,0.000,0,0,0.075,0.008,-0.020,-0.060,-0.040,0.016,0.994,0.010,-0.002,-0.008,-0.002,0.000,0.000,0.000,0.000,0,2,0,1,7,255,1200,300,0,0,-89.548,0.628,-31.323
EX0521-092111,9,C05,prep,2432,2432,0,598164.093,0.685,-0.677,0.194,0.188,0,0,0,0,0,0,0,0,0,0.000,0,0,0.108,0.010,-0.080,-0.060,-0.040,0.015,0.994,0.011,0.006,-0.008,-0.002,0.000,0.000,0.000,0.000,0,2,0,1,7,255,1200,300,0,0,-89.548,0.628,-31.323
EX0521-092111,9,C05,prep,2433,2433,0,598169.091,0.685,-0.677,0.194,0.188,0,0,0,0,0,0,0,0,0,0.000,0,0,0.118,0.006,-0.020,-0.060,-0.100,0.014,0.995,0.010,0.006,-0.002,-0.002,0.000,0.000,0.000,0.000,0,2,0,1,7,255,1200,300,0,0,-89.548,0.628,-31.323
EX0521-092111,9,C05,prep,2433,2433,0,598174.091,0.685,-0.677,0.194,0.188,0,0,0,0,0,0,0,0,0,0.000,0,0,0.075,0.004,-0.020,-0.060,-0.040,0.015,0.994,0.011,0.004,-0.002,0.002,0.000,0.000,0.000,0.000,0,2,0,1,7,255,1200,300,0,0,-89.548,0.628,-31.323
EX0521-092111,9,C05,prep,2434,2434,0,598179.092,0.685,-0.677,0.194,0.188,0,0,0,0,0,0,0,0,0,0.000,0,0,0.075,0.004,-0.020,-0.060,0.040,0.015,0.994,0.010,0.004,0.000,0.002,0.000,0.000,0.000,0.000,0,2,0,1,7,255,1200,300,0,0,-89.548,0.628,-31.323
EX0521-092111,9,C05,prep,2434,2434,0,598184.093,0.685,-0.677,0.194,0.188,0,0,0,0,0,0,0,0,0,0.000,0,0,0.075,0.004,-0.020,-0.060,-0.040,0.014,0.994,0.010,0.004,0.000,0.002,0.000,0.000,0.000,0.000,0,2,0,1,7,255,1200,300,0,0,-89.548,0.628,-31.323
EX0521-092111,9,C05,prep,2467,2467,0,598189.092,0.685,-0.677,0.194,0.188,0,0,0,0,0,0,0,0,0,0.000,0,0,0.075,0.006,-0.020,-0.060,-0.040,0.014,0.993,0.009,0.002,0.006,-0.002,0.000,0.000,0.000,0.000,0,2,0,1,7,255,1200,300,0,0,-89.549,0.628,-31.323
EX0521-092111,9,C05,prep,2467,2467,0,598194.092,0.685,-0.677,0.194,0.188,0,0,0,0,0,0,0,0,0,0.000,0,0,0.075,0.006,-0.020,-0.060,-0.040,0.014,0.995,0.012,-0.002,0.006,0.002,0.000,0.000,0.000,0.000,0,2,0,1,7,255,1200,300,0,0,-89.549,0.628,-31.323
EX0521-092111,9,C05,prep,2467,2467,0,598199.092,0.685,-0.677,0.194,0.188,0,0,0,0,0,0,0,0,0,0.000,0,0,0.075,0.004,-0.020,-0.060,-0.040,0.014,0.994,0.011,-0.004,0.002,0.002,0.000,0.000,0.000,0.000,0,2,0,1,7,255,1200,300,0,0,-89.549,0.628,-31.323
EX0521-092111,9,C05,prep,2467,2467,0,598204.092,0.685,-0.677,0.194,0.188,0,0,0,0,0,0,0,0,0,0.000,0,0,0.075,0.008,-0.020,-0.060,-0.040,0.014,0.994,0.011,-0.008,-0.002,0.002,0.000,0.000,0.000,0.000,0,2,0,1,7,255,1200,300,0,0,-89.549,0.628,-31.323
EX0521-092111,9,C05,prep,2468,2468,0,598209.091,0.685,-0.677,0.194,0.188,0,0,0,0,0,0,0,0,0,0.000,0,0,0.102,0.004,-0.080,-0.060,-0.020,0.016,0.994,0.010,-0.004,-0.002,0.002,0.000,0.000,0.000,0.000,0,2,0,1,7,255,1200,300,0,0,-89.549,0.628,-31.323
