experiment_id,condition_order_index,condition_id,condition_phase,condition_phase_elapsed_ms,condition_elapsed_ms,is_stimulation_on,t_ms,R_q0,R_q1,R_q2,R_q3,R_heel1,R_mid1,R_fore1,R_heel2,R_fore3,R_mid2,R_fore4,R_fore2,R_cadence,R_speed,R_steps,R_zupt,R_gyroNorm,R_accH,R_gyro_x,R_gyro_y,R_gyro_z,R_acc_x,R_acc_y,R_acc_z,R_nav_ax,R_nav_ay,R_nav_az,R_stepVel,R_stepVelj,R_stepDispRaw,R_stepDispZUPT,R_gaitEvent,R_motorMode,R_motorActive,R_motorAlignment,R_motorRegionMask,R_motorAmplitude,R_motorIntervalMs,R_motorDurationMs,R_motorPhaseMs,R_motorCycleMs,R_roll,R_pitch,R_yaw
EX0521-092111,20,C20,rest,66735,66735,0,1031959.092,0.685,-0.677,0.196,0.187,0,0,0,0,0,0,0,0,0,0.000,0,0,0.060,0.004,0.040,-0.020,-0.040,0.014,0.994,0.011,0.002,0.004,0.000,0.000,0.000,0.000,0.000,0,2,0,1,7,255,1200,250,0,0,-89.550,0.875,-31.351
EX0521-092111,20,C20,rest,66735,66735,0,1031964.093,0.685,-0.677,0.196,0.187,0,0,0,0,0,0,0,0,0,0.000,0,0,0.060,0.004,-0.020,0.040,-0.040,0.015,0.996,0.012,0.000,0.004,0.000,0.000,0.000,0.000,0.000,0,2,0,1,7,255,1200,250,0,0,-89.550,0.875,-31.351
EX0521-092111,20,C20,rest,66735,66735,0,1031969.091,0.685,-0.677,0.196,0.187,0,0,0,0,0,0,0,0,0,0.000,0,0,0.049,0.003,-0.020,-0.020,-0.040,0.014,0.993,0.011,-0.002,0.002,0.000,0.000,0.000,0.000,0.000,0,2,0,1,7,255,1200,250,0,0,-89.550,0.875,-31.351
EX0521-092111,20,C20,rest,66735,66735,0,1031974.092,0.685,-0.677,0.196,0.187,0,0,0,0,0,0,0,0,0,0.000,0,0,0.092,0.006,-0.020,-0.080,-0.040,0.016,0.994,0.011,0.000,-0.006,0.000,0.000,0.000,0.000,0.000,0,2,0,1,7,255,1200,250,0,0,-89.550,0.875,-31.351
EX0521-092111,20,C20,rest,66735,66735,0,1031979.092,0.685,-0.677,0.196,0.187,0,0,0,0,0,0,0,0,0,0.000,0,0,0.060,0.013,0.040,-0.020,-0.040,0.016,0.994,0.011,0.012,-0.004,0.000,0.000,0.000,0.000,0.000,0,2,0,1,7,255,1200,250,0,0,-89.550,0.875,-31.351
EX0521-092111,20,C20,rest,66735,66735,0,1031984.093,0.685,-0.677,0.196,0.187,0,0,0,0,0,0,0,0,0,0.000,0,0,0.110,0.013,0.040,-0.020,-0.100,0.014,0.994,0.011,0.012,-0.004,0.000,0.000,0.000,0.000,0.000,0,2,0,1,7,255,1200,250,0,0,-89.550,0.875,-31.351
EX0521-092111,20,C20,rest,66751,66751,0,1031989.091,0.685,-0.677,0.196,0.187,0,0,0,0,0,0,0,0,0,0.000,0,0,0.060,0.010,-0.020,0.040,-0.040,0.015,0.995,0.011,0.010,0.000,0.000,0.000,0.000,0.000,0.000,0,2,0,1,7,255,1200,250,0,0,-89.550,0.875,-31.351
EX0521-092111,20,C20,rest,66751,66751,0,1031994.092,0.685,-0.677,0.196,0.187,0,0,0,0,0,0,0,0,0,0.000,0,0,0.069,0.002,0.040,0.040,-0.040,0.015,0.995,0.011,0.002,0.000,0.006,0.000,0.000,0.000,0.000,0,2,0,1,7,255,1200,250,0,0,-89.550,0.875,-31.351
EX0521-092111,20,C20,rest,66751,66751,0,1031999.092,0.685,-0.677,0.196,0.187,0,0,0,0,0,0,0,0,0,0.000,0,0,0.069,0.003,0.040,0.040,-0.040,0.015,0.994,0.012,0.002,-0.002,0.006,0.000,0.000,0.000,0.000,0,2,0,1,7,255,1200,250,0,0,-89.550,0.875,-31.351
EX0521-092111,20,C20,rest,66751,66751,0,1032004.092,0.685,-0.677,0.196,0.187,0,0,0,0,0,0,0,0,0,0.000,0,0,0.060,0.003,0.040,-0.020,-0.040,0.015,0.994,0.011,0.002,-0.002,0.000,0.000,0.000,0.000,0.000,0,2,0,1,7,255,1200,250,0,0,-89.550,0.875,-31.351
EX0521-092111,20,C20,rest,66767,66767,0,1032009.093,0.685,-0.677,0.196,0.187,0,0,0,0,0,0,0,0,0,0.000,0,0,0.060,0.003,0.040,-0.020,-0.040,0.014,0.993,0.011,-0.002,-0.002,-0.004,0.000,0.000,0.000,0.000,0,2,0,1,7,255,1200,250,0,0,-89.550,0.875,-31.351
EX0521-092111,20,C20,rest,66767,66767,0,1032014.091,0.685,-0.677,0.196,0.187,0,0,0,0,0,0,0,0,0,0.000,0,0,0.049,0.003,-0.020,-0.020,-0.040,0.014,0.993,0.012,-0.002,-0.002,-0.008,0.000,0.000,0.000,0.000,0,2,0,1,7,255,1200,250,0,0,-89.550,0.875,-31.351
EX0521-092111,20,C20,rest,66767,66767,0,1032019.092,0.685,-0.677,0.196,0.187,0,0,0,0,0,0,0,0,0,0.000,0,0,0.049,0.003,-0.020,-0.020,-0.040,0.015,0.995,0.011,-0.002,-0.002,-0.008,0.000,0.000,0.000,0.000,0,2,0,1,7,255,1200,250,0,0,-89.550,0.875,-31.351
EX0521-092111,20,C20,rest,66767,66767,0,1032024.092,0.685,-0.677,0.196,0.187,0,0,0,0,0,0,0,0,0,0.000,0,0,0.049,0.006,0.040,-0.020,0.020,0.014,0.995,0.012,-0.004,-0.004,0.006,0.000,0.000,0.000,0.000,0,2,0,1,7,255,1200,250,0,0,-89.550,0.875,-31.351
EX0521-092111,20,C20,rest,66768,66768,0,1032029.092,0.685,-0.677,0.196,0.187,0,0,0,0,0,0,0,0,0,0.000,0,0,0.049,0.006,0.040,-0.020,0.020,0.014,0.995,0.012,-0.004,-0.004,0.006,0.000,0.000,0.000,0.000,0,2,0,1,7,255,1200,250,0,0,-89.550,0.875,-31.351
EX0521-092111,20,C20,rest,66768,66768,0,1032034.091,0.685,-0.677,0.196,0.187,0,0,0,0,0,0,0,0,0,0.000,0,0,0.060,0.006,0.040,-0.020,-0.040,0.014,0.993,0.011,-0.004,-0.004,0.006,0.000,0.000,0.000,0.000,0,2,0,1,7,255,1200,250,0,0,-89.550,0.875,-31.351
EX0521-092111,20,C20,rest,66783,66783,0,1032039.093,0.685,-0.677,0.196,0.187,0,0,0,0,0,0,0,0,0,0.000,0,0,0.060,0.004,0.040,-0.020,-0.040,0.015,0.993,0.012,-0.002,-0.004,-0.008,0.000,0.000,0.000,0.000,0,2,0,1,7,255,1200,250,0,1450,-89.550,0.875,-31.351
EX0521-092111,20,C20,rest,66783,66783,0,1032044.092,0.685,-0.677,0.196,0.187,0,0,0,0,0,0,0,0,0,0.000,0,0,0.049,0.002,0.040,-0.020,0.020,0.015,0.994,0.011,-0.002,0.000,-0.008,0.000,0.000,0.000,0.000,0,2,0,1,7,255,1200,250,0,1450,-89.550,0.875,-31.351
EX0521-092111,20,C20,rest,66799,66799,0,1032049.092,0.685,-0.677,0.196,0.187,0,0,0,0,0,0,0,0,0,0.000,0,0,0.049,0.003,-0.020,-0.020,-0.040,0.015,0.994,0.011,0.002,-0.002,-0.004,0.000,0.000,0.000,0.000,0,2,0,1,7,255,1200,250,0,1450,-89.550,0.875,-31.351
EX0521-092111,20,C20,rest,66799,66799,0,1032054.093,0.685,-0.677,0.196,0.187,0,0,0,0,0,0,0,0,0,0.000,0,0,0.049,0.003,-0.020,-0.020,-0.040,0.015,0.995,0.011,0.002,-0.002,-0.004,0.000,0.000,0.000,0.000,0,2,0,1,7,255,1200,250,4,1450,-89.550,0.875,-31.351
EX0521-092111,20,C20,rest,66799,66799,0,1032059.092,0.685,-0.677,0.196,0.187,0,0,0,0,0,0,0,0,0,0.000,0,0,0.049,0.003,-0.020,-0.020,-0.040,0.014,0.994,0.011,0.002,-0.002,0.000,0.000,0.000,0.000,0.000,0,2,0,1,7,255,1200,250,9,1450,-89.550,0.875,-31.351
EX0521-092111,20,C20,rest,66799,66799,0,1032064.091,0.685,-0.677,0.196,0.187,0,0,0,0,0,0,0,0,0,0.000,0,0,0.060,0.004,0.040,-0.020,-0.040,0.015,0.994,0.010,0.002,0.004,0.000,0.000,0.000,0.000,0.000,0,2,0,1,7,255,1200,250,14,1450,-89.550,0.875,-31.351
EX0521-092111,20,C20,rest,66832,66832,0,1032069.092,0.685,-0.677,0.196,0.187,0,0,0,0,0,0,0,0,0,0.000,0,0,0.098,0.004,0.040,-0.080,-0.040,0.014,0.994,0.011,0.002,0.004,0.000,0.000,0.000,0.000,0.000,0,2,0,1,7,255,1200,250,19,1450,-89.550,0.875,-31.351
EX0521-092111,20,C20,rest,66832,66832,0,1032074.093,0.685,-0.677,0.196,0.187,0,0,0,0,0,0,0,0,0,0.000,0,0,0.049,0.006,0.040,-0.020,0.020,0.014,0.994,0.011,-0.006,0.002,0.000,0.000,0.000,0.000,0.000,0,2,0,1,7,255,1200,250,24,1450,-89.550,0.875,-31.351
EX0521-092111,20,C20,rest,66832,66832,0,1032079.092,0.685,-0.677,0.196,0.187,0,0,0,0,0,0,0,0,0,0.000,0,0,0.060,0.006,0.040,-0.020,-0.040,0.015,0.993,0.011,-0.006,0.002,-0.004,0.000,0.000,0.000,0.000,0,2,0,1,7,255,1200,250,29,1450,-89.550,0.875,-31.351
EX0521-092111,20,C20,rest,66832,66832,0,1032084.093,0.685,-0.677,0.196,0.187,0,0,0,0,0,0,0,0,0,0.000,0,0,0.035,0.003,-0.020,-0.020,0.020,0.014,0.994,0.011,-0.002,0.002,0.000,0.000,0.000,0.000,0.000,0,2,0,1,7,255,1200,250,34,1450,-89.550,0.875,-31.351
EX0521-092111,20,C20,rest,66847,66847,0,1032089.092,0.685,-0.677,0.196,0.187,0,0,0,0,0,0,0,0,0,0.000,0,0,0.110,0.002,0.040,-0.020,-0.100,0.015,0.995,0.012,0.000,-0.002,0.000,0.000,0.000,0.000,0.000,0,2,0,1,7,255,1200,250,39,1450,-89.550,0.875,-31.351
EX0521-092111,20,C20,rest,66847,66847,0,1032094.092,0.685,-0.677,0.196,0.187,0,0,0,0,0,0,0,0,0,0.000,0,0,0.110,0.006,0.100,-0.020,-0.040,0.015,0.994,0.012,0.000,-0.006,0.000,0.000,0.000,0.000,0.000,0,2,0,1,7,255,1200,250,44,1450,-89.550,0.875,-31.351
EX0521-092111,20,C20,rest,66847,66847,0,1032099.091,0.685,-0.677,0.196,0.187,0,0,0,0,0,0,0,0,0,0.000,0,0,0.115,0.006,0.100,0.040,-0.040,0.015,0.993,0.011,0.002,-0.006,-0.004,0.000,0.000,0.000,0.000,0,2,0,1,7,255,1200,250,49,1450,-89.550,0.875,-31.351
EX0521-092111,20,C20,rest,66847,66847,0,1032104.092,0.685,-0.677,0.196,0.187,0,0,0,0,0,0,0,0,0,0.000,0,0,0.266,0.006,-0.260,0.040,-0.040,0.015,0.993,0.011,0.006,0.000,-0.008,0.000,0.000,0.000,0.000,0,2,0,1,7,255,1200,250,54,1450,-89.550,0.875,-31.351
EX0521-092111,20,C20,rest,66863,66863,0,1032109.091,0.685,-0.677,0.196,0.187,0,0,0,0,0,0,0,0,0,0.000,0,0,0.264,0.006,0.220,-0.140,-0.040,0.015,0.995,0.014,0.006,0.000,-0.008,0.000,0.000,0.000,0.000,0,2,0,1,7,255,1200,250,59,1450,-89.544,0.875,-31.351
EX0521-092111,20,C20,rest,66863,66863,0,1032114.092,0.685,-0.677,0.196,0.187,0,0,0,0,0,0,0,0,0,0.000,0,0,1.267,0.006,1.200,-0.080,-0.400,0.015,0.994,0.007,0.006,0.002,0.000,0.000,0.000,0.000,0.000,0,2,0,1,7,255,1200,250,64,1450,-89.550,0.875,-31.351
EX0521-092111,20,C20,rest,66863,66863,0,1032119.092,0.685,-0.677,0.196,0.187,0,0,0,0,0,0,0,0,0,0.000,0,0,2.048,0.031,-1.980,0.040,0.520,0.015,0.996,0.008,0.022,0.022,0.010,0.000,0.000,0.000,0.000,0,2,0,1,7,255,1200,250,69,1450,-89.541,0.875,-31.351
EX0521-092111,20,C20,rest,66863,66863,0,1032124.092,0.685,-0.677,0.195,0.187,0,0,0,0,0,0,0,0,0,0.000,0,0,0.622,0.031,0.580,0.040,-0.220,0.015,0.989,0.021,0.022,0.022,0.000,0.000,0.000,0.000,0.000,0,2,0,1,7,255,1200,250,74,1450,-89.531,0.875,-31.351
EX0521-092111,20,C20,rest,66879,66879,0,1032129.091,0.685,-0.677,0.195,0.187,0,0,0,0,0,0,0,0,0,0.000,0,0,2.598,0.031,2.420,0.100,-0.940,0.013,1.002,0.002,0.022,0.022,0.016,0.000,0.000,0.000,0.000,0,2,0,1,7,255,1200,250,79,1450,-89.545,0.871,-31.351
EX0521-092111,20,C20,rest,66879,66879,0,1032134.092,0.685,-0.676,0.195,0.187,0,0,0,0,0,0,0,0,0,0.000,0,0,3.792,0.031,-3.560,-0.340,1.260,0.015,0.988,0.015,-0.008,-0.030,-0.050,0.000,0.000,0.000,0.000,0,2,0,1,7,255,1200,250,84,1450,-89.526,0.877,-31.351
EX0521-092111,20,C20,rest,66898,66898,0,1032139.091,0.685,-0.677,0.195,0.187,0,0,0,0,0,0,0,0,0,0.000,0,0,1.721,0.022,1.620,-0.020,-0.580,0.013,0.998,0.010,-0.008,0.020,0.040,0.000,0.000,0.000,0.000,0,2,0,1,7,255,1200,250,89,1450,-89.534,0.874,-31.351
EX0521-092111,20,C20,rest,66898,66898,0,1032144.092,0.685,-0.677,0.195,0.187,0,0,0,0,0,0,0,0,0,0.000,0,0,0.376,0.011,0.340,-0.020,0.160,0.015,0.988,0.012,-0.008,-0.008,-0.060,0.000,0.000,0.000,0.000,0,2,0,1,7,255,1200,250,94,1450,-89.534,0.874,-31.351
EX0521-092111,20,C20,rest,66898,66898,0,1032149.092,0.685,-0.677,0.195,0.187,0,0,0,0,0,0,0,0,0,0.000,0,0,0.573,0.021,-0.520,0.100,-0.220,0.013,1.005,0.010,-0.006,0.020,0.040,0.000,0.000,0.000,0.000,0,2,0,1,7,255,1200,250,99,1450,-89.534,0.874,-31.351
EX0521-092111,20,C20,rest,66898,66898,0,1032154.092,0.685,-0.677,0.195,0.187,0,0,0,0,0,0,0,0,0,0.000,0,0,0.671,0.008,-0.520,-0.140,0.400,0.017,0.977,0.014,0.000,-0.008,-0.060,0.000,0.000,0.000,0.000,0,2,0,1,7,255,1200,250,104,1450,-89.529,0.874,-31.351
EX0521-092111,20,C20,rest,66930,66930,0,1032159.092,0.685,-0.677,0.195,0.187,0,0,0,0,0,0,0,0,0,0.000,0,0,1.910,0.025,1.800,-0.020,-0.640,0.011,1.022,0.009,-0.006,0.024,0.106,0.000,0.000,0.000,0.000,0,2,0,1,7,255,1200,250,109,1450,-89.538,0.871,-31.351
EX0521-092111,20,C20,rest,66930,66930,0,1032164.093,0.685,-0.677,0.195,0.187,0,0,0,0,0,0,0,0,0,0.000,0,0,1.449,0.037,1.140,0.160,-0.880,0.019,0.962,0.014,0.014,-0.034,-0.170,0.000,0.000,0.000,0.000,0,2,0,1,7,255,1200,250,114,1450,-89.542,0.867,-31.351
EX0521-092111,20,C20,rest,66931,66931,0,1032169.092,0.685,-0.676,0.196,0.187,0,0,0,0,0,0,0,0,0,0.000,0,0,4.607,0.022,-4.060,-0.760,2.040,0.012,1.004,0.012,-0.020,0.010,0.098,0.000,0.000,0.000,0.000,0,2,0,1,7,255,1200,250,119,1450,-89.522,0.877,-31.355
EX0521-092111,20,C20,rest,66931,66931,0,1032174.091,0.685,-0.677,0.195,0.187,0,0,0,0,0,0,0,0,0,0.000,0,0,5.617,0.013,5.040,0.760,-2.360,0.009,1.024,0.004,-0.008,0.010,0.098,0.000,0.000,0.000,0.000,0,2,0,1,7,255,1200,250,124,1450,-89.547,0.864,-31.351
EX0521-092111,20,C20,rest,66959,66959,0,1032179.092,0.685,-0.677,0.195,0.187,0,0,0,0,0,0,0,0,0,0.000,0,0,2.439,0.013,-2.160,-0.400,1.060,0.021,0.956,0.010,-0.008,0.010,0.098,0.000,0.000,0.000,0.000,0,2,0,1,7,255,1200,250,129,1450,-89.536,0.870,-31.351
EX0521-092111,20,C20,rest,66959,66959,0,1032184.093,0.685,-0.676,0.195,0.187,0,0,0,0,0,0,0,0,0,0.000,0,0,2.615,0.022,-2.460,0.100,0.880,0.012,1.011,0.016,-0.008,-0.020,0.166,0.000,0.000,0.000,0.000,0,2,0,1,7,255,1200,250,134,1450,-89.521,0.875,-31.351
EX0521-092111,20,C20,rest,66959,66959,0,1032189.092,0.685,-0.677,0.195,0.187,0,0,0,0,0,0,0,0,0,0.000,0,0,4.192,0.069,3.760,0.640,-1.740,0.020,0.980,0.006,0.066,-0.020,-0.130,0.000,0.000,0.000,0.000,0,2,0,1,7,255,1200,250,139,1450,-89.540,0.867,-31.348
EX0521-092111,20,C20,rest,66959,66959,0,1032194.091,0.685,-0.676,0.195,0.187,0,0,0,0,0,0,0,0,0,0.000,0,0,3.509,0.050,-3.080,0.040,1.680,0.005,1.003,0.033,-0.046,-0.020,0.090,0.000,0.000,0.000,0.000,0,2,0,1,7,255,1200,250,144,1450,-89.517,0.874,-31.348
EX0521-092111,20,C20,rest,66959,66959,0,1032199.092,0.685,-0.677,0.195,0.187,0,0,0,0,0,0,0,0,0,0.000,0,0,1.274,0.080,0.960,-0.460,-0.700,0.016,1.002,-0.007,0.078,0.016,0.082,0.000,0.000,0.000,0.000,0,2,0,1,7,255,1200,250,149,1450,-89.527,0.870,-31.348
EX0521-092111,20,C20,rest,66959,66959,0,1032204.091,0.685,-0.677,0.195,0.187,0,0,0,0,0,0,0,0,0,0.000,0,0,1.686,0.033,0.100,-1.680,0.100,0.017,0.968,0.010,0.032,-0.008,0.082,0.000,0.000,0.000,0.000,0,2,0,1,7,255,1200,250,154,1450,-89.527,0.870,-31.356
EX0521-092111,20,C20,rest,66959,66959,0,1032209.092,0.685,-0.677,0.195,0.187,0,0,0,0,0,0,0,0,0,0.000,0,0,3.605,0.033,0.520,3.520,-0.580,0.014,1.027,0.029,0.032,-0.008,0.082,0.000,0.000,0.000,0.000,0,2,0,1,7,255,1200,250,159,1450,-89.521,0.867,-31.339
EX0521-092111,20,C20,rest,66959,66959,0,1032214.091,0.685,-0.677,0.195,0.187,0,0,0,0,0,0,0,0,0,0.000,0,0,0.853,0.033,0.700,-0.460,-0.160,0.013,0.980,-0.019,0.032,-0.008,-0.138,0.000,0.000,0.000,0.000,0,2,0,1,7,255,1200,250,164,1450,-89.533,0.867,-31.339
EX0521-092111,20,C20,rest,66960,66960,0,1032219.092,0.685,-0.676,0.195,0.187,0,0,0,0,0,0,0,0,0,0.000,0,0,1.434,0.170,-0.940,-1.060,0.220,0.012,1.002,0.039,-0.094,-0.142,0.086,0.000,0.000,0.000,0.000,0,2,0,1,7,255,1200,250,169,1450,-89.519,0.868,-31.344
EX0521-092111,20,C20,rest,66960,66960,0,1032224.091,0.685,-0.677,0.195,0.187,0,0,0,0,0,0,0,0,0,0.000,0,0,4.006,0.191,3.340,1.680,-1.440,0.018,0.997,-0.008,0.130,0.140,0.030,0.000,0.000,0.000,0.000,0,2,0,1,7,255,1200,250,174,1450,-89.540,0.860,-31.336
EX0521-092111,20,C20,rest,66975,66975,0,1032229.092,0.685,-0.677,0.195,0.187,0,0,0,0,0,0,0,0,0,0.000,0,0,1.909,0.131,-1.560,-0.460,1.000,0.005,0.980,0.021,-0.124,-0.042,0.030,0.000,0.000,0.000,0.000,0,2,0,1,7,255,1200,250,179,1450,-89.529,0.864,-31.336
EX0521-092111,20,C20,rest,66975,66975,0,1032234.091,0.685,-0.677,0.195,0.187,0,0,0,0,0,0,0,0,0,0.000,0,0,1.275,0.096,0.400,-1.120,-0.460,0.021,1.003,0.004,0.090,0.032,0.030,0.000,0.000,0.000,0.000,0,2,0,1,7,255,1200,250,184,1450,-89.529,0.865,-31.341
EX0521-092111,20,C20,rest,66996,66996,0,1032239.092,0.685,-0.677,0.195,0.187,0,0,0,0,0,0,0,0,0,0.000,0,0,1.524,0.014,0.220,-1.500,0.160,0.014,0.983,0.010,0.008,0.012,-0.108,0.000,0.000,0.000,0.000,0,2,0,1,7,255,1200,250,189,1450,-89.529,0.865,-31.349
EX0521-092111,20,C20,rest,66996,66996,0,1032244.092,0.685,-0.676,0.195,0.187,0,0,0,0,0,0,0,0,0,0.000,0,0,1.930,0.014,-1.420,1.140,0.640,0.013,0.999,0.030,0.008,0.012,0.050,0.000,0.000,0.000,0.000,0,2,0,1,7,255,1200,250,194,1450,-89.515,0.868,-31.343
EX0521-092111,20,C20,rest,66996,66996,0,1032249.092,0.685,-0.677,0.195,0.187,0,0,0,0,0,0,0,0,0,0.000,0,0,0.718,0.014,0.700,-0.020,-0.160,0.013,0.994,-0.005,0.008,0.012,0.000,0.000,0.000,0.000,0.000,0,2,0,1,7,255,1200,250,199,1450,-89.531,0.868,-31.343
EX0521-092111,20,C20,rest,66996,66996,0,1032254.092,0.685,-0.676,0.195,0.187,0,0,0,0,0,0,0,0,0,0.000,0,0,2.006,0.124,-1.480,-1.120,0.760,0.013,0.992,0.024,-0.074,-0.100,0.000,0.000,0.000,0.000,0.000,0,2,0,1,7,255,1200,250,204,1450,-89.519,0.872,-31.349
EX0521-092111,20,C20,rest,67007,67007,0,1032259.091,0.685,-0.676,0.195,0.187,0,0,0,0,0,0,0,0,0,0.000,0,0,0.824,0.129,-0.080,-0.820,0.020,0.018,0.997,-0.003,0.076,0.104,0.000,0.000,0.000,0.000,0.000,0,2,0,1,7,255,1200,250,209,1450,-89.522,0.872,-31.353
EX0521-092111,20,C20,rest,67007,67007,0,1032264.092,0.685,-0.676,0.195,0.187,0,0,0,0,0,0,0,0,0,0.000,0,0,0.355,0.080,-0.260,0.100,0.220,0.015,0.991,0.020,-0.038,-0.070,-0.016,0.000,0.000,0.000,0.000,0,2,0,1,7,255,1200,250,214,1450,-89.512,0.872,-31.353
EX0521-092111,20,C20,rest,67039,67039,0,1032269.091,0.685,-0.676,0.195,0.187,0,0,0,0,0,0,0,0,0,0.000,0,0,0.284,0.031,-0.020,-0.280,-0.040,0.013,0.995,0.014,-0.028,-0.014,0.012,0.000,0.000,0.000,0.000,0,2,0,1,7,255,1200,250,219,1450,-89.507,0.872,-31.353
EX0521-092111,20,C20,rest,67039,67039,0,1032274.092,0.685,-0.676,0.195,0.187,0,0,0,0,0,0,0,0,0,0.000,0,0,1.284,0.031,0.640,-1.060,-0.340,0.018,0.995,0.003,-0.028,-0.014,0.006,0.000,0.000,0.000,0.000,0,2,0,1,7,255,1200,250,224,1450,-89.512,0.872,-31.358
EX0521-092111,20,C20,rest,67039,67039,0,1032279.093,0.685,-0.676,0.195,0.187,0,0,0,0,0,0,0,0,0,0.000,0,0,0.536,0.031,0.400,-0.280,-0.220,0.013,0.996,0.023,-0.028,-0.014,0.012,0.000,0.000,0.000,0.000,0,2,0,1,7,255,1200,250,229,1450,-89.498,0.872,-31.358
EX0521-092111,20,C20,rest,67039,67039,0,1032284.093,0.685,-0.676,0.195,0.187,0,0,0,0,0,0,0,0,0,0.000,0,0,0.753,0.049,-0.260,-0.700,0.100,0.011,0.997,0.008,-0.010,0.048,0.022,0.000,0.000,0.000,0.000,0,2,0,1,7,255,1200,250,234,1450,-89.498,0.872,-31.361
EX0521-092111,20,C20,rest,67039,67039,0,1032289.091,0.685,-0.676,0.195,0.187,0,0,0,0,0,0,0,0,0,0.000,0,0,0.180,0.021,-0.080,0.160,0.020,0.015,0.993,0.009,-0.010,0.018,0.022,0.000,0.000,0.000,0.000,0,2,0,1,7,255,1200,250,239,1450,-89.498,0.872,-31.361
EX0521-092111,20,C20,rest,67039,67039,0,1032294.092,0.685,-0.676,0.195,0.187,0,0,0,0,0,0,0,0,0,0.000,0,0,0.971,0.051,-0.580,-0.700,0.340,0.011,0.994,0.008,-0.010,0.050,0.000,0.000,0.000,0.000,0.000,0,2,0,1,7,255,1200,250,244,1450,-89.496,0.872,-31.365
EX0521-092111,20,C20,rest,67063,67063,0,1032299.091,0.685,-0.676,0.195,0.187,0,0,0,0,0,0,0,0,0,0.000,0,0,0.538,0.022,-0.260,-0.460,0.100,0.015,0.995,0.010,0.012,0.018,0.000,0.000,0.000,0.000,0.000,0,2,0,1,7,255,1200,250,249,1450,-89.496,0.872,-31.365
EX0521-092111,20,C20,rest,67063,67063,0,1032304.092,0.685,-0.676,0.196,0.187,0,0,0,0,0,0,0,0,0,0.000,0,0,0.645,0.018,-0.080,-0.640,0.020,0.016,0.990,0.011,0.012,0.014,0.000,0.000,0.000,0.000,0.000,0,2,0,1,7,255,1200,250,254,1450,-89.496,0.872,-31.368
EX0521-092111,20,C20,rest,67063,67063,0,1032309.091,0.685,-0.676,0.195,0.187,0,0,0,0,0,0,0,0,0,0.000,0,0,0.262,0.013,0.100,0.220,-0.100,0.013,0.994,0.018,0.012,-0.006,0.002,0.000,0.000,0.000,0.000,0,2,0,1,7,255,1200,250,259,1450,-89.488,0.872,-31.368
EX0521-092111,20,C20,rest,67063,67063,0,1032314.092,0.685,-0.676,0.195,0.187,0,0,0,0,0,0,0,0,0,0.000,0,0,0.173,0.015,-0.020,-0.140,-0.100,0.013,0.994,0.013,-0.014,-0.006,-0.004,0.000,0.000,0.000,0.000,0,2,0,1,7,255,1200,250,264,1450,-89.488,0.872,-31.368
EX0521-092111,20,C20,rest,67063,67063,0,1032319.092,0.685,-0.676,0.195,0.187,0,0,0,0,0,0,0,0,0,0.000,0,0,0.264,0.014,-0.140,-0.200,0.100,0.014,0.995,0.009,-0.014,-0.002,0.002,0.000,0.000,0.000,0.000,0,2,0,1,7,255,1200,250,269,1450,-89.488,0.872,-31.368
EX0521-092111,20,C20,rest,67063,67063,0,1032324.092,0.685,-0.676,0.195,0.187,0,0,0,0,0,0,0,0,0,0.000,0,0,0.115,0.021,0.040,0.100,-0.040,0.014,0.995,0.010,0.006,0.020,0.006,0.000,0.000,0.000,0.000,0,2,0,1,7,255,1200,250,274,1450,-89.488,0.872,-31.368
EX0521-092111,20,C20,rest,67071,67071,0,1032329.092,0.685,-0.676,0.195,0.187,0,0,0,0,0,0,0,0,0,0.000,0,0,0.216,0.021,-0.080,-0.200,0.020,0.014,0.995,0.010,0.006,0.020,0.006,0.000,0.000,0.000,0.000,0,2,0,1,7,255,1200,250,279,1450,-89.488,0.872,-31.368
EX0521-092111,20,C20,rest,67071,67071,0,1032334.092,0.685,-0.676,0.195,0.187,0,0,0,0,0,0,0,0,0,0.000,0,0,0.049,0.016,0.040,-0.020,0.020,0.014,0.996,0.014,0.002,0.016,0.010,0.000,0.000,0.000,0.000,0,2,0,1,7,255,1200,250,284,1450,-89.483,0.872,-31.368
EX0521-092111,20,C20,rest,67095,67095,0,1032339.092,0.685,-0.676,0.195,0.187,0,0,0,0,0,0,0,0,0,0.000,0,0,0.143,0.002,-0.020,0.100,-0.100,0.015,0.994,0.012,0.002,0.000,0.010,0.000,0.000,0.000,0.000,0,2,0,1,7,255,1200,250,289,1450,-89.483,0.872,-31.368
EX0521-092111,20,C20,rest,67095,67095,0,1032344.091,0.685,-0.676,0.195,0.187,0,0,0,0,0,0,0,0,0,0.000,0,0,0.115,0.004,0.100,0.040,-0.040,0.017,0.993,0.007,0.004,0.000,-0.004,0.000,0.000,0.000,0.000,0,2,0,1,7,255,1200,250,294,1450,-89.483,0.872,-31.368
EX0521-092111,20,C20,rest,67095,67095,0,1032349.092,0.685,-0.676,0.195,0.187,0,0,0,0,0,0,0,0,0,0.000,0,0,0.208,0.023,0.040,-0.200,-0.040,0.015,0.996,0.010,0.018,0.014,-0.004,0.000,0.000,0.000,0.000,0,2,0,1,7,255,1200,250,299,1450,-89.483,0.872,-31.368
EX0521-092111,20,C20,rest,67095,67095,0,1032354.091,0.685,-0.676,0.195,0.187,0,0,0,0,0,0,0,0,0,0.000,0,0,0.193,0.023,0.100,0.160,-0.040,0.013,0.995,0.013,0.018,0.014,0.010,0.000,0.000,0.000,0.000,0,2,0,1,7,255,1200,250,304,1450,-89.483,0.872,-31.368
EX0521-092111,20,C20,rest,67104,67104,0,1032359.093,0.685,-0.676,0.195,0.187,0,0,0,0,0,0,0,0,0,0.000,0,0,0.049,0.014,-0.020,-0.020,0.040,0.013,0.994,0.010,0.002,0.014,0.010,0.000,0.000,0.000,0.000,0,2,0,1,7,255,1200,250,309,1450,-89.483,0.872,-31.368
EX0521-092111,20,C20,rest,67104,67104,0,1032364.093,0.685,-0.676,0.195,0.187,0,0,0,0,0,0,0,0,0,0.000,0,0,0.098,0.020,0.040,-0.080,-0.040,0.014,0.994,0.010,0.002,0.020,0.000,0.000,0.000,0.000,0.000,0,2,0,1,7,255,1200,250,314,1450,-89.483,0.872,-31.368
EX0521-092111,20,C20,rest,67135,67135,0,1032369.092,0.685,-0.676,0.195,0.187,0,0,0,0,0,0,0,0,0,0.000,0,0,0.202,0.020,-0.140,-0.140,0.040,0.015,0.992,0.012,0.004,0.020,-0.004,0.000,0.000,0.000,0.000,0,2,0,1,7,255,1200,250,319,1450,-89.483,0.872,-31.368
EX0521-092111,20,C20,rest,67135,67135,0,1032374.091,0.685,-0.676,0.195,0.187,0,0,0,0,0,0,0,0,0,0.000,0,0,0.049,0.004,-0.020,-0.020,0.040,0.014,0.994,0.012,0.004,-0.002,-0.004,0.000,0.000,0.000,0.000,0,2,0,1,7,255,1200,250,324,1450,-89.483,0.872,-31.368
EX0521-092111,20,C20,rest,67151,67151,0,1032379.092,0.685,-0.676,0.195,0.187,0,0,0,0,0,0,0,0,0,0.000,0,0,0.166,0.004,-0.140,-0.080,-0.040,0.014,0.995,0.012,-0.004,-0.002,-0.004,0.000,0.000,0.000,0.000,0,2,0,1,7,255,1200,250,329,1450,-89.483,0.872,-31.368
EX0521-092111,20,C20,rest,67151,67151,0,1032384.093,0.685,-0.676,0.195,0.187,0,0,0,0,0,0,0,0,0,0.000,0,0,0.092,0.008,-0.080,-0.020,0.040,0.013,0.995,0.013,-0.008,-0.002,0.006,0.000,0.000,0.000,0.000,0,2,0,1,7,255,1200,250,334,1450,-89.483,0.872,-31.368
EX0521-092111,20,C20,rest,67151,67151,0,1032389.092,0.685,-0.676,0.195,0.187,0,0,0,0,0,0,0,0,0,0.000,0,0,0.134,0.008,0.100,-0.080,0.040,0.014,0.994,0.011,-0.008,0.000,0.006,0.000,0.000,0.000,0.000,0,2,0,1,7,255,1200,250,339,1450,-89.483,0.872,-31.368
EX0521-092111,20,C20,rest,67151,67151,0,1032394.091,0.685,-0.676,0.195,0.187,0,0,0,0,0,0,0,0,0,0.000,0,0,0.092,0.010,-0.020,-0.080,0.040,0.013,0.995,0.010,-0.002,0.010,0.010,0.000,0.000,0.000,0.000,0,2,0,1,7,255,1200,250,344,1450,-89.483,0.872,-31.368
EX0521-092111,20,C20,rest,67151,67151,0,1032399.092,0.685,-0.676,0.195,0.187,0,0,0,0,0,0,0,0,0,0.000,0,0,0.130,0.018,-0.020,-0.080,0.100,0.015,0.994,0.009,0.004,0.018,0.000,0.000,0.000,0.000,0.000,0,2,0,1,7,255,1200,250,349,1450,-89.483,0.873,-31.368
EX0521-092111,20,C20,rest,67151,67151,0,1032404.091,0.685,-0.676,0.195,0.187,0,0,0,0,0,0,0,0,0,0.000,0,0,0.049,0.019,-0.020,-0.020,0.040,0.015,0.991,0.011,0.006,0.018,-0.004,0.000,0.000,0.000,0.000,0,2,0,1,7,255,1200,250,354,1450,-89.483,0.873,-31.368
EX0521-092111,20,C20,rest,67151,67151,0,1032409.092,0.685,-0.676,0.195,0.187,0,0,0,0,0,0,0,0,0,0.000,0,0,0.170,0.006,0.040,0.160,-0.040,0.015,0.993,0.012,0.006,0.002,-0.008,0.000,0.000,0.000,0.000,0,2,0,1,7,255,1200,250,359,1450,-89.483,0.873,-31.368
EX0521-092111,20,C20,rest,67151,67151,0,1032414.092,0.685,-0.676,0.195,0.187,0,0,0,0,0,0,0,0,0,0.000,0,0,0.170,0.004,0.040,0.160,-0.040,0.015,0.995,0.013,0.004,-0.002,-0.008,0.000,0.000,0.000,0.000,0,2,0,1,7,255,1200,250,364,1450,-89.483,0.873,-31.368
EX0521-092111,20,C20,rest,67167,67167,0,1032419.092,0.685,-0.676,0.195,0.187,0,0,0,0,0,0,0,0,0,0.000,0,0,0.060,0.006,-0.020,0.040,-0.040,0.015,0.996,0.012,0.004,-0.004,0.010,0.000,0.000,0.000,0.000,0,2,0,1,7,255,1200,250,369,1450,-89.483,0.873,-31.368
EX0521-092111,20,C20,rest,67167,67167,0,1032424.092,0.685,-0.676,0.195,0.187,0,0,0,0,0,0,0,0,0,0.000,0,0,0.190,0.009,0.160,-0.020,-0.100,0.015,0.994,0.011,0.008,-0.004,0.010,0.000,0.000,0.000,0.000,0,2,0,1,7,255,1200,250,374,1450,-89.483,0.873,-31.368
EX0521-092111,20,C20,rest,67167,67167,0,1032429.091,0.685,-0.676,0.195,0.187,0,0,0,0,0,0,0,0,0,0.000,0,0,0.162,0.009,0.100,-0.080,0.100,0.014,0.995,0.012,0.008,0.004,0.006,0.000,0.000,0.000,0.000,0,2,0,1,7,255,1200,250,379,1450,-89.483,0.873,-31.368
EX0521-092111,20,C20,rest,67167,67167,0,1032434.092,0.685,-0.676,0.195,0.187,0,0,0,0,0,0,0,0,0,0.000,0,0,0.235,0.007,0.100,-0.140,-0.160,0.014,0.994,0.014,-0.006,0.004,0.002,0.000,0.000,0.000,0.000,0,2,0,1,7,255,1200,250,384,1450,-89.483,0.873,-31.368
EX0521-092111,20,C20,rest,67183,67183,0,1032439.091,0.685,-0.676,0.195,0.187,0,0,0,0,0,0,0,0,0,0.000,0,0,0.227,0.007,0.100,-0.200,-0.040,0.013,0.994,0.011,-0.006,0.004,0.002,0.000,0.000,0.000,0.000,0,2,0,1,7,255,1200,250,389,1450,-89.483,0.873,-31.368
EX0521-092111,20,C20,rest,67183,67183,0,1032444.092,0.685,-0.676,0.195,0.187,0,0,0,0,0,0,0,0,0,0.000,0,0,0.151,0.015,0.040,-0.140,0.040,0.014,0.993,0.010,-0.004,0.014,0.000,0.000,0.000,0.000,0.000,0,2,0,1,7,255,1200,250,394,1450,-89.483,0.873,-31.368
EX0521-092111,20,C20,rest,67199,67199,0,1032449.091,0.685,-0.676,0.195,0.187,0,0,0,0,0,0,0,0,0,0.000,0,0,0.190,0.021,-0.140,-0.080,0.100,0.014,0.992,0.009,0.006,0.020,-0.014,0.000,0.000,0.000,0.000,0,2,0,1,7,255,1200,250,399,1450,-89.483,0.873,-31.368
EX0521-092111,20,C20,rest,67199,67199,0,1032454.092,0.685,-0.676,0.195,0.187,0,0,0,0,0,0,0,0,0,0.000,0,0,0.166,0.021,-0.140,-0.080,0.040,0.015,0.993,0.011,0.006,0.020,-0.014,0.000,0.000,0.000,0.000,0,2,0,1,7,255,1200,250,404,1450,-89.483,0.873,-31.368
EX0521-092111,20,C20,rest,67199,67199,0,1032459.091,0.685,-0.676,0.195,0.187,0,0,0,0,0,0,0,0,0,0.000,0,0,0.085,0.006,-0.020,-0.080,0.020,0.012,0.993,0.013,0.006,0.002,-0.012,0.000,0.000,0.000,0.000,0,2,0,1,7,255,1200,250,409,1450,-89.483,0.873,-31.368
EX0521-092111,20,C20,rest,67199,67199,0,1032464.092,0.685,-0.676,0.195,0.187,0,0,0,0,0,0,0,0,0,0.000,0,0,0.098,0.006,0.040,-0.080,-0.040,0.014,0.996,0.013,-0.006,0.002,-0.008,0.000,0.000,0.000,0.000,0,2,0,1,7,255,1200,250,414,1450,-89.483,0.873,-31.368
EX0521-092111,20,C20,rest,67231,67231,0,1032469.091,0.685,-0.676,0.195,0.187,0,0,0,0,0,0,0,0,0,0.000,0,0,0.060,0.007,0.040,-0.020,-0.040,0.014,0.996,0.012,-0.006,-0.004,0.016,0.000,0.000,0.000,0.000,0,2,0,1,7,255,1200,250,419,1450,-89.483,0.873,-31.368
EX0521-092111,20,C20,rest,67231,67231,0,1032474.092,0.685,-0.676,0.195,0.187,0,0,0,0,0,0,0,0,0,0.000,0,0,0.098,0.006,0.040,-0.080,-0.040,0.014,0.995,0.011,-0.004,-0.004,0.016,0.000,0.000,0.000,0.000,0,2,0,1,7,255,1200,250,424,1450,-89.483,0.873,-31.368
EX0521-092111,20,C20,rest,67231,67231,0,1032479.092,0.685,-0.676,0.195,0.187,0,0,0,0,0,0,0,0,0,0.000,0,0,0.092,0.006,0.040,-0.080,0.020,0.014,0.994,0.012,-0.004,-0.004,0.010,0.000,0.000,0.000,0.000,0,2,0,1,7,255,1200,250,429,1450,-89.483,0.873,-31.368
EX0521-092111,20,C20,rest,67231,67231,0,1032484.093,0.685,-0.676,0.195,0.187,0,0,0,0,0,0,0,0,0,0.000,0,0,0.060,0.000,0.040,-0.020,-0.040,0.014,0.994,0.012,0.000,0.000,-0.004,0.000,0.000,0.000,0.000,0,2,0,1,7,255,1200,250,434,1450,-89.483,0.873,-31.368
EX0521-092111,20,C20,rest,67231,67231,0,1032489.092,0.685,-0.676,0.195,0.187,0,0,0,0,0,0,0,0,0,0.000,0,0,0.098,0.000,0.040,-0.080,-0.040,0.015,0.992,0.011,0.000,0.000,-0.004,0.000,0.000,0.000,0.000,0,2,0,1,7,255,1200,250,439,1450,-89.483,0.873,-31.368
EX0521-092111,20,C20,rest,67231,67231,0,1032494.092,0.685,-0.676,0.195,0.187,0,0,0,0,0,0,0,0,0,0.000,0,0,0.098,0.010,0.040,-0.080,-0.040,0.015,0.993,0.010,0.008,0.006,-0.008,0.000,0.000,0.000,0.000,0,2,0,1,7,255,1200,250,444,1450,-89.483,0.873,-31.368
EX0521-092111,20,C20,rest,67263,67263,0,1032499.092,0.685,-0.676,0.195,0.187,0,0,0,0,0,0,0,0,0,0.000,0,0,0.060,0.014,0.040,-0.020,-0.040,0.015,0.993,0.010,0.010,0.010,-0.008,0.000,0.000,0.000,0.000,0,2,0,1,7,255,1200,250,449,1450,-89.483,0.873,-31.368
EX0521-092111,20,C20,rest,67263,67263,0,1032504.091,0.685,-0.676,0.195,0.187,0,0,0,0,0,0,0,0,0,0.000,0,0,0.110,0.016,0.040,-0.020,-0.100,0.014,0.995,0.010,0.010,0.012,-0.008,0.000,0.000,0.000,0.000,0,2,0,1,7,255,1200,250,454,1450,-89.483,0.873,-31.368
EX0521-092111,20,C20,rest,67263,67263,0,1032509.092,0.685,-0.676,0.195,0.187,0,0,0,0,0,0,0,0,0,0.000,0,0,0.110,0.012,-0.020,0.100,-0.040,0.015,0.995,0.012,0.006,0.010,0.006,0.000,0.000,0.000,0.000,0,2,0,1,7,255,1200,250,459,1450,-89.483,0.873,-31.368
EX0521-092111,20,C20,rest,67263,67263,0,1032514.091,0.685,-0.676,0.195,0.187,0,0,0,0,0,0,0,0,0,0.000,0,0,0.115,0.006,0.040,0.100,-0.040,0.014,0.995,0.014,0.000,-0.006,0.010,0.000,0.000,0.000,0.000,0,2,0,1,7,255,1200,250,464,1450,-89.483,0.873,-31.368
EX0521-092111,20,C20,rest,67263,67263,0,1032519.092,0.685,-0.676,0.195,0.187,0,0,0,0,0,0,0,0,0,0.000,0,0,0.060,0.018,0.040,-0.020,-0.040,0.013,0.996,0.014,-0.016,-0.008,0.010,0.000,0.000,0.000,0.000,0,2,0,1,7,255,1200,250,469,1450,-89.483,0.873,-31.368
EX0521-092111,20,C20,rest,67263,67263,0,1032524.091,0.685,-0.676,0.195,0.187,0,0,0,0,0,0,0,0,0,0.000,0,0,0.134,0.018,0.100,-0.080,-0.040,0.015,0.995,0.012,-0.016,-0.008,0.010,0.000,0.000,0.000,0.000,0,2,0,1,7,255,1200,250,474,1450,-89.483,0.873,-31.368
EX0521-092111,20,C20,rest,67280,67280,0,1032529.092,0.685,-0.676,0.195,0.187,0,0,0,0,0,0,0,0,0,0.000,0,0,0.208,0.003,0.040,-0.200,0.040,0.014,0.994,0.010,0.002,-0.002,0.010,0.000,0.000,0.000,0.000,0,2,0,1,7,255,1200,250,479,1450,-89.483,0.873,-31.368
EX0521-092111,20,C20,rest,67280,67280,0,1032534.091,0.685,-0.676,0.195,0.187,0,0,0,0,0,0,0,0,0,0.000,0,0,0.147,0.013,-0.020,-0.140,0.040,0.015,0.995,0.010,0.004,0.012,0.006,0.000,0.000,0.000,0.000,0,2,0,1,7,255,1200,250,484,1450,-89.483,0.873,-31.368
EX0521-092111,20,C20,rest,67280,67280,0,1032539.092,0.685,-0.676,0.195,0.187,0,0,0,0,0,0,0,0,0,0.000,0,0,0.092,0.016,-0.020,-0.080,-0.040,0.015,0.993,0.011,0.010,0.012,0.000,0.000,0.000,0.000,0.000,0,2,0,1,7,255,1200,250,489,1450,-89.484,0.873,-31.368
EX0521-092111,20,C20,rest,67280,67280,0,1032544.091,0.685,-0.676,0.195,0.187,0,0,0,0,0,0,0,0,0,0.000,0,0,0.092,0.010,-0.020,-0.080,0.040,0.014,0.993,0.012,0.010,0.000,-0.014,0.000,0.000,0.000,0.000,0,2,0,1,7,255,1200,250,494,1450,-89.484,0.873,-31.368
EX0521-092111,20,C20,rest,67295,67295,0,1032549.092,0.685,-0.676,0.195,0.187,0,0,0,0,0,0,0,0,0,0.000,0,0,0.092,0.006,-0.020,-0.080,-0.040,0.015,0.994,0.011,0.006,0.000,-0.014,0.000,0.000,0.000,0.000,0,2,0,1,7,255,1200,250,499,1450,-89.484,0.873,-31.368
EX0521-092111,20,C20,rest,67295,67295,0,1032554.091,0.685,-0.676,0.195,0.187,0,0,0,0,0,0,0,0,0,0.000,0,0,0.060,0.002,0.040,-0.020,-0.040,0.014,0.995,0.012,0.000,0.002,-0.004,0.000,0.000,0.000,0.000,0,2,0,1,7,255,1200,250,504,1450,-89.484,0.873,-31.368
EX0521-092111,20,C20,rest,67312,67312,0,1032559.092,0.685,-0.676,0.195,0.187,0,0,0,0,0,0,0,0,0,0.000,0,0,0.104,0.006,-0.020,-0.020,-0.100,0.015,0.995,0.011,0.006,0.002,0.006,0.000,0.000,0.000,0.000,0,2,0,1,7,255,1200,250,509,1450,-89.484,0.873,-31.368
EX0521-092111,20,C20,rest,67312,67312,0,1032564.093,0.685,-0.676,0.195,0.187,0,0,0,0,0,0,0,0,0,0.000,0,0,0.115,0.002,0.100,0.040,-0.040,0.015,0.996,0.012,0.000,0.002,0.006,0.000,0.000,0.000,0.000,0,2,0,1,7,255,1200,250,514,1450,-89.484,0.873,-31.368
EX0521-092111,20,C20,rest,67343,67343,0,1032569.092,0.685,-0.676,0.195,0.187,0,0,0,0,0,0,0,0,0,0.000,0,0,0.049,0.006,0.040,-0.020,0.020,0.014,0.996,0.013,0.000,-0.006,0.016,0.000,0.000,0.000,0.000,0,2,0,1,7,255,1200,250,519,1450,-89.484,0.873,-31.368
EX0521-092111,20,C20,rest,67343,67343,0,1032574.092,0.685,-0.676,0.195,0.187,0,0,0,0,0,0,0,0,0,0.000,0,0,0.060,0.006,0.040,-0.020,-0.040,0.014,0.996,0.011,-0.002,-0.006,0.016,0.000,0.000,0.000,0.000,0,2,0,1,7,255,1200,250,524,1450,-89.484,0.873,-31.368
EX0521-092111,20,C20,rest,67343,67343,0,1032579.093,0.685,-0.676,0.195,0.187,0,0,0,0,0,0,0,0,0,0.000,0,0,0.104,0.006,0.100,-0.020,0.020,0.015,0.994,0.011,-0.002,0.006,0.014,0.000,0.000,0.000,0.000,0,2,0,1,7,255,1200,250,529,1450,-89.484,0.873,-31.368
EX0521-092111,20,C20,rest,67343,67343,0,1032584.093,0.685,-0.676,0.195,0.187,0,0,0,0,0,0,0,0,0,0.000,0,0,0.098,0.007,0.040,-0.080,-0.040,0.014,0.993,0.010,0.004,0.006,-0.004,0.000,0.000,0.000,0.000,0,2,0,1,7,255,1200,250,534,1450,-89.484,0.873,-31.368
EX0521-092111,20,C20,rest,67343,67343,0,1032589.091,0.685,-0.676,0.195,0.187,0,0,0,0,0,0,0,0,0,0.000,0,0,0.092,0.020,0.040,-0.080,0.020,0.014,0.992,0.009,0.008,0.018,-0.014,0.000,0.000,0.000,0.000,0,2,0,1,7,255,1200,250,539,1450,-89.484,0.873,-31.368
EX0521-092111,20,C20,rest,67343,67343,0,1032594.092,0.685,-0.676,0.195,0.187,0,0,0,0,0,0,0,0,0,0.000,0,0,0.049,0.018,-0.020,-0.020,-0.040,0.014,0.994,0.011,0.004,0.018,-0.014,0.000,0.000,0.000,0.000,0,2,0,1,7,255,1200,250,544,1450,-89.484,0.873,-31.368
EX0521-092111,20,C20,rest,67361,67361,0,1032599.091,0.685,-0.676,0.195,0.187,0,0,0,0,0,0,0,0,0,0.000,0,0,0.060,0.011,0.040,-0.020,-0.040,0.014,0.994,0.011,0.004,0.010,0.000,0.000,0.000,0.000,0.000,0,2,0,1,7,255,1200,250,549,1450,-89.484,0.873,-31.368
EX0521-092111,20,C20,rest,67361,67361,0,1032604.092,0.685,-0.676,0.195,0.187,0,0,0,0,0,0,0,0,0,0.000,0,0,0.035,0.008,-0.020,-0.020,0.020,0.014,0.994,0.012,0.000,0.008,0.000,0.000,0.000,0.000,0.000,0,2,0,1,7,255,1200,250,554,1450,-89.484,0.873,-31.368
EX0521-092111,20,C20,rest,67362,67362,0,1032609.091,0.685,-0.676,0.195,0.187,0,0,0,0,0,0,0,0,0,0.000,0,0,0.049,0.008,-0.020,-0.020,-0.040,0.013,0.994,0.013,-0.008,-0.002,0.000,0.000,0.000,0.000,0.000,0,2,0,1,7,255,1200,250,559,1450,-89.484,0.873,-31.368
EX0521-092111,20,C20,rest,67362,67362,0,1032614.092,0.685,-0.676,0.195,0.187,0,0,0,0,0,0,0,0,0,0.000,0,0,0.110,0.010,0.100,-0.020,0.040,0.015,0.995,0.013,-0.008,-0.006,0.000,0.000,0.000,0.000,0.000,0,2,0,1,7,255,1200,250,564,1450,-89.484,0.873,-31.368
EX0521-092111,20,C20,rest,67362,67362,0,1032619.092,0.685,-0.676,0.195,0.187,0,0,0,0,0,0,0,0,0,0.000,0,0,0.098,0.008,0.040,-0.080,0.040,0.013,0.994,0.011,-0.006,-0.006,0.000,0.000,0.000,0.000,0.000,0,2,0,1,7,255,1200,250,0,0,-89.484,0.873,-31.368
EX0521-092111,20,C20,rest,67362,67362,0,1032624.092,0.685,-0.676,0.195,0.187,0,0,0,0,0,0,0,0,0,0.000,0,0,0.134,0.006,0.100,-0.080,0.040,0.014,0.995,0.011,-0.002,0.006,0.006,0.000,0.000,0.000,0.000,0,2,0,1,7,255,1200,250,0,0,-89.484,0.873,-31.368
EX0521-092111,20,C20,rest,67362,67362,0,1032629.093,0.685,-0.676,0.195,0.187,0,0,0,0,0,0,0,0,0,0.000,0,0,0.098,0.008,0.040,-0.080,0.040,0.015,0.994,0.010,-0.002,0.008,0.000,0.000,0.000,0.000,0.000,0,2,0,1,7,255,1200,250,0,0,-89.484,0.873,-31.368
EX0521-092111,20,C20,rest,67375,67375,0,1032634.092,0.685,-0.676,0.195,0.187,0,0,0,0,0,0,0,0,0,0.000,0,0,0.147,0.009,-0.020,-0.140,0.040,0.014,0.994,0.011,0.004,0.008,-0.004,0.000,0.000,0.000,0.000,0,2,0,1,7,255,1200,250,0,0,-89.484,0.873,-31.368
EX0521-092111,20,C20,rest,67375,67375,0,1032639.092,0.685,-0.676,0.195,0.187,0,0,0,0,0,0,0,0,0,0.000,0,0,0.098,0.013,0.040,-0.080,-0.040,0.015,0.993,0.010,0.010,0.008,-0.004,0.000,0.000,0.000,0.000,0,2,0,1,7,255,1200,250,0,0,-89.484,0.873,-31.368
EX0521-092111,20,C20,rest,67375,67375,0,1032644.092,0.685,-0.676,0.195,0.187,0,0,0,0,0,0,0,0,0,0.000,0,0,0.092,0.015,-0.020,-0.080,-0.040,0.016,0.994,0.011,0.014,0.006,-0.004,0.000,0.000,0.000,0.000,0,2,0,1,7,255,1200,250,0,0,-89.484,0.873,-31.368
EX0521-092111,20,C20,rest,67392,67392,0,1032649.092,0.685,-0.676,0.195,0.187,0,0,0,0,0,0,0,0,0,0.000,0,0,0.130,0.014,-0.020,-0.080,-0.100,0.013,0.994,0.012,0.014,0.000,0.000,0.000,0.000,0.000,0.000,0,2,0,1,7,255,1200,250,0,0,-89.484,0.873,-31.368
EX0521-092111,20,C20,rest,67392,67392,0,1032654.093,0.685,-0.676,0.195,0.187,0,0,0,0,0,0,0,0,0,0.000,0,0,0.134,0.012,0.040,-0.080,-0.100,0.013,0.994,0.012,-0.012,0.000,0.000,0.000,0.000,0.000,0.000,0,2,0,1,7,255,1200,250,0,0,-89.484,0.873,-31.368
EX0521-092111,20,C20,rest,67407,67407,0,1032659.092,0.685,-0.676,0.195,0.187,0,0,0,0,0,0,0,0,0,0.000,0,0,0.134,0.012,0.100,-0.080,0.040,0.014,0.994,0.012,-0.012,0.000,0.000,0.000,0.000,0.000,0.000,0,2,0,1,7,255,1200,250,0,0,-89.484,0.873,-31.368
EX0521-092111,20,C20,rest,67407,67407,0,1032664.091,0.685,-0.676,0.195,0.187,0,0,0,0,0,0,0,0,0,0.000,0,0,0.085,0.002,-0.020,-0.080,-0.020,0.015,0.994,0.012,-0.002,0.000,0.000,0.000,0.000,0.000,0.000,0,2,0,1,7,255,1200,250,0,0,-89.484,0.873,-31.368
EX0521-092111,20,C20,prep,30,30,0,1032669.092,0.685,-0.676,0.195,0.187,0,0,0,0,0,0,0,0,0,0.000,0,0,0.104,0.008,-0.020,0.100,-0.020,0.014,0.995,0.013,-0.002,-0.008,0.000,0.000,0.000,0.000,0.000,0,2,0,1,7,255,1200,250,0,0,-89.484,0.873,-31.368
EX0521-092111,20,C20,prep,30,30,0,1032674.093,0.685,-0.676,0.195,0.187,0,0,0,0,0,0,0,0,0,0.000,0,0,0.581,0.010,-0.020,0.580,-0.020,0.012,0.997,0.012,-0.006,-0.008,0.010,0.000,0.000,0.000,0.000,0,2,0,1,7,255,1200,250,0,0,-89.484,0.873,-31.365
EX0521-092111,20,C20,prep,31,31,0,1032679.092,0.685,-0.676,0.195,0.187,0,0,0,0,0,0,0,0,0,0.000,0,0,0.530,0.013,0.100,0.520,-0.020,0.014,0.996,0.008,-0.006,0.012,0.020,0.000,0.000,0.000,0.000,0,2,0,1,7,255,1200,250,0,0,-89.484,0.873,-31.365
EX0521-092111,20,C20,prep,31,31,0,1032684.093,0.685,-0.676,0.195,0.187,0,0,0,0,0,0,0,0,0,0.000,0,0,0.245,0.032,0.220,0.040,-0.100,0.015,0.996,0.005,0.012,0.030,0.020,0.000,0.000,0.000,0.000,0,2,0,1,7,255,1200,250,0,0,-89.484,0.873,-31.365
EX0521-092111,20,C20,prep,31,31,0,1032689.092,0.685,-0.676,0.195,0.187,0,0,0,0,0,0,0,0,0,0.000,0,0,0.242,0.032,0.220,-0.020,-0.100,0.014,0.993,0.011,0.012,0.030,0.014,0.000,0.000,0.000,0.000,0,2,0,1,7,255,1200,250,0,0,-89.484,0.873,-31.365
EX0521-092111,20,C20,prep,31,31,0,1032694.091,0.685,-0.676,0.195,0.187,0,0,0,0,0,0,0,0,0,0.000,0,0,0.401,0.004,-0.260,-0.260,0.160,0.013,0.990,0.014,-0.002,0.004,-0.010,0.000,0.000,0.000,0.000,0,2,0,1,7,255,1200,250,0,0,-89.484,0.873,-31.365
EX0521-092111,20,C20,prep,49,49,0,1032699.092,0.685,-0.676,0.195,0.187,0,0,0,0,0,0,0,0,0,0.000,0,0,0.550,0.024,-0.520,-0.080,0.160,0.014,0.994,0.016,-0.020,-0.014,-0.010,0.000,0.000,0.000,0.000,0,2,0,1,7,255,1200,250,0,0,-89.478,0.873,-31.365
EX0521-092111,20,C20,prep,49,49,0,1032704.091,0.685,-0.676,0.195,0.187,0,0,0,0,0,0,0,0,0,0.000,0,0,0.177,0.024,-0.140,0.100,0.040,0.015,0.996,0.011,-0.020,-0.014,-0.004,0.000,0.000,0.000,0.000,0,2,0,1,7,255,1200,250,0,0,-89.478,0.873,-31.365
EX0521-092111,20,C20,prep,49,49,0,1032709.092,0.685,-0.676,0.195,0.187,0,0,0,0,0,0,0,0,0,0.000,0,0,0.341,0.013,0.340,-0.020,-0.020,0.015,0.992,0.010,0.012,0.004,-0.004,0.000,0.000,0.000,0.000,0,2,0,1,7,255,1200,250,0,0,-89.478,0.873,-31.365
EX0521-092111,20,C20,prep,49,49,0,1032714.091,0.685,-0.676,0.195,0.187,0,0,0,0,0,0,0,0,0,0.000,0,0,0.151,0.013,-0.080,-0.080,0.100,0.015,0.993,0.015,0.012,0.004,-0.008,0.000,0.000,0.000,0.000,0,2,0,1,7,255,1200,250,0,0,-89.472,0.873,-31.365
EX0521-092111,20,C20,prep,64,64,0,1032719.092,0.685,-0.676,0.195,0.187,0,0,0,0,0,0,0,0,0,0.000,0,0,0.208,0.016,-0.200,0.040,0.040,0.016,0.996,0.010,0.012,0.010,-0.008,0.000,0.000,0.000,0.000,0,2,0,1,7,255,1200,250,0,0,-89.472,0.873,-31.365
EX0521-092111,20,C20,prep,64,64,0,1032724.091,0.685,-0.676,0.195,0.187,0,0,0,0,0,0,0,0,0,0.000,0,0,0.162,0.012,0.160,-0.020,-0.020,0.014,0.993,0.010,0.006,0.010,-0.008,0.000,0.000,0.000,0.000,0,2,0,1,7,255,1200,250,0,0,-89.472,0.873,-31.365
EX0521-092111,20,C20,prep,64,64,0,1032729.092,0.685,-0.676,0.195,0.187,0,0,0,0,0,0,0,0,0,0.000,0,0,0.092,0.012,-0.020,-0.080,0.040,0.014,0.995,0.014,0.006,0.010,0.006,0.000,0.000,0.000,0.000,0,2,0,1,7,255,1200,250,0,0,-89.472,0.873,-31.365
EX0521-092111,20,C20,prep,64,64,0,1032734.091,0.685,-0.676,0.195,0.187,0,0,0,0,0,0,0,0,0,0.000,0,0,0.049,0.017,-0.020,-0.020,0.040,0.014,0.994,0.010,0.006,0.016,0.000,0.000,0.000,0.000,0.000,0,2,0,1,7,255,1200,250,0,0,-89.472,0.873,-31.365
EX0521-092111,20,C20,prep,80,80,0,1032739.092,0.685,-0.676,0.195,0.187,0,0,0,0,0,0,0,0,0,0.000,0,0,0.104,0.006,0.100,-0.020,-0.020,0.015,0.995,0.011,0.006,0.002,0.006,0.000,0.000,0.000,0.000,0,2,0,1,7,255,1200,250,0,0,-89.472,0.873,-31.365
EX0521-092111,20,C20,prep,80,80,0,1032744.092,0.685,-0.676,0.195,0.187,0,0,0,0,0,0,0,0,0,0.000,0,0,0.098,0.006,-0.080,0.040,0.040,0.013,0.993,0.012,0.006,0.002,0.000,0.000,0.000,0.000,0.000,0,2,0,1,7,255,1200,250,0,0,-89.472,0.873,-31.365
EX0521-092111,20,C20,prep,100,100,0,1032749.091,0.685,-0.676,0.195,0.187,0,0,0,0,0,0,0,0,0,0.000,0,0,0.060,0.003,0.040,-0.020,0.040,0.014,0.995,0.011,-0.002,0.002,0.006,0.000,0.000,0.000,0.000,0,2,0,1,7,255,1200,250,0,0,-89.472,0.873,-31.365
EX0521-092111,20,C20,prep,100,100,0,1032754.092,0.685,-0.676,0.195,0.187,0,0,0,0,0,0,0,0,0,0.000,0,0,0.110,0.004,0.040,-0.020,-0.100,0.014,0.995,0.011,-0.002,0.004,0.006,0.000,0.000,0.000,0.000,0,2,0,1,7,255,1200,250,0,0,-89.472,0.873,-31.365
EX0521-092111,20,C20,prep,100,100,0,1032759.092,0.685,-0.676,0.195,0.187,0,0,0,0,0,0,0,0,0,0.000,0,0,0.190,0.004,-0.080,-0.140,0.100,0.016,0.993,0.011,0.002,0.004,0.006,0.000,0.000,0.000,0.000,0,2,0,1,7,255,1200,250,0,0,-89.472,0.873,-31.365
EX0521-092111,20,C20,prep,100,100,0,1032764.093,0.685,-0.676,0.195,0.187,0,0,0,0,0,0,0,0,0,0.000,0,0,0.115,0.006,0.040,0.040,-0.100,0.014,0.995,0.011,0.004,0.004,0.010,0.000,0.000,0.000,0.000,0,2,0,1,7,255,1200,250,0,0,-89.472,0.873,-31.365
EX0521-092111,20,C20,prep,128,128,0,1032769.091,0.685,-0.676,0.195,0.187,0,0,0,0,0,0,0,0,0,0.000,0,0,0.162,0.009,-0.080,-0.140,0.020,0.015,0.994,0.012,0.008,-0.004,0.000,0.000,0.000,0.000,0.000,0,2,0,1,7,255,1200,250,0,0,-89.473,0.873,-31.365
EX0521-092111,20,C20,prep,128,128,0,1032774.092,0.685,-0.676,0.195,0.187,0,0,0,0,0,0,0,0,0,0.000,0,0,0.069,0.009,0.040,0.040,-0.040,0.014,0.993,0.011,0.004,0.008,0.000,0.000,0.000,0.000,0.000,0,2,0,1,7,255,1200,250,0,0,-89.473,0.873,-31.365
EX0521-092111,20,C20,prep,128,128,0,1032779.092,0.685,-0.676,0.195,0.187,0,0,0,0,0,0,0,0,0,0.000,0,0,0.115,0.010,-0.080,-0.080,0.020,0.013,0.996,0.011,0.000,0.010,0.000,0.000,0.000,0.000,0.000,0,2,0,1,7,255,1200,250,0,0,-89.473,0.873,-31.365
EX0521-092111,20,C20,prep,128,128,0,1032784.093,0.685,-0.676,0.195,0.187,0,0,0,0,0,0,0,0,0,0.000,0,0,0.115,0.012,0.100,0.040,-0.040,0.015,0.991,0.010,0.000,0.012,-0.008,0.000,0.000,0.000,0.000,0,2,0,1,7,255,1200,250,0,0,-89.473,0.873,-31.365
EX0521-092111,20,C20,prep,128,128,0,1032789.091,0.685,-0.676,0.195,0.187,0,0,0,0,0,0,0,0,0,0.000,0,0,0.110,0.016,-0.020,0.040,-0.100,0.015,0.997,0.010,0.010,0.012,0.014,0.000,0.000,0.000,0.000,0,2,0,1,7,255,1200,250,0,0,-89.473,0.873,-31.365
EX0521-092111,20,C20,prep,128,128,0,1032794.092,0.685,-0.676,0.195,0.187,0,0,0,0,0,0,0,0,0,0.000,0,0,0.190,0.014,-0.080,-0.140,0.100,0.015,0.995,0.011,0.010,0.010,0.010,0.000,0.000,0.000,0.000,0,2,0,1,7,255,1200,250,0,0,-89.473,0.873,-31.365
EX0521-092111,20,C20,prep,143,143,0,1032799.091,0.685,-0.676,0.195,0.187,0,0,0,0,0,0,0,0,0,0.000,0,0,0.389,0.014,0.340,0.100,-0.160,0.014,0.992,0.010,0.010,0.010,0.010,0.000,0.000,0.000,0.000,0,2,0,1,7,255,1200,250,0,0,-89.473,0.873,-31.365
EX0521-092111,20,C20,prep,143,143,0,1032804.092,0.685,-0.676,0.195,0.187,0,0,0,0,0,0,0,0,0,0.000,0,0,0.336,0.018,-0.320,-0.020,0.100,0.014,0.999,0.010,0.008,0.016,0.010,0.000,0.000,0.000,0.000,0,2,0,1,7,255,1200,250,0,0,-89.473,0.873,-31.365
EX0521-092111,20,C20,prep,143,143,0,1032809.092,0.685,-0.676,0.195,0.187,0,0,0,0,0,0,0,0,0,0.000,0,0,0.147,0.018,0.040,-0.140,0.020,0.014,0.989,0.012,0.008,0.016,-0.018,0.000,0.000,0.000,0.000,0,2,0,1,7,255,1200,250,0,0,-89.473,0.873,-31.365
EX0521-092111,20,C20,prep,143,143,0,1032814.092,0.685,-0.676,0.195,0.187,0,0,0,0,0,0,0,0,0,0.000,0,0,0.573,0.014,0.520,0.100,-0.220,0.014,0.994,0.010,0.002,0.014,0.000,0.000,0.000,0.000,0.000,0,2,0,1,7,255,1200,250,0,0,-89.473,0.873,-31.365
EX0521-092111,20,C20,prep,159,159,0,1032819.092,0.685,-0.676,0.195,0.187,0,0,0,0,0,0,0,0,0,0.000,0,0,0.791,0.012,-0.760,-0.020,0.220,0.014,0.994,0.010,0.002,0.012,0.000,0.000,0.000,0.000,0.000,0,2,0,1,7,255,1200,250,0,0,-89.469,0.873,-31.365
EX0521-092111,20,C20,prep,159,159,0,1032824.092,0.685,-0.676,0.195,0.187,0,0,0,0,0,0,0,0,0,0.000,0,0,0.151,0.012,0.040,-0.140,-0.040,0.014,0.993,0.014,0.002,0.012,0.000,0.000,0.000,0.000,0.000,0,2,0,1,7,255,1200,250,0,0,-89.469,0.873,-31.365
EX0521-092111,20,C20,prep,179,179,0,1032829.092,0.685,-0.676,0.195,0.187,0,0,0,0,0,0,0,0,0,0.000,0,0,0.856,0.007,0.840,0.040,-0.160,0.015,0.994,0.011,0.006,0.004,-0.004,0.000,0.000,0.000,0.000,0,2,0,1,7,255,1200,250,0,0,-89.473,0.873,-31.365
EX0521-092111,20,C20,prep,179,179,0,1032834.091,0.685,-0.676,0.195,0.187,0,0,0,0,0,0,0,0,0,0.000,0,0,0.661,0.009,-0.640,0.040,0.160,0.014,0.997,0.009,0.008,0.004,-0.004,0.000,0.000,0.000,0.000,0,2,0,1,7,255,1200,250,0,0,-89.470,0.873,-31.365
EX0521-092111,20,C20,prep,179,179,0,1032839.092,0.685,-0.676,0.195,0.187,0,0,0,0,0,0,0,0,0,0.000,0,0,0.408,0.009,-0.400,-0.080,0.020,0.014,0.994,0.015,0.008,0.004,-0.004,0.000,0.000,0.000,0.000,0,2,0,1,7,255,1200,250,0,0,-89.465,0.873,-31.365
EX0521-092111,20,C20,prep,179,179,0,1032844.091,0.685,-0.676,0.195,0.187,0,0,0,0,0,0,0,0,0,0.000,0,0,0.771,0.008,0.760,-0.080,-0.100,0.015,0.990,0.012,0.002,-0.008,-0.004,0.000,0.000,0.000,0.000,0,2,0,1,7,255,1200,250,0,0,-89.469,0.873,-31.365
EX0521-092111,20,C20,prep,192,192,0,1032849.092,0.685,-0.676,0.195,0.187,0,0,0,0,0,0,0,0,0,0.000,0,0,0.323,0.008,0.280,-0.020,-0.160,0.013,1.000,0.007,0.002,-0.008,-0.004,0.000,0.000,0.000,0.000,0,2,0,1,7,255,1200,250,0,0,-89.469,0.873,-31.365
EX0521-092111,20,C20,prep,192,192,0,1032854.091,0.685,-0.676,0.195,0.187,0,0,0,0,0,0,0,0,0,0.000,0,0,1.171,0.008,-1.120,0.040,0.340,0.015,0.991,0.013,0.002,-0.008,-0.032,0.000,0.000,0.000,0.000,0,2,0,1,7,255,1200,250,0,0,-89.463,0.873,-31.365
EX0521-092111,20,C20,prep,214,214,0,1032859.092,0.685,-0.676,0.195,0.187,0,0,0,0,0,0,0,0,0,0.000,0,0,0.431,0.010,0.400,-0.020,-0.160,0.014,0.995,0.013,0.000,-0.010,0.010,0.000,0.000,0.000,0.000,0,2,0,1,7,255,1200,250,0,0,-89.463,0.873,-31.365
EX0521-092111,20,C20,prep,214,214,0,1032864.091,0.685,-0.676,0.195,0.187,0,0,0,0,0,0,0,0,0,0.000,0,0,0.722,0.010,0.700,-0.080,-0.160,0.015,0.996,0.008,0.000,-0.010,0.010,0.000,0.000,0.000,0.000,0,2,0,1,7,255,1200,250,0,0,-89.467,0.873,-31.365
EX0521-092111,20,C20,prep,226,226,0,1032869.092,0.685,-0.676,0.195,0.187,0,0,0,0,0,0,0,0,0,0.000,0,0,0.803,0.021,-0.760,-0.140,0.220,0.016,0.995,0.010,0.020,0.006,0.010,0.000,0.000,0.000,0.000,0,2,0,1,7,255,1200,250,0,0,-89.463,0.873,-31.365
EX0521-092111,20,C20,prep,226,226,0,1032874.091,0.685,-0.676,0.195,0.187,0,0,0,0,0,0,0,0,0,0.000,0,0,0.190,0.021,0.160,-0.020,-0.100,0.015,0.993,0.014,0.020,0.006,0.006,0.000,0.000,0.000,0.000,0,2,0,1,7,255,1200,250,0,0,-89.463,0.873,-31.365
EX0521-092111,20,C20,prep,227,227,0,1032879.093,0.685,-0.676,0.195,0.187,0,0,0,0,0,0,0,0,0,0.000,0,0,0.368,0.006,0.340,0.100,-0.100,0.014,0.994,0.011,0.000,0.006,-0.004,0.000,0.000,0.000,0.000,0,2,0,1,7,255,1200,250,0,0,-89.463,0.873,-31.365
EX0521-092111,20,C20,prep,227,227,0,1032884.093,0.685,-0.676,0.195,0.187,0,0,0,0,0,0,0,0,0,0.000,0,0,0.262,0.010,-0.260,-0.020,0.020,0.014,0.995,0.010,0.000,0.010,-0.004,0.000,0.000,0.000,0.000,0,2,0,1,7,255,1200,250,0,0,-89.463,0.873,-31.365
EX0521-092111,20,C20,prep,227,227,0,1032889.092,0.685,-0.676,0.195,0.187,0,0,0,0,0,0,0,0,0,0.000,0,0,0.143,0.010,-0.140,-0.020,0.020,0.015,0.992,0.013,0.000,0.010,-0.004,0.000,0.000,0.000,0.000,0,2,0,1,7,255,1200,250,0,0,-89.463,0.873,-31.365
EX0521-092111,20,C20,prep,227,227,0,1032894.091,0.685,-0.676,0.195,0.187,0,0,0,0,0,0,0,0,0,0.000,0,0,0.420,0.012,0.400,-0.080,-0.100,0.014,0.996,0.011,0.000,0.012,0.006,0.000,0.000,0.000,0.000,0,2,0,1,7,255,1200,250,0,0,-89.463,0.873,-31.365
EX0521-092111,20,C20,prep,246,246,0,1032899.092,0.685,-0.676,0.195,0.187,0,0,0,0,0,0,0,0,0,0.000,0,0,0.190,0.012,0.160,-0.020,-0.100,0.014,0.996,0.011,0.000,0.012,0.014,0.000,0.000,0.000,0.000,0,2,0,1,7,255,1200,250,0,0,-89.463,0.873,-31.365
EX0521-092111,20,C20,prep,246,246,0,1032904.092,0.685,-0.676,0.195,0.187,0,0,0,0,0,0,0,0,0,0.000,0,0,0.607,0.012,-0.580,-0.080,0.160,0.013,0.993,0.012,0.000,0.012,0.014,0.000,0.000,0.000,0.000,0,2,0,1,7,255,1200,250,0,0,-89.460,0.873,-31.365
EX0521-092111,20,C20,prep,247,247,0,1032909.091,0.685,-0.676,0.195,0.187,0,0,0,0,0,0,0,0,0,0.000,0,0,0.298,0.010,0.280,-0.020,-0.100,0.014,0.994,0.013,-0.010,0.002,-0.004,0.000,0.000,0.000,0.000,0,2,0,1,7,255,1200,250,0,0,-89.460,0.873,-31.365
EX0521-092111,20,C20,prep,247,247,0,1032914.092,0.685,-0.676,0.195,0.187,0,0,0,0,0,0,0,0,0,0.000,0,0,0.115,0.010,0.100,0.040,-0.040,0.015,0.994,0.010,-0.010,0.002,-0.004,0.000,0.000,0.000,0.000,0,2,0,1,7,255,1200,250,0,0,-89.460,0.873,-31.365
EX0521-092111,20,C20,prep,258,258,0,1032919.092,0.685,-0.676,0.195,0.187,0,0,0,0,0,0,0,0,0,0.000,0,0,0.467,0.006,-0.460,-0.020,0.080,0.014,0.994,0.011,-0.002,0.006,-0.004,0.000,0.000,0.000,0.000,0,2,0,1,7,255,1200,250,0,0,-89.460,0.873,-31.365
EX0521-092111,20,C20,prep,258,258,0,1032924.092,0.685,-0.676,0.195,0.187,0,0,0,0,0,0,0,0,0,0.000,0,0,0.298,0.006,0.280,-0.020,-0.100,0.015,0.993,0.013,-0.002,0.006,-0.004,0.000,0.000,0.000,0.000,0,2,0,1,7,255,1200,250,0,0,-89.460,0.873,-31.365
EX0521-092111,20,C20,prep,275,275,0,1032929.091,0.685,-0.676,0.195,0.187,0,0,0,0,0,0,0,0,0,0.000,0,0,0.294,0.006,0.280,-0.080,-0.040,0.014,0.993,0.011,-0.002,0.006,-0.008,0.000,0.000,0.000,0.000,0,2,0,1,7,255,1200,250,0,0,-89.460,0.873,-31.365
EX0521-092111,20,C20,prep,275,275,0,1032934.092,0.685,-0.676,0.195,0.187,0,0,0,0,0,0,0,0,0,0.000,0,0,0.339,0.006,-0.320,-0.080,0.080,0.015,0.996,0.011,0.000,0.006,-0.008,0.000,0.000,0.000,0.000,0,2,0,1,7,255,1200,250,0,0,-89.460,0.873,-31.365
EX0521-092111,20,C20,prep,275,275,0,1032939.091,0.685,-0.676,0.195,0.187,0,0,0,0,0,0,0,0,0,0.000,0,0,0.060,0.006,-0.020,0.040,-0.040,0.015,0.992,0.012,0.002,0.006,-0.008,0.000,0.000,0.000,0.000,0,2,0,1,7,255,1200,250,0,0,-89.460,0.873,-31.365
EX0521-092111,20,C20,prep,275,275,0,1032944.092,0.685,-0.676,0.195,0.187,0,0,0,0,0,0,0,0,0,0.000,0,0,0.227,0.006,0.220,0.040,-0.040,0.013,0.994,0.011,0.002,0.006,0.000,0.000,0.000,0.000,0.000,0,2,0,1,7,255,1200,250,0,0,-89.460,0.873,-31.365
EX0521-092111,20,C20,prep,287,287,0,1032949.091,0.685,-0.676,0.195,0.187,0,0,0,0,0,0,0,0,0,0.000,0,0,0.143,0.002,-0.140,-0.020,0.020,0.015,0.995,0.011,0.002,0.000,0.000,0.000,0.000,0.000,0.000,0,2,0,1,7,255,1200,250,0,0,-89.460,0.873,-31.365
EX0521-092111,20,C20,prep,287,287,0,1032954.092,0.685,-0.676,0.195,0.187,0,0,0,0,0,0,0,0,0,0.000,0,0,0.143,0.002,-0.140,-0.020,0.020,0.014,0.992,0.012,-0.002,0.000,0.000,0.000,0.000,0.000,0.000,0,2,0,1,7,255,1200,250,0,0,-89.460,0.873,-31.365
EX0521-092111,20,C20,prep,314,314,0,1032959.092,0.685,-0.676,0.195,0.187,0,0,0,0,0,0,0,0,0,0.000,0,0,0.363,0.002,0.340,-0.080,-0.100,0.013,0.995,0.012,-0.002,0.000,0.006,0.000,0.000,0.000,0.000,0,2,0,1,7,255,1200,250,0,0,-89.460,0.873,-31.365
EX0521-092111,20,C20,prep,314,314,0,1032964.093,0.685,-0.676,0.195,0.187,0,0,0,0,0,0,0,0,0,0.000,0,0,0.104,0.003,-0.020,-0.020,-0.100,0.014,0.995,0.010,-0.002,0.002,0.006,0.000,0.000,0.000,0.000,0,2,0,1,7,255,1200,250,0,0,-89.460,0.873,-31.365
EX0521-092111,20,C20,prep,336,336,0,1032969.091,0.685,-0.676,0.195,0.187,0,0,0,0,0,0,0,0,0,0.000,0,0,0.345,0.002,-0.320,-0.080,0.100,0.014,0.994,0.012,0.000,0.002,0.006,0.000,0.000,0.000,0.000,0,2,0,1,7,255,1200,250,0,0,-89.460,0.873,-31.365
EX0521-092111,20,C20,prep,336,336,0,1032974.092,0.685,-0.676,0.195,0.187,0,0,0,0,0,0,0,0,0,0.000,0,0,0.245,0.004,0.220,0.040,-0.100,0.015,0.994,0.012,0.004,0.000,0.000,0.000,0.000,0.000,0.000,0,2,0,1,7,255,1200,250,0,0,-89.460,0.873,-31.365
EX0521-092111,20,C20,prep,336,336,0,1032979.092,0.685,-0.676,0.195,0.187,0,0,0,0,0,0,0,0,0,0.000,0,0,0.060,0.004,0.040,-0.020,0.040,0.014,0.995,0.009,0.004,0.000,0.000,0.000,0.000,0.000,0.000,0,2,0,1,7,255,1200,250,0,0,-89.460,0.873,-31.365
EX0521-092111,20,C20,prep,336,336,0,1032984.093,0.685,-0.676,0.195,0.187,0,0,0,0,0,0,0,0,0,0.000,0,0,0.205,0.006,-0.200,-0.020,0.040,0.015,0.995,0.011,0.006,0.002,0.006,0.000,0.000,0.000,0.000,0,2,0,1,7,255,1200,250,0,0,-89.460,0.873,-31.365
EX0521-092111,20,C20,prep,336,336,0,1032989.092,0.685,-0.676,0.195,0.187,0,0,0,0,0,0,0,0,0,0.000,0,0,0.104,0.006,0.100,-0.020,-0.020,0.014,0.993,0.012,0.006,0.002,0.006,0.000,0.000,0.000,0.000,0,2,0,1,7,255,1200,250,0,0,-89.460,0.873,-31.365
EX0521-092111,20,C20,prep,336,336,0,1032994.091,0.685,-0.676,0.195,0.187,0,0,0,0,0,0,0,0,0,0.000,0,0,0.222,0.004,0.220,-0.020,-0.020,0.013,0.994,0.011,-0.004,0.002,0.000,0.000,0.000,0.000,0.000,0,2,0,1,7,255,1200,250,0,0,-89.460,0.873,-31.365
EX0521-092111,20,C20,prep,336,336,0,1032999.092,0.685,-0.676,0.195,0.187,0,0,0,0,0,0,0,0,0,0.000,0,0,0.219,0.013,-0.200,-0.080,0.040,0.013,0.994,0.011,-0.004,0.012,0.000,0.000,0.000,0.000,0.000,0,2,0,1,7,255,1200,250,0,0,-89.460,0.873,-31.365
EX0521-092111,20,C20,prep,336,336,0,1033004.091,0.685,-0.676,0.195,0.187,0,0,0,0,0,0,0,0,0,0.000,0,0,0.049,0.013,-0.020,-0.020,0.040,0.014,0.994,0.012,-0.004,0.012,0.000,0.000,0.000,0.000,0.000,0,2,0,1,7,255,1200,250,0,0,-89.460,0.873,-31.365
EX0521-092111,20,C20,prep,352,352,0,1033009.092,0.685,-0.676,0.195,0.187,0,0,0,0,0,0,0,0,0,0.000,0,0,0.170,0.013,0.160,0.040,-0.040,0.013,0.995,0.010,-0.004,0.012,0.000,0.000,0.000,0.000,0.000,0,2,0,1,7,255,1200,250,0,0,-89.460,0.873,-31.365
EX0521-092111,20,C20,prep,352,352,0,1033014.091,0.685,-0.676,0.195,0.187,0,0,0,0,0,0,0,0,0,0.000,0,0,0.151,0.014,-0.140,0.040,-0.040,0.014,0.994,0.010,-0.002,0.014,0.000,0.000,0.000,0.000,0.000,0,2,0,1,7,255,1200,250,0,0,-89.460,0.873,-31.365
EX0521-092111,20,C20,prep,352,352,0,1033019.092,0.685,-0.676,0.195,0.187,0,0,0,0,0,0,0,0,0,0.000,0,0,0.115,0.014,-0.080,-0.080,0.020,0.015,0.994,0.012,0.002,0.014,0.000,0.000,0.000,0.000,0.000,0,2,0,1,7,255,1200,250,0,0,-89.461,0.873,-31.365
EX0521-092111,20,C20,prep,352,352,0,1033024.091,0.685,-0.676,0.195,0.187,0,0,0,0,0,0,0,0,0,0.000,0,0,0.224,0.008,0.220,-0.020,-0.040,0.015,0.995,0.012,0.002,-0.008,0.000,0.000,0.000,0.000,0.000,0,2,0,1,7,255,1200,250,0,0,-89.461,0.873,-31.365
EX0521-092111,20,C20,prep,367,367,0,1033029.092,0.685,-0.676,0.195,0.187,0,0,0,0,0,0,0,0,0,0.000,0,0,0.035,0.008,-0.020,-0.020,0.020,0.014,0.994,0.011,0.002,-0.008,-0.004,0.000,0.000,0.000,0.000,0,2,0,1,7,255,1200,250,0,0,-89.461,0.873,-31.365
EX0521-092111,20,C20,prep,367,367,0,1033034.091,0.685,-0.676,0.195,0.187,0,0,0,0,0,0,0,0,0,0.000,0,0,0.216,0.004,-0.200,-0.080,0.020,0.014,0.994,0.011,0.002,0.004,0.000,0.000,0.000,0.000,0.000,0,2,0,1,7,255,1200,250,0,0,-89.461,0.873,-31.365
EX0521-092111,20,C20,prep,383,383,0,1033039.092,0.685,-0.676,0.195,0.187,0,0,0,0,0,0,0,0,0,0.000,0,0,0.166,0.009,0.160,-0.020,-0.040,0.014,0.993,0.011,0.004,0.008,-0.004,0.000,0.000,0.000,0.000,0,2,0,1,7,255,1200,250,0,0,-89.461,0.873,-31.365
EX0521-092111,20,C20,prep,383,383,0,1033044.091,0.685,-0.676,0.195,0.187,0,0,0,0,0,0,0,0,0,0.000,0,0,0.115,0.009,0.100,0.040,-0.040,0.014,0.996,0.010,0.004,0.008,0.000,0.000,0.000,0.000,0.000,0,2,0,1,7,255,1200,250,0,0,-89.461,0.873,-31.365
EX0521-092111,20,C20,prep,383,383,0,1033049.092,0.685,-0.676,0.195,0.187,0,0,0,0,0,0,0,0,0,0.000,0,0,0.143,0.011,-0.140,-0.020,0.020,0.014,0.995,0.011,0.004,0.010,0.010,0.000,0.000,0.000,0.000,0,2,0,1,7,255,1200,250,0,0,-89.461,0.873,-31.365
EX0521-092111,20,C20,prep,383,383,0,1033054.091,0.685,-0.676,0.195,0.187,0,0,0,0,0,0,0,0,0,0.000,0,0,0.143,0.010,0.100,-0.020,-0.100,0.014,0.993,0.012,0.000,0.010,0.010,0.000,0.000,0.000,0.000,0,2,0,1,7,255,1200,250,0,0,-89.461,0.873,-31.365
EX0521-092111,20,C20,prep,436,436,0,1033059.092,0.685,-0.676,0.195,0.187,0,0,0,0,0,0,0,0,0,0.000,0,0,0.237,0.008,0.220,-0.080,-0.040,0.015,0.994,0.010,0.000,0.008,0.000,0.000,0.000,0.000,0.000,0,2,0,1,7,255,1200,250,0,0,-89.461,0.874,-31.365
EX0521-092111,20,C20,prep,436,436,0,1033064.092,0.685,-0.676,0.195,0.187,0,0,0,0,0,0,0,0,0,0.000,0,0,0.085,0.004,-0.020,-0.080,0.020,0.014,0.994,0.011,0.002,0.004,0.000,0.000,0.000,0.000,0.000,0,2,0,1,7,255,1200,250,0,0,-89.461,0.874,-31.365
EX0521-092111,20,C20,prep,436,436,0,1033069.092,0.685,-0.676,0.195,0.187,0,0,0,0,0,0,0,0,0,0.000,0,0,0.035,0.006,-0.020,-0.020,0.020,0.015,0.994,0.012,0.004,0.004,0.000,0.000,0.000,0.000,0.000,0,2,0,1,7,255,1200,250,0,0,-89.461,0.874,-31.365
EX0521-092111,20,C20,prep,436,436,0,1033074.093,0.685,-0.676,0.195,0.187,0,0,0,0,0,0,0,0,0,0.000,0,0,0.170,0.004,0.160,0.040,-0.040,0.014,0.994,0.011,0.002,0.004,0.000,0.000,0.000,0.000,0.000,0,2,0,1,7,255,1200,250,0,0,-89.461,0.874,-31.365
EX0521-092111,20,C20,prep,436,436,0,1033079.093,0.685,-0.676,0.195,0.187,0,0,0,0,0,0,0,0,0,0.000,0,0,0.092,0.004,-0.080,-0.020,-0.040,0.014,0.996,0.011,0.002,0.004,0.000,0.000,0.000,0.000,0.000,0,2,0,1,7,255,1200,250,0,0,-89.461,0.874,-31.365
EX0521-092111,20,C20,prep,436,436,0,1033084.093,0.685,-0.676,0.195,0.187,0,0,0,0,0,0,0,0,0,0.000,0,0,0.143,0.004,-0.140,-0.020,0.020,0.014,0.994,0.012,0.002,0.004,0.000,0.000,0.000,0.000,0.000,0,2,0,1,7,255,1200,250,0,0,-89.461,0.874,-31.365
EX0521-092111,20,C20,prep,453,453,0,1033089.091,0.685,-0.676,0.195,0.187,0,0,0,0,0,0,0,0,0,0.000,0,0,0.224,0.002,0.220,-0.020,-0.040,0.015,0.994,0.011,0.002,0.000,0.000,0.000,0.000,0.000,0.000,0,2,0,1,7,255,1200,250,0,0,-89.461,0.874,-31.365
EX0521-092111,20,C20,prep,453,453,0,1033094.092,0.685,-0.676,0.195,0.187,0,0,0,0,0,0,0,0,0,0.000,0,0,0.134,0.002,0.100,-0.080,-0.040,0.014,0.994,0.011,-0.002,0.000,0.000,0.000,0.000,0.000,0.000,0,2,0,1,7,255,1200,250,0,0,-89.461,0.874,-31.365
EX0521-092111,20,C20,prep,453,453,0,1033099.091,0.685,-0.676,0.195,0.187,0,0,0,0,0,0,0,0,0,0.000,0,0,0.166,0.006,-0.140,-0.080,-0.040,0.015,0.994,0.012,0.006,0.000,0.000,0.000,0.000,0.000,0.000,0,2,0,1,7,255,1200,250,0,0,-89.461,0.874,-31.365
EX0521-092111,20,C20,prep,453,453,0,1033104.092,0.685,-0.676,0.195,0.187,0,0,0,0,0,0,0,0,0,0.000,0,0,0.166,0.006,0.160,-0.020,-0.040,0.015,0.994,0.012,0.004,-0.004,0.000,0.000,0.000,0.000,0.000,0,2,0,1,7,255,1200,250,0,0,-89.461,0.874,-31.365
EX0521-092111,20,C20,prep,454,454,0,1033109.091,0.685,-0.676,0.195,0.187,0,0,0,0,0,0,0,0,0,0.000,0,0,0.069,0.006,0.040,0.040,-0.040,0.014,0.995,0.011,0.004,-0.004,0.000,0.000,0.000,0.000,0.000,0,2,0,1,7,255,1200,250,0,0,-89.461,0.874,-31.365
EX0521-092111,20,C20,prep,454,454,0,1033114.092,0.685,-0.676,0.195,0.187,0,0,0,0,0,0,0,0,0,0.000,0,0,0.143,0.007,-0.140,-0.020,0.020,0.014,0.993,0.011,0.004,0.006,-0.004,0.000,0.000,0.000,0.000,0,2,0,1,7,255,1200,250,0,0,-89.461,0.874,-31.365
EX0521-092111,20,C20,prep,454,454,0,1033119.092,0.685,-0.676,0.195,0.187,0,0,0,0,0,0,0,0,0,0.000,0,0,0.110,0.007,0.100,-0.020,-0.040,0.015,0.993,0.012,0.004,0.006,-0.008,0.000,0.000,0.000,0.000,0,2,0,1,7,255,1200,250,0,0,-89.461,0.874,-31.365
EX0521-092111,20,C20,prep,454,454,0,1033124.092,0.685,-0.676,0.195,0.187,0,0,0,0,0,0,0,0,0,0.000,0,0,0.166,0.009,0.160,-0.020,-0.040,0.015,0.994,0.011,0.008,0.004,-0.008,0.000,0.000,0.000,0.000,0,2,0,1,7,255,1200,250,0,0,-89.461,0.874,-31.365
EX0521-092111,20,C20,prep,463,463,0,1033129.092,0.685,-0.676,0.195,0.187,0,0,0,0,0,0,0,0,0,0.000,0,0,0.035,0.008,-0.020,-0.020,0.020,0.015,0.994,0.011,0.008,0.000,0.000,0.000,0.000,0.000,0.000,0,2,0,1,7,255,1200,250,0,0,-89.461,0.874,-31.365
EX0521-092111,20,C20,prep,463,463,0,1033134.092,0.685,-0.676,0.195,0.187,0,0,0,0,0,0,0,0,0,0.000,0,0,0.049,0.006,-0.020,-0.020,-0.040,0.014,0.994,0.012,0.006,0.000,0.000,0.000,0.000,0.000,0.000,0,2,0,1,7,255,1200,250,0,0,-89.461,0.874,-31.365
EX0521-092111,20,C20,prep,488,488,0,1033139.092,0.685,-0.676,0.195,0.187,0,0,0,0,0,0,0,0,0,0.000,0,0,0.104,0.006,0.100,-0.020,0.020,0.014,0.995,0.010,0.006,0.000,0.000,0.000,0.000,0.000,0.000,0,2,0,1,7,255,1200,250,0,0,-89.461,0.874,-31.365
EX0521-092111,20,C20,prep,488,488,0,1033144.091,0.685,-0.676,0.195,0.187,0,0,0,0,0,0,0,0,0,0.000,0,0,0.035,0.012,-0.020,-0.020,0.020,0.014,0.995,0.010,0.002,0.012,0.006,0.000,0.000,0.000,0.000,0,2,0,1,7,255,1200,250,0,0,-89.461,0.874,-31.365
EX0521-092111,20,C20,prep,488,488,0,1033149.092,0.685,-0.676,0.195,0.187,0,0,0,0,0,0,0,0,0,0.000,0,0,0.035,0.012,-0.020,-0.020,0.020,0.015,0.993,0.012,0.002,0.012,0.006,0.000,0.000,0.000,0.000,0,2,0,1,7,255,1200,250,0,0,-89.461,0.874,-31.365
EX0521-092111,20,C20,prep,488,488,0,1033154.091,0.685,-0.676,0.195,0.187,0,0,0,0,0,0,0,0,0,0.000,0,0,0.166,0.003,0.160,-0.020,-0.040,0.014,0.993,0.012,0.002,-0.002,-0.008,0.000,0.000,0.000,0.000,0,2,0,1,7,255,1200,250,0,0,-89.461,0.874,-31.365
EX0521-092111,20,C20,prep,495,495,0,1033159.092,0.685,-0.676,0.195,0.187,0,0,0,0,0,0,0,0,0,0.000,0,0,0.085,0.003,-0.020,-0.080,-0.020,0.015,0.994,0.011,0.002,-0.002,-0.008,0.000,0.000,0.000,0.000,0,2,0,1,7,255,1200,250,0,0,-89.461,0.874,-31.365
EX0521-092111,20,C20,prep,495,495,0,1033164.093,0.685,-0.676,0.195,0.187,0,0,0,0,0,0,0,0,0,0.000,0,0,0.120,0.004,-0.080,-0.080,0.040,0.015,0.993,0.012,0.004,-0.002,-0.008,0.000,0.000,0.000,0.000,0,2,0,1,7,255,1200,250,0,0,-89.461,0.874,-31.365
EX0521-092111,20,C20,prep,529,529,0,1033169.092,0.685,-0.676,0.195,0.187,0,0,0,0,0,0,0,0,0,0.000,0,0,0.049,0.011,0.040,-0.020,-0.020,0.015,0.993,0.013,0.004,-0.010,-0.008,0.000,0.000,0.000,0.000,0,2,0,1,7,255,1200,250,0,0,-89.461,0.874,-31.365
EX0521-092111,20,C20,prep,529,529,0,1033174.091,0.685,-0.676,0.195,0.187,0,0,0,0,0,0,0,0,0,0.000,0,0,0.104,0.010,0.100,-0.020,-0.020,0.014,0.995,0.012,0.002,-0.010,-0.008,0.000,0.000,0.000,0.000,0,2,0,1,7,255,1200,250,0,0,-89.461,0.874,-31.365
EX0521-092111,20,C20,prep,529,529,0,1033179.092,0.685,-0.676,0.195,0.187,0,0,0,0,0,0,0,0,0,0.000,0,0,0.085,0.003,-0.080,-0.020,-0.020,0.014,0.995,0.012,-0.002,-0.002,0.006,0.000,0.000,0.000,0.000,0,2,0,1,7,255,1200,250,0,0,-89.461,0.874,-31.365
EX0521-092111,20,C20,prep,529,529,0,1033184.093,0.685,-0.676,0.195,0.187,0,0,0,0,0,0,0,0,0,0.000,0,0,0.049,0.004,0.040,-0.020,-0.020,0.013,0.994,0.011,-0.004,0.002,0.006,0.000,0.000,0.000,0.000,0,2,0,1,7,255,1200,250,0,0,-89.461,0.874,-31.365
EX0521-092111,20,C20,prep,529,529,0,1033189.092,0.685,-0.676,0.195,0.187,0,0,0,0,0,0,0,0,0,0.000,0,0,0.110,0.008,0.100,0.040,-0.020,0.015,0.995,0.010,-0.002,0.008,0.006,0.000,0.000,0.000,0.000,0,2,0,1,7,255,1200,250,0,0,-89.461,0.874,-31.365
EX0521-092111,20,C20,prep,529,529,0,1033194.091,0.685,-0.676,0.195,0.187,0,0,0,0,0,0,0,0,0,0.000,0,0,0.085,0.012,-0.080,-0.020,-0.020,0.014,0.994,0.010,0.006,0.010,0.000,0.000,0.000,0.000,0.000,0,2,0,1,7,255,1200,250,0,0,-89.461,0.874,-31.365
EX0521-092111,20,C20,prep,544,544,0,1033199.092,0.685,-0.676,0.195,0.187,0,0,0,0,0,0,0,0,0,0.000,0,0,0.085,0.010,-0.020,-0.080,-0.020,0.015,0.993,0.012,0.006,0.008,0.000,0.000,0.000,0.000,0.000,0,2,0,1,7,255,1200,250,0,0,-89.461,0.874,-31.365
EX0521-092111,20,C20,prep,544,544,0,1033204.091,0.685,-0.676,0.195,0.187,0,0,0,0,0,0,0,0,0,0.000,0,0,0.104,0.012,0.100,-0.020,-0.020,0.014,0.994,0.010,0.006,0.010,0.000,0.000,0.000,0.000,0.000,0,2,0,1,7,255,1200,250,0,0,-89.461,0.874,-31.365
EX0521-092111,20,C20,prep,544,544,0,1033209.092,0.685,-0.676,0.195,0.187,0,0,0,0,0,0,0,0,0,0.000,0,0,0.049,0.007,-0.020,-0.020,-0.040,0.014,0.994,0.011,0.004,0.006,-0.004,0.000,0.000,0.000,0.000,0,2,0,1,7,255,1200,250,0,0,-89.461,0.874,-31.365
EX0521-092111,20,C20,prep,544,544,0,1033214.092,0.685,-0.676,0.195,0.187,0,0,0,0,0,0,0,0,0,0.000,0,0,0.092,0.007,-0.080,-0.020,-0.040,0.015,0.994,0.012,0.004,0.006,0.000,0.000,0.000,0.000,0.000,0,2,0,1,7,255,1200,250,0,0,-89.461,0.874,-31.365
EX0521-092111,20,C20,prep,560,560,0,1033219.092,0.685,-0.676,0.195,0.187,0,0,0,0,0,0,0,0,0,0.000,0,0,0.110,0.002,0.100,-0.020,-0.040,0.014,0.994,0.012,0.002,0.000,-0.004,0.000,0.000,0.000,0.000,0,2,0,1,7,255,1200,250,0,0,-89.461,0.874,-31.365
EX0521-092111,20,C20,prep,560,560,0,1033224.092,0.685,-0.676,0.195,0.187,0,0,0,0,0,0,0,0,0,0.000,0,0,0.110,0.004,0.100,-0.020,-0.040,0.014,0.994,0.011,-0.004,0.000,0.000,0.000,0.000,0.000,0.000,0,2,0,1,7,255,1200,250,0,0,-89.461,0.874,-31.365
EX0521-092111,20,C20,prep,576,576,0,1033229.091,0.685,-0.676,0.195,0.187,0,0,0,0,0,0,0,0,0,0.000,0,0,0.092,0.004,-0.020,-0.080,-0.040,0.015,0.993,0.012,-0.004,0.000,-0.004,0.000,0.000,0.000,0.000,0,2,0,1,7,255,1200,250,0,0,-89.461,0.874,-31.365
EX0521-092111,20,C20,prep,576,576,0,1033234.092,0.685,-0.676,0.195,0.187,0,0,0,0,0,0,0,0,0,0.000,0,0,0.098,0.004,0.040,-0.080,-0.040,0.015,0.994,0.011,0.004,0.000,0.000,0.000,0.000,0.000,0.000,0,2,0,1,7,255,1200,250,0,0,-89.461,0.874,-31.365
EX0521-092111,20,C20,prep,576,576,0,1033239.091,0.685,-0.676,0.195,0.187,0,0,0,0,0,0,0,0,0,0.000,0,0,0.049,0.004,-0.020,-0.020,-0.040,0.014,0.994,0.011,0.004,0.000,-0.004,0.000,0.000,0.000,0.000,0,2,0,1,7,255,1200,250,0,0,-89.461,0.874,-31.365
EX0521-092111,20,C20,prep,576,576,0,1033244.092,0.685,-0.676,0.195,0.187,0,0,0,0,0,0,0,0,0,0.000,0,0,0.085,0.002,-0.080,-0.020,0.020,0.014,0.993,0.011,0.000,0.002,-0.004,0.000,0.000,0.000,0.000,0,2,0,1,7,255,1200,250,0,0,-89.461,0.874,-31.365
EX0521-092111,20,C20,prep,591,591,0,1033249.091,0.685,-0.676,0.195,0.187,0,0,0,0,0,0,0,0,0,0.000,0,0,0.110,0.002,0.040,-0.020,-0.100,0.015,0.992,0.012,0.000,0.002,-0.014,0.000,0.000,0.000,0.000,0,2,0,1,7,255,1200,250,0,0,-89.461,0.874,-31.365
EX0521-092111,20,C20,prep,591,591,0,1033254.092,0.685,-0.676,0.195,0.187,0,0,0,0,0,0,0,0,0,0.000,0,0,0.143,0.004,0.100,-0.020,-0.100,0.015,0.988,0.012,0.000,-0.004,-0.022,0.000,0.000,0.000,0.000,0,2,0,1,7,255,1200,250,0,0,-89.461,0.874,-31.365
EX0521-092111,20,C20,prep,591,591,0,1033259.091,0.685,-0.676,0.195,0.187,0,0,0,0,0,0,0,0,0,0.000,0,0,0.104,0.008,-0.020,-0.020,-0.100,0.016,0.979,0.011,0.002,-0.008,-0.056,0.000,0.000,0.000,0.000,0,2,0,1,7,255,1200,250,0,0,-89.461,0.874,-31.365
EX0521-092111,20,C20,prep,591,591,0,1033264.092,0.685,-0.676,0.195,0.187,0,0,0,0,0,0,0,0,0,0.000,0,0,0.294,0.011,0.040,-0.080,-0.280,0.015,0.982,0.012,0.008,-0.008,-0.114,0.000,0.000,0.000,0.000,0,2,0,1,7,255,1200,250,0,0,-89.461,0.874,-31.365
EX0521-092111,20,C20,prep,623,623,0,1033269.091,0.685,-0.676,0.195,0.187,0,0,0,0,0,0,0,0,0,0.000,0,0,0.332,0.011,0.160,-0.080,-0.280,0.015,1.015,0.011,0.008,-0.008,-0.114,0.000,0.000,0.000,0.000,0,2,0,1,7,255,1200,250,0,0,-89.461,0.874,-31.365
EX0521-092111,20,C20,prep,623,623,0,1033274.092,0.685,-0.676,0.195,0.187,0,0,0,0,0,0,0,0,0,0.000,0,0,0.049,0.004,0.040,-0.020,0.020,0.012,1.027,0.010,0.002,0.004,0.208,0.000,0.000,0.000,0.000,0,2,0,1,7,255,1200,250,0,0,-89.461,0.874,-31.365
EX0521-092111,20,C20,prep,623,623,0,1033279.092,0.685,-0.676,0.195,0.187,0,0,0,0,0,0,0,0,0,0.000,0,0,0.115,0.014,-0.080,-0.020,0.080,0.013,0.999,0.011,-0.010,0.010,0.208,0.000,0.000,0.000,0.000,0,2,0,1,7,255,1200,250,0,0,-89.461,0.874,-31.365
EX0521-092111,20,C20,prep,623,623,0,1033284.093,0.685,-0.676,0.195,0.187,0,0,0,0,0,0,0,0,0,0.000,0,0,0.035,0.014,-0.020,-0.020,0.020,0.014,0.985,0.012,-0.010,0.010,0.046,0.000,0.000,0.000,0.000,0,2,0,1,7,255,1200,250,0,0,-89.461,0.874,-31.365
EX0521-092111,20,C20,prep,623,623,0,1033289.092,0.685,-0.676,0.195,0.187,0,0,0,0,0,0,0,0,0,0.000,0,0,0.060,0.008,0.040,0.040,0.020,0.016,0.981,0.010,-0.008,0.002,-0.086,0.000,0.000,0.000,0.000,0,2,0,1,7,255,1200,250,0,0,-89.461,0.874,-31.365
EX0521-092111,20,C20,prep,623,623,0,1033294.091,0.685,-0.676,0.195,0.187,0,0,0,0,0,0,0,0,0,0.000,0,0,0.060,0.006,0.040,-0.020,-0.040,0.014,0.991,0.010,0.006,0.002,-0.086,0.000,0.000,0.000,0.000,0,2,0,1,7,255,1200,250,0,0,-89.461,0.874,-31.365
EX0521-092111,20,C20,prep,640,640,0,1033299.092,0.685,-0.676,0.195,0.187,0,0,0,0,0,0,0,0,0,0.000,0,0,0.060,0.008,0.040,0.040,0.020,0.014,0.998,0.011,0.006,0.006,-0.032,0.000,0.000,0.000,0.000,0,2,0,1,7,255,1200,250,0,0,-89.461,0.874,-31.365
EX0521-092111,20,C20,prep,640,640,0,1033304.091,0.685,-0.676,0.195,0.187,0,0,0,0,0,0,0,0,0,0.000,0,0,0.035,0.006,-0.020,-0.020,0.020,0.014,0.997,0.012,0.002,0.006,0.024,0.000,0.000,0.000,0.000,0,2,0,1,7,255,1200,250,0,0,-89.461,0.874,-31.365
EX0521-092111,20,C20,prep,656,656,0,1033309.092,0.685,-0.676,0.195,0.187,0,0,0,0,0,0,0,0,0,0.000,0,0,0.085,0.006,-0.080,-0.020,0.020,0.015,0.988,0.013,-0.004,-0.004,0.024,0.000,0.000,0.000,0.000,0,2,0,1,7,255,1200,250,0,0,-89.461,0.874,-31.365
EX0521-092111,20,C20,prep,656,656,0,1033314.091,0.685,-0.676,0.195,0.187,0,0,0,0,0,0,0,0,0,0.000,0,0,0.110,0.006,0.040,-0.020,-0.100,0.015,0.990,0.012,-0.004,-0.004,-0.036,0.000,0.000,0.000,0.000,0,2,0,1,7,255,1200,250,0,0,-89.461,0.874,-31.365
EX0521-092111,20,C20,prep,656,656,0,1033319.092,0.685,-0.676,0.195,0.187,0,0,0,0,0,0,0,0,0,0.000,0,0,0.110,0.004,0.100,-0.020,-0.040,0.016,0.996,0.010,0.002,-0.004,-0.036,0.000,0.000,0.000,0.000,0,2,0,1,7,255,1200,250,0,0,-89.461,0.874,-31.365
EX0521-092111,20,C20,prep,656,656,0,1033324.091,0.685,-0.676,0.195,0.187,0,0,0,0,0,0,0,0,0,0.000,0,0,0.049,0.008,-0.020,-0.020,-0.040,0.013,0.992,0.011,0.002,0.008,-0.022,0.000,0.000,0.000,0.000,0,2,0,1,7,255,1200,250,0,0,-89.461,0.874,-31.365
EX0521-092111,20,C20,prep,672,672,0,1033329.092,0.685,-0.676,0.195,0.187,0,0,0,0,0,0,0,0,0,0.000,0,0,0.035,0.013,-0.020,-0.020,0.020,0.013,0.991,0.012,-0.010,0.008,-0.022,0.000,0.000,0.000,0.000,0,2,0,1,7,255,1200,250,0,0,-89.461,0.874,-31.365
EX0521-092111,20,C20,prep,672,672,0,1033334.091,0.685,-0.676,0.195,0.187,0,0,0,0,0,0,0,0,0,0.000,0,0,0.110,0.010,0.100,-0.020,-0.040,0.015,0.992,0.013,-0.010,0.002,-0.022,0.000,0.000,0.000,0.000,0,2,0,1,7,255,1200,250,0,0,-89.461,0.874,-31.365
EX0521-092111,20,C20,prep,688,688,0,1033339.092,0.685,-0.676,0.195,0.187,0,0,0,0,0,0,0,0,0,0.000,0,0,0.098,0.010,0.040,-0.080,-0.040,0.016,0.995,0.012,-0.006,-0.008,-0.022,0.000,0.000,0.000,0.000,0,2,0,1,7,255,1200,250,0,0,-89.461,0.874,-31.365
EX0521-092111,20,C20,prep,688,688,0,1033344.091,0.685,-0.676,0.195,0.187,0,0,0,0,0,0,0,0,0,0.000,0,0,0.049,0.010,-0.020,-0.020,-0.040,0.015,0.994,0.012,0.006,-0.008,0.002,0.000,0.000,0.000,0.000,0,2,0,1,7,255,1200,250,0,0,-89.461,0.874,-31.365
EX0521-092111,20,C20,prep,688,688,0,1033349.092,0.685,-0.676,0.195,0.187,0,0,0,0,0,0,0,0,0,0.000,0,0,0.110,0.010,0.040,-0.020,-0.100,0.014,0.990,0.010,0.008,-0.006,0.002,0.000,0.000,0.000,0.000,0,2,0,1,7,255,1200,250,0,0,-89.461,0.874,-31.365
EX0521-092111,20,C20,prep,688,688,0,1033354.092,0.685,-0.676,0.195,0.187,0,0,0,0,0,0,0,0,0,0.000,0,0,0.110,0.015,0.100,-0.020,-0.040,0.014,0.989,0.010,0.006,0.014,-0.040,0.000,0.000,0.000,0.000,0,2,0,1,7,255,1200,250,0,0,-89.461,0.874,-31.365
EX0521-092111,20,C20,prep,723,723,0,1033359.093,0.685,-0.676,0.195,0.187,0,0,0,0,0,0,0,0,0,0.000,0,0,0.060,0.015,0.040,-0.020,-0.040,0.015,0.996,0.012,0.004,0.014,-0.040,0.000,0.000,0.000,0.000,0,2,0,1,7,255,1200,250,0,0,-89.461,0.874,-31.365
EX0521-092111,20,C20,prep,723,723,0,1033364.093,0.685,-0.676,0.195,0.187,0,0,0,0,0,0,0,0,0,0.000,0,0,0.060,0.006,0.040,-0.020,-0.040,0.015,1.000,0.012,0.004,-0.004,0.022,0.000,0.000,0.000,0.000,0,2,0,1,7,255,1200,250,0,0,-89.461,0.874,-31.365
EX0521-092111,20,C20,prep,753,753,0,1033369.091,0.685,-0.676,0.195,0.187,0,0,0,0,0,0,0,0,0,0.000,0,0,0.104,0.007,-0.020,-0.020,-0.100,0.015,0.995,0.011,0.006,-0.004,0.022,0.000,0.000,0.000,0.000,0,2,0,1,7,255,1200,250,0,0,-89.461,0.874,-31.365
EX0521-092111,20,C20,prep,753,753,0,1033374.092,0.685,-0.676,0.195,0.187,0,0,0,0,0,0,0,0,0,0.000,0,0,0.049,0.010,-0.020,-0.020,-0.040,0.015,0.991,0.010,0.010,0.002,0.012,0.000,0.000,0.000,0.000,0,2,0,1,7,255,1200,250,0,0,-89.461,0.874,-31.365
EX0521-092111,20,C20,prep,753,753,0,1033379.092,0.685,-0.676,0.195,0.187,0,0,0,0,0,0,0,0,0,0.000,0,0,0.060,0.013,0.040,-0.020,-0.040,0.014,0.992,0.011,0.010,0.008,-0.016,0.000,0.000,0.000,0.000,0,2,0,1,7,255,1200,250,0,0,-89.461,0.874,-31.365
EX0521-092111,20,C20,prep,753,753,0,1033384.093,0.685,-0.676,0.195,0.187,0,0,0,0,0,0,0,0,0,0.000,0,0,0.110,0.008,0.100,-0.020,-0.040,0.014,0.996,0.011,-0.002,0.008,-0.016,0.000,0.000,0.000,0.000,0,2,0,1,7,255,1200,250,0,0,-89.461,0.874,-31.365
EX0521-092111,20,C20,prep,753,753,0,1033389.091,0.685,-0.676,0.195,0.187,0,0,0,0,0,0,0,0,0,0.000,0,0,0.060,0.008,0.040,0.040,0.020,0.013,0.997,0.012,-0.002,0.008,0.022,0.000,0.000,0.000,0.000,0,2,0,1,7,255,1200,250,0,0,-89.461,0.874,-31.365
EX0521-092111,20,C20,prep,753,753,0,1033394.092,0.685,-0.676,0.195,0.187,0,0,0,0,0,0,0,0,0,0.000,0,0,0.049,0.002,-0.020,-0.020,-0.040,0.015,0.992,0.011,-0.002,0.000,0.022,0.000,0.000,0.000,0.000,0,2,0,1,7,255,1200,250,0,0,-89.461,0.874,-31.365
EX0521-092111,20,C20,prep,753,753,0,1033399.091,0.685,-0.676,0.195,0.187,0,0,0,0,0,0,0,0,0,0.000,0,0,0.060,0.004,0.040,-0.020,-0.040,0.015,0.990,0.011,0.004,-0.002,-0.022,0.000,0.000,0.000,0.000,0,2,0,1,7,255,1200,250,0,0,-89.461,0.874,-31.365
EX0521-092111,20,C20,prep,753,753,0,1033404.092,0.685,-0.676,0.195,0.187,0,0,0,0,0,0,0,0,0,0.000,0,0,0.060,0.006,0.040,-0.020,-0.040,0.014,0.992,0.010,0.006,-0.002,-0.022,0.000,0.000,0.000,0.000,0,2,0,1,7,255,1200,250,0,0,-89.461,0.874,-31.365
EX0521-092111,20,C20,prep,754,754,0,1033409.091,0.685,-0.676,0.195,0.187,0,0,0,0,0,0,0,0,0,0.000,0,0,0.134,0.006,0.040,-0.080,-0.100,0.015,0.996,0.011,0.006,-0.002,-0.022,0.000,0.000,0.000,0.000,0,2,0,1,7,255,1200,250,0,0,-89.461,0.874,-31.365
EX0521-092111,20,C20,prep,754,754,0,1033414.092,0.685,-0.676,0.195,0.187,0,0,0,0,0,0,0,0,0,0.000,0,0,0.060,0.006,0.040,-0.020,-0.040,0.013,0.995,0.012,0.006,0.002,0.008,0.000,0.000,0.000,0.000,0,2,0,1,7,255,1200,250,0,0,-89.461,0.874,-31.365
EX0521-092111,20,C20,prep,754,754,0,1033419.092,0.685,-0.676,0.195,0.187,0,0,0,0,0,0,0,0,0,0.000,0,0,0.110,0.004,0.100,-0.020,-0.040,0.014,0.994,0.012,-0.004,-0.002,0.008,0.000,0.000,0.000,0.000,0,2,0,1,7,255,1200,250,0,0,-89.461,0.874,-31.365
EX0521-092111,20,C20,prep,754,754,0,1033424.092,0.685,-0.676,0.195,0.187,0,0,0,0,0,0,0,0,0,0.000,0,0,0.104,0.007,-0.020,-0.020,-0.100,0.015,0.993,0.012,-0.004,-0.006,0.002,0.000,0.000,0.000,0.000,0,2,0,1,7,255,1200,250,0,0,-89.462,0.874,-31.365
EX0521-092111,20,C20,prep,768,768,0,1033429.091,0.685,-0.676,0.195,0.187,0,0,0,0,0,0,0,0,0,0.000,0,0,0.060,0.006,0.040,-0.020,-0.040,0.014,0.993,0.010,0.000,-0.006,-0.006,0.000,0.000,0.000,0.000,0,2,0,1,7,255,1200,250,0,0,-89.462,0.874,-31.365
EX0521-092111,20,C20,prep,768,768,0,1033434.092,0.685,-0.676,0.195,0.187,0,0,0,0,0,0,0,0,0,0.000,0,0,0.110,0.006,0.040,-0.020,-0.100,0.014,0.995,0.011,0.002,0.006,-0.006,0.000,0.000,0.000,0.000,0,2,0,1,7,255,1200,250,0,0,-89.462,0.874,-31.365
EX0521-092111,20,C20,prep,783,783,0,1033439.092,0.685,-0.676,0.195,0.187,0,0,0,0,0,0,0,0,0,0.000,0,0,0.060,0.006,0.040,-0.020,-0.040,0.013,0.993,0.012,0.002,0.006,-0.008,0.000,0.000,0.000,0.000,0,2,0,1,7,255,1200,250,0,0,-89.462,0.874,-31.365
EX0521-092111,20,C20,prep,783,783,0,1033444.092,0.685,-0.676,0.195,0.187,0,0,0,0,0,0,0,0,0,0.000,0,0,0.060,0.003,0.040,-0.020,-0.040,0.015,0.993,0.011,0.002,0.002,-0.008,0.000,0.000,0.000,0.000,0,2,0,1,7,255,1200,250,0,0,-89.462,0.874,-31.365
EX0521-092111,20,C20,prep,799,799,0,1033449.093,0.685,-0.676,0.195,0.187,0,0,0,0,0,0,0,0,0,0.000,0,0,0.060,0.004,0.040,-0.020,-0.040,0.015,0.995,0.011,0.004,0.002,-0.008,0.000,0.000,0.000,0.000,0,2,0,1,7,255,1200,250,0,0,-89.462,0.874,-31.365
EX0521-092111,20,C20,prep,799,799,0,1033454.091,0.685,-0.676,0.195,0.187,0,0,0,0,0,0,0,0,0,0.000,0,0,0.049,0.004,-0.020,-0.020,-0.040,0.014,0.994,0.012,0.004,0.000,0.002,0.000,0.000,0.000,0.000,0,2,0,1,7,255,1200,250,0,0,-89.462,0.874,-31.365
EX0521-092111,20,C20,prep,799,799,0,1033459.092,0.685,-0.676,0.195,0.187,0,0,0,0,0,0,0,0,0,0.000,0,0,0.060,0.006,0.040,-0.020,-0.040,0.013,0.993,0.012,-0.006,0.002,0.002,0.000,0.000,0.000,0.000,0,2,0,1,7,255,1200,250,0,0,-89.462,0.874,-31.365
EX0521-092111,20,C20,prep,799,799,0,1033464.091,0.685,-0.676,0.195,0.187,0,0,0,0,0,0,0,0,0,0.000,0,0,0.060,0.006,-0.020,0.040,-0.040,0.014,0.993,0.012,-0.006,0.000,-0.012,0.000,0.000,0.000,0.000,0,2,0,1,7,255,1200,250,0,0,-89.462,0.874,-31.365
EX0521-092111,20,C20,prep,832,832,0,1033469.092,0.685,-0.676,0.195,0.187,0,0,0,0,0,0,0,0,0,0.000,0,0,0.049,0.006,-0.020,-0.020,-0.040,0.014,0.996,0.011,-0.006,0.002,-0.012,0.000,0.000,0.000,0.000,0,2,0,1,7,255,1200,250,0,0,-89.462,0.874,-31.365
EX0521-092111,20,C20,prep,832,832,0,1033474.091,0.685,-0.676,0.195,0.187,0,0,0,0,0,0,0,0,0,0.000,0,0,0.049,0.000,-0.020,-0.020,-0.040,0.015,0.989,0.011,0.000,0.000,-0.012,0.000,0.000,0.000,0.000,0,2,0,1,7,255,1200,250,0,0,-89.462,0.874,-31.365
EX0521-092111,20,C20,prep,832,832,0,1033479.093,0.685,-0.676,0.195,0.187,0,0,0,0,0,0,0,0,0,0.000,0,0,0.110,0.002,0.040,-0.020,-0.100,0.014,0.993,0.011,0.000,0.002,-0.012,0.000,0.000,0.000,0.000,0,2,0,1,7,255,1200,250,0,0,-89.462,0.874,-31.365
EX0521-092111,20,C20,prep,832,832,0,1033484.093,0.685,-0.676,0.195,0.187,0,0,0,0,0,0,0,0,0,0.000,0,0,0.085,0.003,-0.020,-0.080,0.020,0.014,0.995,0.012,-0.002,-0.002,-0.012,0.000,0.000,0.000,0.000,0,2,0,1,7,255,1200,250,0,0,-89.462,0.874,-31.365
EX0521-092111,20,C20,prep,832,832,0,1033489.092,0.685,-0.676,0.195,0.187,0,0,0,0,0,0,0,0,0,0.000,0,0,0.115,0.003,-0.080,-0.080,0.020,0.013,0.993,0.012,-0.002,0.002,-0.012,0.000,0.000,0.000,0.000,0,2,0,1,7,255,1200,250,0,0,-89.462,0.874,-31.365
EX0521-092111,20,C20,prep,832,832,0,1033494.091,0.685,-0.676,0.195,0.187,0,0,0,0,0,0,0,0,0,0.000,0,0,0.098,0.006,0.040,-0.080,-0.040,0.014,0.997,0.012,-0.006,0.000,0.008,0.000,0.000,0.000,0.000,0,2,0,1,7,255,1200,250,0,0,-89.462,0.874,-31.365
EX0521-092111,20,C20,prep,852,852,0,1033499.092,0.685,-0.676,0.195,0.187,0,0,0,0,0,0,0,0,0,0.000,0,0,0.060,0.006,0.040,-0.020,-0.040,0.014,0.994,0.011,-0.006,0.002,0.002,0.000,0.000,0.000,0.000,0,2,0,1,7,255,1200,250,0,0,-89.462,0.874,-31.365
EX0521-092111,20,C20,prep,852,852,0,1033504.091,0.685,-0.676,0.195,0.187,0,0,0,0,0,0,0,0,0,0.000,0,0,0.049,0.008,-0.020,-0.020,-0.040,0.014,0.994,0.011,-0.002,0.008,0.002,0.000,0.000,0.000,0.000,0,2,0,1,7,255,1200,250,0,0,-89.462,0.874,-31.365
EX0521-092111,20,C20,prep,852,852,0,1033509.092,0.685,-0.676,0.195,0.187,0,0,0,0,0,0,0,0,0,0.000,0,0,0.049,0.008,0.040,-0.020,-0.020,0.015,0.992,0.011,-0.002,0.008,-0.002,0.000,0.000,0.000,0.000,0,2,0,1,7,255,1200,250,0,0,-89.462,0.874,-31.365
EX0521-092111,20,C20,prep,852,852,0,1033514.091,0.685,-0.676,0.195,0.187,0,0,0,0,0,0,0,0,0,0.000,0,0,0.035,0.003,-0.020,-0.020,-0.020,0.014,0.993,0.012,-0.002,-0.002,-0.012,0.000,0.000,0.000,0.000,0,2,0,1,7,255,1200,250,0,0,-89.462,0.874,-31.365
EX0521-092111,20,C20,prep,866,866,0,1033519.092,0.685,-0.676,0.195,0.187,0,0,0,0,0,0,0,0,0,0.000,0,0,0.035,0.004,-0.020,-0.020,-0.020,0.015,0.992,0.012,0.004,-0.002,-0.016,0.000,0.000,0.000,0.000,0,2,0,1,7,255,1200,250,0,0,-89.462,0.874,-31.365
EX0521-092111,20,C20,prep,866,866,0,1033524.092,0.685,-0.676,0.195,0.187,0,0,0,0,0,0,0,0,0,0.000,0,0,0.049,0.011,0.040,-0.020,-0.020,0.016,0.993,0.012,0.004,-0.010,-0.012,0.000,0.000,0.000,0.000,0,2,0,1,7,255,1200,250,0,0,-89.462,0.874,-31.365
EX0521-092111,20,C20,prep,866,866,0,1033529.091,0.685,-0.676,0.195,0.187,0,0,0,0,0,0,0,0,0,0.000,0,0,0.110,0.011,0.100,-0.020,0.040,0.015,0.996,0.011,0.004,-0.010,-0.010,0.000,0.000,0.000,0.000,0,2,0,1,7,255,1200,250,0,0,-89.462,0.874,-31.365
EX0521-092111,20,C20,prep,866,866,0,1033534.092,0.685,-0.676,0.195,0.187,0,0,0,0,0,0,0,0,0,0.000,0,0,0.049,0.004,-0.020,0.040,-0.020,0.015,0.992,0.011,0.004,0.000,-0.010,0.000,0.000,0.000,0.000,0,2,0,1,7,255,1200,250,0,0,-89.462,0.874,-31.365
EX0521-092111,20,C20,prep,885,885,0,1033539.091,0.685,-0.676,0.195,0.187,0,0,0,0,0,0,0,0,0,0.000,0,0,0.092,0.004,0.040,-0.080,-0.020,0.015,0.995,0.011,0.004,0.000,0.008,0.000,0.000,0.000,0.000,0,2,0,1,7,255,1200,250,0,0,-89.462,0.874,-31.365
EX0521-092111,20,C20,prep,885,885,0,1033544.092,0.685,-0.676,0.195,0.187,0,0,0,0,0,0,0,0,0,0.000,0,0,0.060,0.004,0.040,-0.020,0.040,0.014,0.992,0.012,0.004,0.000,-0.016,0.000,0.000,0.000,0.000,0,2,0,1,7,255,1200,250,0,0,-89.462,0.874,-31.365
EX0521-092111,20,C20,prep,885,885,0,1033549.091,0.685,-0.676,0.195,0.187,0,0,0,0,0,0,0,0,0,0.000,0,0,0.049,0.007,0.040,-0.020,-0.020,0.015,0.995,0.012,0.004,-0.006,0.008,0.000,0.000,0.000,0.000,0,2,0,1,7,255,1200,250,0,0,-89.462,0.874,-31.365
EX0521-092111,20,C20,prep,885,885,0,1033554.092,0.685,-0.676,0.195,0.187,0,0,0,0,0,0,0,0,0,0.000,0,0,0.085,0.008,-0.020,-0.080,-0.020,0.015,0.995,0.012,0.006,-0.006,0.008,0.000,0.000,0.000,0.000,0,2,0,1,7,255,1200,250,0,0,-89.462,0.874,-31.365
EX0521-092111,20,C20,prep,895,895,0,1033559.092,0.685,-0.676,0.195,0.187,0,0,0,0,0,0,0,0,0,0.000,0,0,0.069,0.008,0.040,0.040,-0.040,0.014,0.993,0.012,0.006,-0.006,0.008,0.000,0.000,0.000,0.000,0,2,0,1,7,255,1200,250,0,0,-89.462,0.874,-31.365
EX0521-092111,20,C20,prep,895,895,0,1033564.093,0.685,-0.676,0.195,0.187,0,0,0,0,0,0,0,0,0,0.000,0,0,0.060,0.003,0.040,-0.020,-0.040,0.014,0.992,0.011,-0.002,-0.002,-0.006,0.000,0.000,0.000,0.000,0,2,0,1,7,255,1200,250,0,0,-89.462,0.874,-31.365
EX0521-092111,20,C20,prep,927,927,0,1033569.091,0.685,-0.676,0.195,0.187,0,0,0,0,0,0,0,0,0,0.000,0,0,0.049,0.004,-0.020,-0.020,-0.040,0.013,0.991,0.012,-0.004,0.002,-0.020,0.000,0.000,0.000,0.000,0,2,0,1,7,255,1200,250,0,0,-89.462,0.874,-31.365
EX0521-092111,20,C20,prep,927,927,0,1033574.092,0.685,-0.676,0.195,0.187,0,0,0,0,0,0,0,0,0,0.000,0,0,0.104,0.006,-0.020,-0.020,-0.100,0.014,0.995,0.011,-0.004,0.004,-0.020,0.000,0.000,0.000,0.000,0,2,0,1,7,255,1200,250,0,0,-89.462,0.874,-31.365
EX0521-092111,20,C20,prep,927,927,0,1033579.092,0.685,-0.676,0.195,0.187,0,0,0,0,0,0,0,0,0,0.000,0,0,0.049,0.006,-0.020,-0.020,-0.040,0.014,0.993,0.012,-0.006,0.002,-0.010,0.000,0.000,0.000,0.000,0,2,0,1,7,255,1200,250,0,0,-89.462,0.874,-31.365
EX0521-092111,20,C20,prep,927,927,0,1033584.093,0.685,-0.676,0.195,0.187,0,0,0,0,0,0,0,0,0,0.000,0,0,0.049,0.003,-0.020,-0.020,-0.040,0.014,0.995,0.011,-0.002,0.002,0.008,0.000,0.000,0.000,0.000,0,2,0,1,7,255,1200,250,0,0,-89.462,0.874,-31.365
EX0521-092111,20,C20,prep,927,927,0,1033589.092,0.685,-0.676,0.195,0.187,0,0,0,0,0,0,0,0,0,0.000,0,0,0.049,0.002,-0.020,-0.020,-0.040,0.014,0.993,0.011,0.000,0.002,-0.010,0.000,0.000,0.000,0.000,0,2,0,1,7,255,1200,250,0,0,-89.462,0.874,-31.365
EX0521-092111,20,C20,prep,927,927,0,1033594.092,0.685,-0.676,0.195,0.187,0,0,0,0,0,0,0,0,0,0.000,0,0,0.134,0.002,0.040,-0.080,-0.100,0.014,0.992,0.011,0.000,0.002,-0.010,0.000,0.000,0.000,0.000,0,2,0,1,7,255,1200,250,0,0,-89.462,0.874,-31.365
EX0521-092111,20,C20,prep,953,953,0,1033599.092,0.685,-0.676,0.195,0.187,0,0,0,0,0,0,0,0,0,0.000,0,0,0.060,0.006,0.040,-0.020,-0.040,0.014,0.993,0.011,0.002,0.006,-0.010,0.000,0.000,0.000,0.000,0,2,0,1,7,255,1200,250,0,0,-89.462,0.874,-31.365
EX0521-092111,20,C20,prep,953,953,0,1033604.091,0.685,-0.676,0.195,0.187,0,0,0,0,0,0,0,0,0,0.000,0,0,0.104,0.006,-0.020,-0.020,-0.100,0.013,0.993,0.011,0.000,0.006,-0.006,0.000,0.000,0.000,0.000,0,2,0,1,7,255,1200,250,0,0,-89.462,0.874,-31.365
EX0521-092111,20,C20,prep,953,953,0,1033609.092,0.685,-0.676,0.195,0.187,0,0,0,0,0,0,0,0,0,0.000,0,0,0.049,0.007,-0.020,-0.020,-0.040,0.014,0.993,0.011,-0.004,0.006,-0.006,0.000,0.000,0.000,0.000,0,2,0,1,7,255,1200,250,0,0,-89.462,0.874,-31.365
EX0521-092111,20,C20,prep,953,953,0,1033614.091,0.685,-0.676,0.195,0.187,0,0,0,0,0,0,0,0,0,0.000,0,0,0.035,0.006,-0.020,-0.020,0.020,0.016,0.993,0.012,-0.004,0.004,-0.006,0.000,0.000,0.000,0.000,0,2,0,1,7,255,1200,250,0,0,-89.462,0.874,-31.365
EX0521-092111,20,C20,prep,954,954,0,1033619.092,0.685,-0.676,0.195,0.187,0,0,0,0,0,0,0,0,0,0.000,0,0,0.049,0.004,0.040,-0.020,0.020,0.015,0.993,0.012,0.002,-0.004,-0.010,0.000,0.000,0.000,0.000,0,2,0,1,7,255,1200,250,0,0,-89.462,0.874,-31.365
EX0521-092111,20,C20,prep,954,954,0,1033624.091,0.685,-0.676,0.195,0.187,0,0,0,0,0,0,0,0,0,0.000,0,0,0.069,0.009,0.040,0.040,-0.040,0.015,0.993,0.011,0.008,-0.004,-0.010,0.000,0.000,0.000,0.000,0,2,0,1,7,255,1200,250,0,0,-89.462,0.874,-31.365
EX0521-092111,20,C20,prep,960,960,0,1033629.092,0.685,-0.676,0.195,0.187,0,0,0,0,0,0,0,0,0,0.000,0,0,0.035,0.009,-0.020,-0.020,0.020,0.015,0.994,0.011,0.008,-0.004,-0.010,0.000,0.000,0.000,0.000,0,2,0,1,7,255,1200,250,0,0,-89.462,0.874,-31.365
EX0521-092111,20,C20,prep,960,960,0,1033634.091,0.685,-0.676,0.195,0.187,0,0,0,0,0,0,0,0,0,0.000,0,0,0.035,0.009,-0.020,-0.020,0.020,0.015,0.994,0.012,0.008,-0.004,0.000,0.000,0.000,0.000,0.000,0,2,0,1,7,255,1200,250,0,0,-89.462,0.874,-31.365
EX0521-092111,20,C20,prep,976,976,0,1033639.092,0.685,-0.676,0.195,0.187,0,0,0,0,0,0,0,0,0,0.000,0,0,0.060,0.002,0.040,-0.020,-0.040,0.014,0.994,0.012,0.000,-0.002,0.004,0.000,0.000,0.000,0.000,0,2,0,1,7,255,1200,250,0,0,-89.462,0.874,-31.365
EX0521-092111,20,C20,prep,976,976,0,1033644.091,0.685,-0.676,0.195,0.187,0,0,0,0,0,0,0,0,0,0.000,0,0,0.060,0.003,0.040,-0.020,-0.040,0.013,0.993,0.011,-0.002,-0.002,0.004,0.000,0.000,0.000,0.000,0,2,0,1,7,255,1200,250,0,0,-89.462,0.874,-31.365
EX0521-092111,20,C20,prep,991,991,0,1033649.092,0.685,-0.676,0.195,0.187,0,0,0,0,0,0,0,0,0,0.000,0,0,0.049,0.004,-0.020,-0.020,-0.040,0.015,0.992,0.011,-0.002,0.004,-0.006,0.000,0.000,0.000,0.000,0,2,0,1,7,255,1200,250,0,0,-89.462,0.874,-31.365
EX0521-092111,20,C20,prep,991,991,0,1033654.091,0.685,-0.676,0.195,0.187,0,0,0,0,0,0,0,0,0,0.000,0,0,0.069,0.007,0.040,0.040,-0.040,0.015,0.993,0.011,0.006,0.004,-0.006,0.000,0.000,0.000,0.000,0,2,0,1,7,255,1200,250,0,0,-89.462,0.874,-31.365
EX0521-092111,20,C20,prep,991,991,0,1033659.092,0.685,-0.676,0.195,0.187,0,0,0,0,0,0,0,0,0,0.000,0,0,0.060,0.007,0.040,-0.020,-0.040,0.014,0.995,0.012,0.006,0.004,-0.004,0.000,0.000,0.000,0.000,0,2,0,1,7,255,1200,250,0,0,-89.462,0.874,-31.365
EX0521-092111,20,C20,prep,991,991,0,1033664.091,0.685,-0.676,0.195,0.187,0,0,0,0,0,0,0,0,0,0.000,0,0,0.098,0.003,0.040,-0.080,-0.040,0.013,0.995,0.012,-0.002,0.002,0.010,0.000,0.000,0.000,0.000,0,2,0,1,7,255,1200,250,0,0,-89.462,0.874,-31.365
EX0521-092111,20,C20,prep,1029,1029,0,1033669.092,0.685,-0.676,0.195,0.187,0,0,0,0,0,0,0,0,0,0.000,0,0,0.035,0.003,-0.020,-0.020,0.020,0.014,0.994,0.011,-0.002,0.002,0.010,0.000,0.000,0.000,0.000,0,2,0,1,7,255,1200,250,0,0,-89.462,0.874,-31.365
EX0521-092111,20,C20,prep,1029,1029,0,1033674.091,0.685,-0.676,0.195,0.187,0,0,0,0,0,0,0,0,0,0.000,0,0,0.049,0.002,0.040,-0.020,0.020,0.014,0.994,0.010,0.000,0.002,0.004,0.000,0.000,0.000,0.000,0,2,0,1,7,255,1200,250,0,0,-89.462,0.874,-31.365
EX0521-092111,20,C20,prep,1029,1029,0,1033679.092,0.685,-0.676,0.195,0.187,0,0,0,0,0,0,0,0,0,0.000,0,0,0.049,0.002,0.040,-0.020,0.020,0.014,0.994,0.012,0.000,0.002,0.000,0.000,0.000,0.000,0.000,0,2,0,1,7,255,1200,250,0,0,-89.462,0.874,-31.365
EX0521-092111,20,C20,prep,1029,1029,0,1033684.093,0.685,-0.676,0.195,0.187,0,0,0,0,0,0,0,0,0,0.000,0,0,0.060,0.000,-0.020,0.040,-0.040,0.015,0.994,0.011,0.000,0.000,0.004,0.000,0.000,0.000,0.000,0,2,0,1,7,255,1200,250,0,0,-89.462,0.874,-31.365
EX0521-092111,20,C20,prep,1029,1029,0,1033689.091,0.685,-0.676,0.195,0.187,0,0,0,0,0,0,0,0,0,0.000,0,0,0.060,0.003,0.040,-0.020,-0.040,0.013,0.993,0.012,-0.002,-0.002,0.000,0.000,0.000,0.000,0.000,0,2,0,1,7,255,1200,250,0,0,-89.462,0.875,-31.365
EX0521-092111,20,C20,prep,1029,1029,0,1033694.092,0.685,-0.676,0.195,0.187,0,0,0,0,0,0,0,0,0,0.000,0,0,0.110,0.004,0.100,-0.020,-0.040,0.014,0.993,0.011,-0.004,0.000,-0.006,0.000,0.000,0.000,0.000,0,2,0,1,7,255,1200,250,0,0,-89.462,0.875,-31.365
EX0521-092111,20,C20,prep,1055,1055,0,1033699.091,0.685,-0.676,0.195,0.187,0,0,0,0,0,0,0,0,0,0.000,0,0,0.035,0.006,-0.020,-0.020,0.020,0.014,0.994,0.011,-0.004,0.004,-0.006,0.000,0.000,0.000,0.000,0,2,0,1,7,255,1200,250,0,0,-89.462,0.875,-31.365
EX0521-092111,20,C20,prep,1055,1055,0,1033704.092,0.685,-0.676,0.195,0.187,0,0,0,0,0,0,0,0,0,0.000,0,0,0.049,0.006,-0.020,-0.020,-0.040,0.014,0.993,0.012,-0.004,0.004,-0.006,0.000,0.000,0.000,0.000,0,2,0,1,7,255,1200,250,0,0,-89.462,0.875,-31.365
EX0521-092111,20,C20,prep,1055,1055,0,1033709.091,0.685,-0.676,0.195,0.187,0,0,0,0,0,0,0,0,0,0.000,0,0,0.098,0.002,0.040,-0.080,-0.040,0.015,0.994,0.011,-0.002,0.000,0.000,0.000,0.000,0.000,0.000,0,2,0,1,7,255,1200,250,0,0,-89.462,0.875,-31.365
EX0521-092111,20,C20,prep,1055,1055,0,1033714.092,0.685,-0.676,0.195,0.187,0,0,0,0,0,0,0,0,0,0.000,0,0,0.110,0.004,0.100,-0.020,-0.040,0.015,0.995,0.011,0.004,0.000,0.000,0.000,0.000,0.000,0.000,0,2,0,1,7,255,1200,250,0,0,-89.462,0.875,-31.365
EX0521-092111,20,C20,prep,1055,1055,0,1033719.092,0.685,-0.676,0.195,0.187,0,0,0,0,0,0,0,0,0,0.000,0,0,0.069,0.006,0.040,0.040,-0.040,0.015,0.993,0.011,0.006,0.002,0.000,0.000,0.000,0.000,0.000,0,2,0,1,7,255,1200,250,0,0,-89.462,0.875,-31.365
EX0521-092111,20,C20,prep,1055,1055,0,1033724.092,0.685,-0.676,0.195,0.187,0,0,0,0,0,0,0,0,0,0.000,0,0,0.049,0.007,-0.020,-0.020,-0.040,0.015,0.994,0.011,0.006,0.004,0.000,0.000,0.000,0.000,0.000,0,2,0,1,7,255,1200,250,0,0,-89.462,0.875,-31.365
EX0521-092111,20,C20,prep,1072,1072,0,1033729.091,0.685,-0.676,0.195,0.187,0,0,0,0,0,0,0,0,0,0.000,0,0,0.049,0.006,-0.020,-0.020,-0.040,0.015,0.993,0.011,0.006,0.002,-0.006,0.000,0.000,0.000,0.000,0,2,0,1,7,255,1200,250,0,0,-89.462,0.875,-31.365
EX0521-092111,20,C20,prep,1072,1072,0,1033734.092,0.685,-0.676,0.195,0.187,0,0,0,0,0,0,0,0,0,0.000,0,0,0.049,0.006,-0.020,-0.020,-0.040,0.013,0.992,0.012,0.004,0.004,-0.006,0.000,0.000,0.000,0.000,0,2,0,1,7,255,1200,250,0,0,-89.462,0.875,-31.365
EX0521-092111,20,C20,prep,1072,1072,0,1033739.091,0.685,-0.676,0.195,0.187,0,0,0,0,0,0,0,0,0,0.000,0,0,0.035,0.006,-0.020,-0.020,0.020,0.015,0.994,0.011,0.004,0.004,-0.006,0.000,0.000,0.000,0.000,0,2,0,1,7,255,1200,250,0,0,-89.462,0.875,-31.365
EX0521-092111,20,C20,prep,1072,1072,0,1033744.092,0.685,-0.676,0.195,0.187,0,0,0,0,0,0,0,0,0,0.000,0,0,0.060,0.009,0.040,-0.020,-0.040,0.014,0.994,0.012,-0.008,0.004,0.004,0.000,0.000,0.000,0.000,0,2,0,1,7,255,1200,250,0,0,-89.462,0.875,-31.365
EX0521-092111,20,C20,prep,1088,1088,0,1033749.092,0.685,-0.676,0.195,0.187,0,0,0,0,0,0,0,0,0,0.000,0,0,0.104,0.008,-0.020,-0.020,-0.100,0.013,0.995,0.012,-0.008,0.002,0.004,0.000,0.000,0.000,0.000,0,2,0,1,7,255,1200,250,0,0,-89.462,0.875,-31.365
EX0521-092111,20,C20,prep,1088,1088,0,1033754.092,0.685,-0.676,0.195,0.187,0,0,0,0,0,0,0,0,0,0.000,0,0,0.092,0.008,0.040,-0.080,0.020,0.015,0.993,0.011,-0.008,0.002,0.004,0.000,0.000,0.000,0.000,0,2,0,1,7,255,1200,250,0,0,-89.462,0.875,-31.365
EX0521-092111,20,C20,prep,1104,1104,0,1033759.093,0.685,-0.676,0.195,0.187,0,0,0,0,0,0,0,0,0,0.000,0,0,0.060,0.008,0.040,-0.020,-0.040,0.013,0.993,0.011,-0.008,0.002,-0.006,0.000,0.000,0.000,0.000,0,2,0,1,7,255,1200,250,0,0,-89.462,0.875,-31.365
EX0521-092111,20,C20,prep,1104,1104,0,1033764.093,0.685,-0.676,0.195,0.187,0,0,0,0,0,0,0,0,0,0.000,0,0,0.049,0.006,-0.020,-0.020,0.040,0.015,0.992,0.011,0.006,0.002,-0.010,0.000,0.000,0.000,0.000,0,2,0,1,7,255,1200,250,0,0,-89.462,0.875,-31.365
EX0521-092111,20,C20,prep,1135,1135,0,1033769.092,0.685,-0.676,0.195,0.187,0,0,0,0,0,0,0,0,0,0.000,0,0,0.049,0.003,-0.020,-0.020,-0.040,0.014,0.992,0.012,-0.002,0.002,-0.014,0.000,0.000,0.000,0.000,0,2,0,1,7,255,1200,250,0,0,-89.462,0.875,-31.365
EX0521-092111,20,C20,prep,1135,1135,0,1033774.091,0.685,-0.676,0.195,0.187,0,0,0,0,0,0,0,0,0,0.000,0,0,0.092,0.007,-0.020,-0.080,-0.040,0.015,0.994,0.012,0.006,-0.004,-0.014,0.000,0.000,0.000,0.000,0,2,0,1,7,255,1200,250,0,0,-89.462,0.875,-31.365
EX0521-092111,20,C20,prep,1135,1135,0,1033779.092,0.685,-0.676,0.195,0.187,0,0,0,0,0,0,0,0,0,0.000,0,0,0.060,0.006,0.040,-0.020,-0.040,0.015,0.993,0.011,0.004,-0.004,-0.010,0.000,0.000,0.000,0.000,0,2,0,1,7,255,1200,250,0,0,-89.462,0.875,-31.365
EX0521-092111,20,C20,prep,1135,1135,0,1033784.093,0.685,-0.676,0.195,0.187,0,0,0,0,0,0,0,0,0,0.000,0,0,0.049,0.007,-0.020,-0.020,-0.040,0.015,0.993,0.011,0.006,-0.004,-0.004,0.000,0.000,0.000,0.000,0,2,0,1,7,255,1200,250,0,0,-89.462,0.875,-31.365
EX0521-092111,20,C20,prep,1135,1135,0,1033789.092,0.685,-0.676,0.195,0.187,0,0,0,0,0,0,0,0,0,0.000,0,0,0.060,0.006,0.040,-0.020,-0.040,0.015,0.994,0.011,0.006,-0.002,-0.004,0.000,0.000,0.000,0.000,0,2,0,1,7,255,1200,250,0,0,-89.462,0.875,-31.365
EX0521-092111,20,C20,prep,1135,1135,0,1033794.091,0.685,-0.676,0.195,0.187,0,0,0,0,0,0,0,0,0,0.000,0,0,0.104,0.006,-0.020,-0.020,-0.100,0.014,0.993,0.011,0.006,0.002,-0.004,0.000,0.000,0.000,0.000,0,2,0,1,7,255,1200,250,0,0,-89.462,0.875,-31.365
EX0521-092111,20,C20,prep,1152,1152,0,1033799.092,0.685,-0.676,0.195,0.187,0,0,0,0,0,0,0,0,0,0.000,0,0,0.069,0.002,0.040,0.040,0.040,0.014,0.994,0.012,0.000,0.002,0.000,0.000,0.000,0.000,0.000,0,2,0,1,7,255,1200,250,0,0,-89.462,0.875,-31.365
EX0521-092111,20,C20,prep,1152,1152,0,1033804.091,0.685,-0.676,0.195,0.187,0,0,0,0,0,0,0,0,0,0.000,0,0,0.049,0.000,-0.020,-0.020,0.040,0.015,0.995,0.011,0.000,0.000,0.000,0.000,0.000,0.000,0.000,0,2,0,1,7,255,1200,250,0,0,-89.462,0.875,-31.365
EX0521-092111,20,C20,prep,1152,1152,0,1033809.092,0.685,-0.676,0.195,0.187,0,0,0,0,0,0,0,0,0,0.000,0,0,0.049,0.006,0.040,-0.020,0.020,0.015,0.994,0.011,0.004,-0.004,0.006,0.000,0.000,0.000,0.000,0,2,0,1,7,255,1200,250,0,0,-89.462,0.875,-31.365
EX0521-092111,20,C20,prep,1152,1152,0,1033814.091,0.685,-0.676,0.195,0.187,0,0,0,0,0,0,0,0,0,0.000,0,0,0.098,0.004,0.040,-0.080,-0.040,0.014,0.994,0.010,0.004,0.000,0.006,0.000,0.000,0.000,0.000,0,2,0,1,7,255,1200,250,0,0,-89.462,0.875,-31.365
EX0521-092111,20,C20,prep,1168,1168,0,1033819.092,0.685,-0.676,0.195,0.187,0,0,0,0,0,0,0,0,0,0.000,0,0,0.060,0.004,0.040,-0.020,-0.040,0.014,0.994,0.011,0.000,0.004,0.004,0.000,0.000,0.000,0.000,0,2,0,1,7,255,1200,250,0,0,-89.462,0.875,-31.365
EX0521-092111,20,C20,prep,1168,1168,0,1033824.091,0.685,-0.676,0.195,0.187,0,0,0,0,0,0,0,0,0,0.000,0,0,0.035,0.004,-0.020,-0.020,0.020,0.015,0.993,0.011,0.000,0.004,0.000,0.000,0.000,0.000,0.000,0,2,0,1,7,255,1200,250,0,0,-89.462,0.875,-31.365
EX0521-092111,20,C20,prep,1168,1168,0,1033829.092,0.685,-0.676,0.195,0.187,0,0,0,0,0,0,0,0,0,0.000,0,0,0.060,0.006,0.040,-0.020,-0.040,0.013,0.993,0.011,-0.004,0.004,-0.004,0.000,0.000,0.000,0.000,0,2,0,1,7,255,1200,250,0,0,-89.462,0.875,-31.365
EX0521-092111,20,C20,prep,1168,1168,0,1033834.092,0.685,-0.676,0.195,0.187,0,0,0,0,0,0,0,0,0,0.000,0,0,0.069,0.010,0.040,0.040,-0.040,0.013,0.994,0.011,-0.008,0.006,-0.004,0.000,0.000,0.000,0.000,0,2,0,1,7,255,1200,250,0,0,-89.463,0.875,-31.365
EX0521-092111,20,C20,prep,1169,1169,0,1033839.092,0.685,-0.676,0.195,0.187,0,0,0,0,0,0,0,0,0,0.000,0,0,0.035,0.010,-0.020,-0.020,0.020,0.014,0.993,0.011,-0.008,0.006,-0.004,0.000,0.000,0.000,0.000,0,2,0,1,7,255,1200,250,0,0,-89.463,0.875,-31.365
EX0521-092111,20,C20,prep,1169,1169,0,1033844.092,0.685,-0.676,0.195,0.187,0,0,0,0,0,0,0,0,0,0.000,0,0,0.060,0.006,0.040,-0.020,-0.040,0.015,0.994,0.011,0.002,0.006,0.004,0.000,0.000,0.000,0.000,0,2,0,1,7,255,1200,250,0,0,-89.463,0.875,-31.365
EX0521-092111,20,C20,prep,1187,1187,0,1033849.091,0.685,-0.676,0.195,0.187,0,0,0,0,0,0,0,0,0,0.000,0,0,0.092,0.007,-0.020,0.040,0.080,0.015,0.994,0.012,0.006,-0.004,0.006,0.000,0.000,0.000,0.000,0,2,0,1,7,255,1200,250,0,0,-89.463,0.875,-31.365
EX0521-092111,20,C20,prep,1187,1187,0,1033854.092,0.685,-0.676,0.195,0.187,0,0,0,0,0,0,0,0,0,0.000,0,0,0.060,0.010,0.040,-0.020,-0.040,0.016,0.992,0.011,0.008,-0.006,0.006,0.000,0.000,0.000,0.000,0,2,0,1,7,255,1200,250,0,0,-89.463,0.875,-31.365
EX0521-092111,20,C20,prep,1199,1199,0,1033859.091,0.685,-0.676,0.195,0.187,0,0,0,0,0,0,0,0,0,0.000,0,0,0.104,0.008,-0.020,-0.020,-0.100,0.014,0.993,0.010,0.006,-0.006,-0.010,0.000,0.000,0.000,0.000,0,2,0,1,7,255,1200,250,0,0,-89.463,0.875,-31.365
EX0521-092111,20,C20,prep,1199,1199,0,1033864.092,0.685,-0.676,0.195,0.187,0,0,0,0,0,0,0,0,0,0.000,0,0,0.060,0.006,0.040,-0.020,0.040,0.015,0.994,0.011,0.006,0.002,-0.010,0.000,0.000,0.000,0.000,0,2,0,1,7,255,1200,250,0,0,-89.463,0.875,-31.365
EX0521-092111,20,C20,prep,1232,1232,0,1033869.091,0.685,-0.676,0.195,0.187,0,0,0,0,0,0,0,0,0,0.000,0,0,0.069,0.002,0.040,0.040,-0.040,0.014,0.992,0.012,0.000,0.002,-0.010,0.000,0.000,0.000,0.000,0,2,0,1,7,255,1200,250,0,0,-89.463,0.875,-31.365
EX0521-092111,20,C20,prep,1232,1232,0,1033874.092,0.685,-0.676,0.195,0.187,0,0,0,0,0,0,0,0,0,0.000,0,0,0.098,0.002,0.040,-0.080,0.040,0.014,0.995,0.011,0.000,0.002,0.006,0.000,0.000,0.000,0.000,0,2,0,1,7,255,1200,250,0,0,-89.463,0.875,-31.365
EX0521-092111,20,C20,prep,1232,1232,0,1033879.092,0.685,-0.676,0.195,0.187,0,0,0,0,0,0,0,0,0,0.000,0,0,0.049,0.006,-0.020,-0.020,0.040,0.014,0.994,0.013,-0.006,0.000,0.000,0.000,0.000,0.000,0.000,0,2,0,1,7,255,1200,250,0,0,-89.463,0.875,-31.365
EX0521-092111,20,C20,prep,1232,1232,0,1033884.093,0.685,-0.676,0.195,0.187,0,0,0,0,0,0,0,0,0,0.000,0,0,0.049,0.006,-0.020,-0.020,0.040,0.015,0.995,0.012,0.000,-0.006,0.010,0.000,0.000,0.000,0.000,0,2,0,1,7,255,1200,250,0,0,-89.463,0.875,-31.365
EX0521-092111,20,C20,prep,1232,1232,0,1033889.091,0.685,-0.676,0.195,0.187,0,0,0,0,0,0,0,0,0,0.000,0,0,0.049,0.006,-0.020,-0.020,-0.040,0.015,0.994,0.012,0.002,-0.006,0.006,0.000,0.000,0.000,0.000,0,2,0,1,7,255,1200,250,0,0,-89.463,0.875,-31.365
EX0521-092111,20,C20,prep,1232,1232,0,1033894.092,0.685,-0.676,0.195,0.187,0,0,0,0,0,0,0,0,0,0.000,0,0,0.060,0.006,0.040,-0.020,-0.040,0.013,0.993,0.011,0.002,-0.006,0.006,0.000,0.000,0.000,0.000,0,2,0,1,7,255,1200,250,0,0,-89.463,0.875,-31.365
EX0521-092111,20,C20,prep,1247,1247,0,1033899.091,0.685,-0.676,0.195,0.187,0,0,0,0,0,0,0,0,0,0.000,0,0,0.060,0.003,0.040,-0.020,0.040,0.015,0.993,0.011,0.002,-0.002,-0.004,0.000,0.000,0.000,0.000,0,2,0,1,7,255,1200,250,0,0,-89.463,0.875,-31.365
EX0521-092111,20,C20,prep,1247,1247,0,1033904.092,0.685,-0.676,0.195,0.187,0,0,0,0,0,0,0,0,0,0.000,0,0,0.049,0.006,-0.020,-0.020,-0.040,0.014,0.993,0.012,-0.006,0.000,-0.010,0.000,0.000,0.000,0.000,0,2,0,1,7,255,1200,250,0,0,-89.463,0.875,-31.365
EX0521-092111,20,C20,prep,1247,1247,0,1033909.092,0.685,-0.676,0.195,0.187,0,0,0,0,0,0,0,0,0,0.000,0,0,0.049,0.004,0.040,-0.020,0.020,0.015,0.994,0.011,0.004,-0.002,-0.010,0.000,0.000,0.000,0.000,0,2,0,1,7,255,1200,250,0,0,-89.463,0.875,-31.365
EX0521-092111,20,C20,prep,1247,1247,0,1033914.092,0.685,-0.676,0.195,0.187,0,0,0,0,0,0,0,0,0,0.000,0,0,0.104,0.006,0.100,-0.020,0.020,0.013,0.994,0.012,-0.006,0.000,0.000,0.000,0.000,0.000,0.000,0,2,0,1,7,255,1200,250,0,0,-89.463,0.875,-31.365
EX0521-092111,20,C20,prep,1264,1264,0,1033919.092,0.685,-0.676,0.195,0.187,0,0,0,0,0,0,0,0,0,0.000,0,0,0.049,0.004,-0.020,-0.020,-0.040,0.014,0.993,0.011,-0.004,0.002,0.000,0.000,0.000,0.000,0.000,0,2,0,1,7,255,1200,250,0,0,-89.463,0.875,-31.365
EX0521-092111,20,C20,prep,1264,1264,0,1033924.091,0.685,-0.676,0.195,0.187,0,0,0,0,0,0,0,0,0,0.000,0,0,0.069,0.004,0.040,0.040,-0.040,0.014,0.992,0.011,-0.004,0.002,-0.004,0.000,0.000,0.000,0.000,0,2,0,1,7,255,1200,250,0,0,-89.463,0.875,-31.365
EX0521-092111,20,C20,prep,1264,1264,0,1033929.092,0.685,-0.676,0.195,0.187,0,0,0,0,0,0,0,0,0,0.000,0,0,0.060,0.000,0.040,-0.020,-0.040,0.015,0.993,0.012,0.000,0.000,-0.008,0.000,0.000,0.000,0.000,0,2,0,1,7,255,1200,250,0,0,-89.463,0.875,-31.365
EX0521-092111,20,C20,prep,1264,1264,0,1033934.091,0.685,-0.676,0.195,0.187,0,0,0,0,0,0,0,0,0,0.000,0,0,0.060,0.006,0.040,-0.020,-0.040,0.015,0.995,0.012,0.002,-0.006,-0.008,0.000,0.000,0.000,0.000,0,2,0,1,7,255,1200,250,0,0,-89.463,0.875,-31.365
EX0521-092111,20,C20,prep,1280,1280,0,1033939.092,0.685,-0.676,0.195,0.187,0,0,0,0,0,0,0,0,0,0.000,0,0,0.110,0.006,-0.020,0.040,-0.100,0.014,0.993,0.011,0.002,-0.006,-0.008,0.000,0.000,0.000,0.000,0,2,0,1,7,255,1200,250,0,0,-89.463,0.875,-31.365
EX0521-092111,20,C20,prep,1280,1280,0,1033944.091,0.685,-0.676,0.195,0.187,0,0,0,0,0,0,0,0,0,0.000,0,0,0.049,0.006,-0.020,-0.020,-0.040,0.015,0.994,0.012,0.000,-0.006,0.000,0.000,0.000,0.000,0.000,0,2,0,1,7,255,1200,250,0,0,-89.463,0.875,-31.365
EX0521-092111,20,C20,prep,1295,1295,0,1033949.092,0.685,-0.676,0.195,0.187,0,0,0,0,0,0,0,0,0,0.000,0,0,0.035,0.003,-0.020,-0.020,0.020,0.013,0.993,0.012,-0.002,0.002,-0.008,0.000,0.000,0.000,0.000,0,2,0,1,7,255,1200,250,0,0,-89.463,0.875,-31.365
EX0521-092111,20,C20,prep,1295,1295,0,1033954.091,0.685,-0.676,0.195,0.187,0,0,0,0,0,0,0,0,0,0.000,0,0,0.049,0.006,-0.020,-0.020,-0.040,0.014,0.993,0.012,-0.006,0.000,-0.004,0.000,0.000,0.000,0.000,0,2,0,1,7,255,1200,250,0,0,-89.463,0.875,-31.365
EX0521-092111,20,C20,prep,1330,1330,0,1033959.092,0.685,-0.676,0.195,0.187,0,0,0,0,0,0,0,0,0,0.000,0,0,0.060,0.006,0.040,-0.020,-0.040,0.014,0.993,0.011,-0.006,0.002,-0.004,0.000,0.000,0.000,0.000,0,2,0,1,7,255,1200,250,0,0,-89.463,0.875,-31.365
EX0521-092111,20,C20,prep,1330,1330,0,1033964.093,0.685,-0.676,0.195,0.187,0,0,0,0,0,0,0,0,0,0.000,0,0,0.060,0.006,0.040,-0.020,-0.040,0.014,0.994,0.010,0.002,0.006,-0.004,0.000,0.000,0.000,0.000,0,2,0,1,7,255,1200,250,0,0,-89.463,0.875,-31.365
EX0521-092111,20,C20,prep,1330,1330,0,1033969.092,0.685,-0.676,0.195,0.187,0,0,0,0,0,0,0,0,0,0.000,0,0,0.060,0.007,0.040,-0.020,-0.040,0.015,0.994,0.010,0.004,0.006,0.006,0.000,0.000,0.000,0.000,0,2,0,1,7,255,1200,250,0,0,-89.463,0.875,-31.365
EX0521-092111,20,C20,prep,1330,1330,0,1033974.091,0.685,-0.676,0.195,0.187,0,0,0,0,0,0,0,0,0,0.000,0,0,0.110,0.006,-0.020,0.040,-0.100,0.014,0.994,0.011,0.004,0.004,0.006,0.000,0.000,0.000,0.000,0,2,0,1,7,255,1200,250,0,0,-89.463,0.875,-31.365
EX0521-092111,20,C20,prep,1330,1330,0,1033979.093,0.685,-0.676,0.195,0.187,0,0,0,0,0,0,0,0,0,0.000,0,0,0.060,0.009,0.040,-0.020,-0.040,0.016,0.993,0.012,0.008,0.004,0.000,0.000,0.000,0.000,0.000,0,2,0,1,7,255,1200,250,0,0,-89.463,0.875,-31.365
EX0521-092111,20,C20,prep,1330,1330,0,1033984.093,0.685,-0.676,0.195,0.187,0,0,0,0,0,0,0,0,0,0.000,0,0,0.098,0.013,0.040,-0.080,-0.040,0.016,0.994,0.012,0.008,-0.010,0.000,0.000,0.000,0.000,0.000,0,2,0,1,7,255,1200,250,0,0,-89.463,0.875,-31.365
EX0521-092111,20,C20,prep,1344,1344,0,1033989.092,0.685,-0.676,0.195,0.187,0,0,0,0,0,0,0,0,0,0.000,0,0,0.060,0.013,0.040,-0.020,-0.040,0.015,0.994,0.012,0.008,-0.010,0.000,0.000,0.000,0.000,0.000,0,2,0,1,7,255,1200,250,0,0,-89.463,0.875,-31.365
EX0521-092111,20,C20,prep,1344,1344,0,1033994.092,0.685,-0.676,0.195,0.187,0,0,0,0,0,0,0,0,0,0.000,0,0,0.035,0.012,-0.020,-0.020,0.020,0.015,0.994,0.011,0.010,-0.006,0.000,0.000,0.000,0.000,0.000,0,2,0,1,7,255,1200,250,0,0,-89.463,0.875,-31.365
EX0521-092111,20,C20,prep,1344,1344,0,1033999.091,0.685,-0.676,0.195,0.187,0,0,0,0,0,0,0,0,0,0.000,0,0,0.049,0.002,-0.020,-0.020,-0.040,0.014,0.994,0.011,0.002,0.000,0.000,0.000,0.000,0.000,0.000,0,2,0,1,7,255,1200,250,0,0,-89.463,0.875,-31.365
EX0521-092111,20,C20,prep,1344,1344,0,1034004.092,0.685,-0.676,0.195,0.187,0,0,0,0,0,0,0,0,0,0.000,0,0,0.049,0.010,-0.020,-0.020,-0.040,0.015,0.993,0.010,0.008,0.006,0.000,0.000,0.000,0.000,0.000,0,2,0,1,7,255,1200,250,0,0,-89.463,0.875,-31.365
EX0521-092111,20,C20,prep,1344,1344,0,1034009.091,0.685,-0.676,0.195,0.187,0,0,0,0,0,0,0,0,0,0.000,0,0,0.060,0.006,0.040,-0.020,-0.040,0.014,0.994,0.012,0.002,0.006,0.000,0.000,0.000,0.000,0.000,0,2,0,1,7,255,1200,250,0,0,-89.463,0.875,-31.365
EX0521-092111,20,C20,prep,1344,1344,0,1034014.092,0.685,-0.676,0.195,0.187,0,0,0,0,0,0,0,0,0,0.000,0,0,0.060,0.003,0.040,-0.020,-0.040,0.015,0.994,0.012,0.002,-0.002,0.000,0.000,0.000,0.000,0.000,0,2,0,1,7,255,1200,250,0,0,-89.463,0.875,-31.365
EX0521-092111,20,C20,prep,1360,1360,0,1034019.092,0.685,-0.676,0.195,0.187,0,0,0,0,0,0,0,0,0,0.000,0,0,0.060,0.002,0.040,-0.020,-0.040,0.014,0.994,0.011,0.000,-0.002,0.000,0.000,0.000,0.000,0.000,0,2,0,1,7,255,1200,250,0,0,-89.463,0.875,-31.365
EX0521-092111,20,C20,prep,1360,1360,0,1034024.092,0.685,-0.676,0.195,0.187,0,0,0,0,0,0,0,0,0,0.000,0,0,0.092,0.003,-0.020,-0.080,-0.040,0.015,0.994,0.011,0.002,-0.002,0.000,0.000,0.000,0.000,0.000,0,2,0,1,7,255,1200,250,0,0,-89.463,0.875,-31.365
EX0521-092111,20,C20,prep,1377,1377,0,1034029.091,0.685,-0.676,0.195,0.187,0,0,0,0,0,0,0,0,0,0.000,0,0,0.060,0.002,0.040,-0.020,-0.040,0.014,0.993,0.012,0.000,-0.002,0.000,0.000,0.000,0.000,0.000,0,2,0,1,7,255,1200,250,0,0,-89.463,0.875,-31.365
EX0521-092111,20,C20,prep,1377,1377,0,1034034.092,0.685,-0.676,0.195,0.187,0,0,0,0,0,0,0,0,0,0.000,0,0,0.049,0.006,0.040,-0.020,0.020,0.013,0.994,0.012,-0.006,-0.002,0.000,0.000,0.000,0.000,0.000,0,2,0,1,7,255,1200,250,0,0,-89.463,0.875,-31.365
EX0521-092111,20,C20,prep,1377,1377,0,1034039.091,0.685,-0.676,0.195,0.187,0,0,0,0,0,0,0,0,0,0.000,0,0,0.092,0.006,-0.020,-0.080,-0.040,0.014,0.994,0.011,-0.006,0.002,0.006,0.000,0.000,0.000,0.000,0,2,0,1,7,255,1200,250,0,0,-89.463,0.875,-31.365
EX0521-092111,20,C20,prep,1377,1377,0,1034044.092,0.685,-0.676,0.195,0.187,0,0,0,0,0,0,0,0,0,0.000,0,0,0.049,0.003,-0.020,-0.020,-0.040,0.015,0.992,0.012,0.002,0.002,0.006,0.000,0.000,0.000,0.000,0,2,0,1,7,255,1200,250,0,0,-89.463,0.875,-31.365
EX0521-092111,20,C20,prep,1395,1395,0,1034049.092,0.685,-0.676,0.195,0.187,0,0,0,0,0,0,0,0,0,0.000,0,0,0.060,0.004,0.040,-0.020,-0.040,0.015,0.994,0.011,0.002,0.004,0.000,0.000,0.000,0.000,0.000,0,2,0,1,7,255,1200,250,0,0,-89.463,0.875,-31.365
EX0521-092111,20,C20,prep,1395,1395,0,1034054.092,0.685,-0.676,0.195,0.187,0,0,0,0,0,0,0,0,0,0.000,0,0,0.049,0.004,0.040,-0.020,0.020,0.015,0.994,0.011,0.004,-0.002,0.000,0.000,0.000,0.000,0.000,0,2,0,1,7,255,1200,250,0,0,-89.463,0.875,-31.365
EX0521-092111,20,C20,prep,1408,1408,0,1034059.092,0.685,-0.676,0.195,0.187,0,0,0,0,0,0,0,0,0,0.000,0,0,0.060,0.007,0.040,-0.020,-0.040,0.015,0.995,0.011,0.006,0.004,0.000,0.000,0.000,0.000,0.000,0,2,0,1,7,255,1200,250,0,0,-89.463,0.875,-31.365
EX0521-092111,20,C20,prep,1408,1408,0,1034064.091,0.685,-0.676,0.195,0.187,0,0,0,0,0,0,0,0,0,0.000,0,0,0.049,0.007,-0.020,-0.020,-0.040,0.015,0.995,0.011,0.006,0.004,0.010,0.000,0.000,0.000,0.000,0,2,0,1,7,255,1200,250,0,0,-89.463,0.875,-31.365
EX0521-092111,20,C20,prep,1428,1428,0,1034069.092,0.685,-0.676,0.195,0.187,0,0,0,0,0,0,0,0,0,0.000,0,0,0.049,0.007,0.040,-0.020,0.020,0.014,0.993,0.010,0.006,0.004,0.010,0.000,0.000,0.000,0.000,0,2,0,1,7,255,1200,250,0,0,-89.463,0.875,-31.365
EX0521-092111,20,C20,prep,1428,1428,0,1034074.093,0.685,-0.676,0.195,0.187,0,0,0,0,0,0,0,0,0,0.000,0,0,0.060,0.007,0.040,-0.020,-0.040,0.016,0.994,0.011,0.006,0.004,0.006,0.000,0.000,0.000,0.000,0,2,0,1,7,255,1200,250,0,0,-89.463,0.875,-31.365
EX0521-092111,20,C20,prep,1428,1428,0,1034079.093,0.685,-0.676,0.195,0.187,0,0,0,0,0,0,0,0,0,0.000,0,0,0.060,0.013,0.040,-0.020,-0.040,0.016,0.994,0.011,0.012,-0.006,0.006,0.000,0.000,0.000,0.000,0,2,0,1,7,255,1200,250,0,0,-89.463,0.875,-31.365
EX0521-092111,20,C20,prep,1428,1428,0,1034084.093,0.685,-0.676,0.195,0.187,0,0,0,0,0,0,0,0,0,0.000,0,0,0.060,0.013,0.040,-0.020,-0.040,0.014,0.994,0.012,0.012,-0.006,0.006,0.000,0.000,0.000,0.000,0,2,0,1,7,255,1200,250,0,0,-89.463,0.875,-31.365
EX0521-092111,20,C20,prep,1429,1429,0,1034089.092,0.685,-0.676,0.195,0.187,0,0,0,0,0,0,0,0,0,0.000,0,0,0.060,0.008,0.040,-0.020,-0.040,0.014,0.994,0.010,0.006,-0.006,0.006,0.000,0.000,0.000,0.000,0,2,0,1,7,255,1200,250,0,0,-89.463,0.875,-31.365
EX0521-092111,20,C20,prep,1429,1429,0,1034094.091,0.685,-0.676,0.195,0.187,0,0,0,0,0,0,0,0,0,0.000,0,0,0.049,0.006,0.040,-0.020,0.020,0.014,0.994,0.011,-0.004,0.004,0.006,0.000,0.000,0.000,0.000,0,2,0,1,7,255,1200,250,0,0,-89.463,0.875,-31.365
EX0521-092111,20,C20,prep,1439,1439,0,1034099.092,0.685,-0.676,0.195,0.187,0,0,0,0,0,0,0,0,0,0.000,0,0,0.060,0.006,0.040,-0.020,-0.040,0.014,0.993,0.012,-0.004,0.004,0.006,0.000,0.000,0.000,0.000,0,2,0,1,7,255,1200,250,0,0,-89.463,0.875,-31.365
EX0521-092111,20,C20,prep,1439,1439,0,1034104.091,0.685,-0.676,0.195,0.187,0,0,0,0,0,0,0,0,0,0.000,0,0,0.060,0.004,0.040,-0.020,-0.040,0.015,0.993,0.012,-0.004,-0.002,-0.004,0.000,0.000,0.000,0.000,0,2,0,1,7,255,1200,250,0,0,-89.463,0.875,-31.365
EX0521-092111,20,C20,prep,1439,1439,0,1034109.092,0.685,-0.676,0.195,0.187,0,0,0,0,0,0,0,0,0,0.000,0,0,0.092,0.006,0.040,-0.080,0.020,0.014,0.994,0.012,-0.004,-0.004,-0.004,0.000,0.000,0.000,0.000,0,2,0,1,7,255,1200,250,0,0,-89.463,0.875,-31.365
EX0521-092111,20,C20,prep,1439,1439,0,1034114.091,0.685,-0.676,0.195,0.187,0,0,0,0,0,0,0,0,0,0.000,0,0,0.049,0.004,0.040,-0.020,0.020,0.014,0.993,0.011,0.000,-0.004,-0.004,0.000,0.000,0.000,0.000,0,2,0,1,7,255,1200,250,0,0,-89.463,0.875,-31.365
EX0521-092111,20,C20,prep,1459,1459,0,1034119.093,0.685,-0.676,0.195,0.187,0,0,0,0,0,0,0,0,0,0.000,0,0,0.049,0.006,0.040,-0.020,0.020,0.014,0.994,0.011,0.002,0.006,0.000,0.000,0.000,0.000,0.000,0,2,0,1,7,255,1200,250,0,0,-89.463,0.875,-31.365
EX0521-092111,20,C20,prep,1459,1459,0,1034124.092,0.685,-0.676,0.195,0.187,0,0,0,0,0,0,0,0,0,0.000,0,0,0.049,0.006,0.040,-0.020,0.020,0.015,0.994,0.011,0.002,0.006,0.000,0.000,0.000,0.000,0.000,0,2,0,1,7,255,1200,250,0,0,-89.463,0.875,-31.365
EX0521-092111,20,C20,prep,1472,1472,0,1034129.091,0.685,-0.676,0.195,0.187,0,0,0,0,0,0,0,0,0,0.000,0,0,0.049,0.003,-0.020,-0.020,-0.040,0.014,0.994,0.013,0.002,0.002,0.006,0.000,0.000,0.000,0.000,0,2,0,1,7,255,1200,250,0,0,-89.463,0.875,-31.365
EX0521-092111,20,C20,prep,1472,1472,0,1034134.092,0.685,-0.676,0.195,0.187,0,0,0,0,0,0,0,0,0,0.000,0,0,0.060,0.004,0.040,-0.020,-0.040,0.014,0.993,0.012,-0.004,-0.002,0.006,0.000,0.000,0.000,0.000,0,2,0,1,7,255,1200,250,0,0,-89.463,0.875,-31.365
EX0521-092111,20,C20,prep,1472,1472,0,1034139.091,0.685,-0.676,0.195,0.187,0,0,0,0,0,0,0,0,0,0.000,0,0,0.049,0.004,0.040,-0.020,0.020,0.015,0.994,0.011,-0.004,-0.002,0.000,0.000,0.000,0.000,0.000,0,2,0,1,7,255,1200,250,0,0,-89.463,0.875,-31.365
EX0521-092111,20,C20,prep,1472,1472,0,1034144.092,0.685,-0.676,0.195,0.187,0,0,0,0,0,0,0,0,0,0.000,0,0,0.060,0.002,0.040,-0.020,-0.040,0.014,0.993,0.011,0.000,0.002,-0.004,0.000,0.000,0.000,0.000,0,2,0,1,7,255,1200,250,0,0,-89.463,0.875,-31.365
EX0521-092111,20,C20,prep,1494,1494,0,1034149.091,0.685,-0.676,0.195,0.187,0,0,0,0,0,0,0,0,0,0.000,0,0,0.098,0.004,0.040,-0.080,-0.040,0.014,0.993,0.010,0.004,0.002,-0.010,0.000,0.000,0.000,0.000,0,2,0,1,7,255,1200,250,0,0,-89.463,0.875,-31.365
EX0521-092111,20,C20,prep,1494,1494,0,1034154.092,0.685,-0.676,0.195,0.187,0,0,0,0,0,0,0,0,0,0.000,0,0,0.049,0.004,-0.020,-0.020,-0.040,0.014,0.993,0.011,0.000,0.004,-0.010,0.000,0.000,0.000,0.000,0,2,0,1,7,255,1200,250,0,0,-89.463,0.875,-31.365
EX0521-092111,20,C20,prep,1494,1494,0,1034159.093,0.685,-0.676,0.195,0.187,0,0,0,0,0,0,0,0,0,0.000,0,0,0.092,0.006,-0.020,-0.080,-0.040,0.014,0.993,0.012,-0.004,0.004,-0.004,0.000,0.000,0.000,0.000,0,2,0,1,7,255,1200,250,0,0,-89.463,0.875,-31.365
EX0521-092111,20,C20,prep,1494,1494,0,1034164.093,0.685,-0.676,0.195,0.187,0,0,0,0,0,0,0,0,0,0.000,0,0,0.060,0.006,0.040,-0.020,-0.040,0.014,0.994,0.011,-0.004,0.004,-0.004,0.000,0.000,0.000,0.000,0,2,0,1,7,255,1200,250,0,0,-89.463,0.875,-31.365
EX0521-092111,20,C20,prep,1526,1526,0,1034169.092,0.685,-0.676,0.195,0.187,0,0,0,0,0,0,0,0,0,0.000,0,0,0.060,0.006,-0.020,0.040,-0.040,0.014,0.992,0.010,-0.004,0.004,-0.004,0.000,0.000,0.000,0.000,0,2,0,1,7,255,1200,250,0,0,-89.463,0.875,-31.365
EX0521-092111,20,C20,prep,1526,1526,0,1034174.092,0.685,-0.676,0.195,0.187,0,0,0,0,0,0,0,0,0,0.000,0,0,0.060,0.004,0.040,-0.020,-0.040,0.015,0.993,0.011,0.000,0.004,-0.004,0.000,0.000,0.000,0.000,0,2,0,1,7,255,1200,250,0,0,-89.463,0.875,-31.365
EX0521-092111,20,C20,prep,1527,1527,0,1034179.092,0.685,-0.676,0.195,0.187,0,0,0,0,0,0,0,0,0,0.000,0,0,0.069,0.000,0.040,0.040,-0.040,0.014,0.994,0.012,0.000,0.000,-0.004,0.000,0.000,0.000,0.000,0,2,0,1,7,255,1200,250,0,0,-89.463,0.875,-31.365
EX0521-092111,20,C20,prep,1527,1527,0,1034184.093,0.685,-0.676,0.195,0.187,0,0,0,0,0,0,0,0,0,0.000,0,0,0.060,0.002,0.040,-0.020,-0.040,0.015,0.995,0.012,0.000,-0.002,0.006,0.000,0.000,0.000,0.000,0,2,0,1,7,255,1200,250,0,0,-89.463,0.875,-31.365
EX0521-092111,20,C20,prep,1527,1527,0,1034189.092,0.685,-0.676,0.195,0.187,0,0,0,0,0,0,0,0,0,0.000,0,0,0.035,0.000,-0.020,-0.020,0.020,0.014,0.995,0.010,0.000,0.000,0.010,0.000,0.000,0.000,0.000,0,2,0,1,7,255,1200,250,0,0,-89.463,0.875,-31.365
EX0521-092111,20,C20,prep,1527,1527,0,1034194.091,0.685,-0.676,0.195,0.187,0,0,0,0,0,0,0,0,0,0.000,0,0,0.110,0.004,0.040,-0.020,-0.100,0.015,0.993,0.011,0.004,0.000,0.010,0.000,0.000,0.000,0.000,0,2,0,1,7,255,1200,250,0,0,-89.463,0.875,-31.365
EX0521-092111,20,C20,prep,1535,1535,0,1034199.092,0.685,-0.676,0.195,0.187,0,0,0,0,0,0,0,0,0,0.000,0,0,0.085,0.004,-0.020,-0.080,0.020,0.015,0.994,0.011,0.004,0.000,0.000,0.000,0.000,0.000,0.000,0,2,0,1,7,255,1200,250,0,0,-89.463,0.875,-31.365
EX0521-092111,20,C20,prep,1535,1535,0,1034204.091,0.685,-0.676,0.195,0.187,0,0,0,0,0,0,0,0,0,0.000,0,0,0.049,0.004,-0.020,-0.020,-0.040,0.015,0.994,0.012,0.004,-0.002,0.000,0.000,0.000,0.000,0.000,0,2,0,1,7,255,1200,250,0,0,-89.463,0.875,-31.365
EX0521-092111,20,C20,prep,1561,1561,0,1034209.092,0.685,-0.676,0.195,0.187,0,0,0,0,0,0,0,0,0,0.000,0,0,0.049,0.009,-0.020,-0.020,-0.040,0.015,0.993,0.012,0.004,-0.008,0.000,0.000,0.000,0.000,0.000,0,2,0,1,7,255,1200,250,0,0,-89.463,0.875,-31.365
EX0521-092111,20,C20,prep,1561,1561,0,1034214.091,0.685,-0.676,0.195,0.187,0,0,0,0,0,0,0,0,0,0.000,0,0,0.049,0.008,-0.020,-0.020,-0.040,0.014,0.994,0.011,-0.002,-0.008,0.000,0.000,0.000,0.000,0.000,0,2,0,1,7,255,1200,250,0,0,-89.463,0.875,-31.365
EX0521-092111,20,C20,prep,1561,1561,0,1034219.092,0.685,-0.676,0.195,0.187,0,0,0,0,0,0,0,0,0,0.000,0,0,0.049,0.006,-0.020,-0.020,-0.040,0.014,0.993,0.010,0.004,0.004,-0.004,0.000,0.000,0.000,0.000,0,2,0,1,7,255,1200,250,0,0,-89.463,0.875,-31.365
EX0521-092111,20,C20,prep,1561,1561,0,1034224.091,0.685,-0.676,0.195,0.187,0,0,0,0,0,0,0,0,0,0.000,0,0,0.049,0.006,-0.020,-0.020,-0.040,0.015,0.993,0.011,0.004,0.004,-0.004,0.000,0.000,0.000,0.000,0,2,0,1,7,255,1200,250,0,0,-89.463,0.875,-31.365
EX0521-092111,20,C20,prep,1561,1561,0,1034229.092,0.685,-0.676,0.195,0.187,0,0,0,0,0,0,0,0,0,0.000,0,0,0.049,0.009,-0.020,-0.020,-0.040,0.014,0.993,0.011,0.004,0.008,-0.008,0.000,0.000,0.000,0.000,0,2,0,1,7,255,1200,250,0,0,-89.463,0.875,-31.365
EX0521-092111,20,C20,prep,1561,1561,0,1034234.091,0.685,-0.676,0.195,0.187,0,0,0,0,0,0,0,0,0,0.000,0,0,0.060,0.006,0.040,-0.020,-0.040,0.015,0.993,0.011,0.006,0.002,-0.008,0.000,0.000,0.000,0.000,0,2,0,1,7,255,1200,250,0,0,-89.463,0.875,-31.365
EX0521-092111,20,C20,prep,1594,1594,0,1034239.092,0.685,-0.676,0.195,0.187,0,0,0,0,0,0,0,0,0,0.000,0,0,0.085,0.004,-0.020,-0.080,0.020,0.015,0.993,0.012,0.000,-0.004,-0.004,0.000,0.000,0.000,0.000,0,2,0,1,7,255,1200,250,0,0,-89.463,0.875,-31.365
EX0521-092111,20,C20,prep,1594,1594,0,1034244.091,0.685,-0.676,0.195,0.187,0,0,0,0,0,0,0,0,0,0.000,0,0,0.049,0.009,0.040,-0.020,0.020,0.015,0.993,0.011,0.008,-0.004,-0.004,0.000,0.000,0.000,0.000,0,2,0,1,7,255,1200,250,0,0,-89.464,0.875,-31.365
EX0521-092111,20,C20,prep,1594,1594,0,1034249.092,0.685,-0.676,0.195,0.187,0,0,0,0,0,0,0,0,0,0.000,0,0,0.060,0.004,0.040,-0.020,-0.040,0.014,0.995,0.011,0.000,-0.004,-0.004,0.000,0.000,0.000,0.000,0,2,0,1,7,255,1200,250,0,0,-89.464,0.875,-31.365
EX0521-092111,20,C20,prep,1594,1594,0,1034254.092,0.685,-0.676,0.195,0.187,0,0,0,0,0,0,0,0,0,0.000,0,0,0.060,0.004,0.040,-0.020,-0.040,0.014,0.993,0.011,0.002,0.004,-0.004,0.000,0.000,0.000,0.000,0,2,0,1,7,255,1200,250,0,0,-89.464,0.875,-31.365
EX0521-092111,20,C20,prep,1594,1594,0,1034259.091,0.685,-0.676,0.195,0.187,0,0,0,0,0,0,0,0,0,0.000,0,0,0.092,0.004,-0.020,-0.080,-0.040,0.014,0.993,0.011,-0.002,0.004,-0.004,0.000,0.000,0.000,0.000,0,2,0,1,7,255,1200,250,0,0,-89.464,0.875,-31.365
EX0521-092111,20,C20,prep,1594,1594,0,1034264.092,0.685,-0.676,0.195,0.187,0,0,0,0,0,0,0,0,0,0.000,0,0,0.110,0.002,0.040,-0.020,-0.100,0.015,0.994,0.012,-0.002,0.000,-0.004,0.000,0.000,0.000,0.000,0,2,0,1,7,255,1200,250,0,0,-89.464,0.875,-31.365
EX0521-092111,20,C20,prep,1631,1631,0,1034269.091,0.685,-0.676,0.195,0.187,0,0,0,0,0,0,0,0,0,0.000,0,0,0.060,0.002,0.040,-0.020,-0.040,0.014,0.995,0.010,-0.002,0.000,0.002,0.000,0.000,0.000,0.000,0,2,0,1,7,255,1200,250,0,0,-89.464,0.875,-31.365
EX0521-092111,20,C20,prep,1631,1631,0,1034274.092,0.685,-0.676,0.195,0.187,0,0,0,0,0,0,0,0,0,0.000,0,0,0.035,0.004,-0.020,-0.020,0.020,0.015,0.993,0.011,0.004,0.000,0.002,0.000,0.000,0.000,0.000,0,2,0,1,7,255,1200,250,0,0,-89.464,0.875,-31.365
EX0521-092111,20,C20,prep,1631,1631,0,1034279.092,0.685,-0.676,0.195,0.187,0,0,0,0,0,0,0,0,0,0.000,0,0,0.060,0.004,0.040,-0.020,-0.040,0.014,0.995,0.012,0.004,0.000,0.010,0.000,0.000,0.000,0.000,0,2,0,1,7,255,1200,250,0,0,-89.464,0.875,-31.365
EX0521-092111,20,C20,prep,1631,1631,0,1034284.093,0.685,-0.676,0.195,0.187,0,0,0,0,0,0,0,0,0,0.000,0,0,0.060,0.006,0.040,-0.020,-0.040,0.015,0.993,0.011,0.006,0.000,-0.004,0.000,0.000,0.000,0.000,0,2,0,1,7,255,1200,250,0,0,-89.464,0.875,-31.365
EX0521-092111,20,C20,prep,1631,1631,0,1034289.091,0.685,-0.676,0.195,0.187,0,0,0,0,0,0,0,0,0,0.000,0,0,0.060,0.004,0.040,-0.020,-0.040,0.014,0.993,0.012,-0.004,0.000,-0.004,0.000,0.000,0.000,0.000,0,2,0,1,7,255,1200,250,0,0,-89.464,0.875,-31.365
EX0521-092111,20,C20,prep,1631,1631,0,1034294.092,0.685,-0.676,0.195,0.187,0,0,0,0,0,0,0,0,0,0.000,0,0,0.049,0.004,-0.020,-0.020,-0.040,0.014,0.994,0.012,-0.004,-0.002,-0.004,0.000,0.000,0.000,0.000,0,2,0,1,7,255,1200,250,0,0,-89.464,0.875,-31.365
EX0521-092111,20,C20,prep,1648,1648,0,1034299.092,0.685,-0.676,0.195,0.187,0,0,0,0,0,0,0,0,0,0.000,0,0,0.092,0.006,0.040,-0.080,0.020,0.015,0.994,0.012,-0.004,-0.004,0.002,0.000,0.000,0.000,0.000,0,2,0,1,7,255,1200,250,0,0,-89.464,0.875,-31.365
EX0521-092111,20,C20,prep,1648,1648,0,1034304.092,0.685,-0.676,0.195,0.187,0,0,0,0,0,0,0,0,0,0.000,0,0,0.060,0.003,0.040,-0.020,-0.040,0.014,0.993,0.011,-0.002,-0.002,0.002,0.000,0.000,0.000,0.000,0,2,0,1,7,255,1200,250,0,0,-89.464,0.875,-31.365
EX0521-092111,20,C20,prep,1648,1648,0,1034309.092,0.685,-0.676,0.195,0.187,0,0,0,0,0,0,0,0,0,0.000,0,0,0.049,0.010,-0.020,-0.020,-0.040,0.015,0.993,0.012,-0.002,-0.010,-0.004,0.000,0.000,0.000,0.000,0,2,0,1,7,255,1200,250,0,0,-89.464,0.875,-31.365
EX0521-092111,20,C20,prep,1648,1648,0,1034314.092,0.685,-0.676,0.195,0.187,0,0,0,0,0,0,0,0,0,0.000,0,0,0.060,0.003,0.040,-0.020,-0.040,0.014,0.994,0.012,-0.002,-0.002,-0.004,0.000,0.000,0.000,0.000,0,2,0,1,7,255,1200,250,0,0,-89.464,0.875,-31.365
EX0521-092111,20,C20,prep,1663,1663,0,1034319.092,0.685,-0.676,0.195,0.187,0,0,0,0,0,0,0,0,0,0.000,0,0,0.049,0.004,-0.020,-0.020,-0.040,0.013,0.994,0.011,-0.004,-0.002,0.006,0.000,0.000,0.000,0.000,0,2,0,1,7,255,1200,250,0,0,-89.464,0.875,-31.365
EX0521-092111,20,C20,prep,1663,1663,0,1034324.091,0.685,-0.676,0.195,0.187,0,0,0,0,0,0,0,0,0,0.000,0,0,0.060,0.004,0.040,-0.020,-0.040,0.015,0.994,0.012,-0.004,-0.002,0.006,0.000,0.000,0.000,0.000,0,2,0,1,7,255,1200,250,0,0,-89.464,0.876,-31.365
EX0521-092111,20,C20,prep,1663,1663,0,1034329.092,0.685,-0.676,0.195,0.187,0,0,0,0,0,0,0,0,0,0.000,0,0,0.035,0.002,-0.020,-0.020,0.020,0.015,0.992,0.011,0.000,-0.002,0.006,0.000,0.000,0.000,0.000,0,2,0,1,7,255,1200,250,0,0,-89.464,0.876,-31.365
EX0521-092111,20,C20,prep,1663,1663,0,1034334.091,0.685,-0.676,0.195,0.187,0,0,0,0,0,0,0,0,0,0.000,0,0,0.060,0.006,0.040,-0.020,-0.040,0.015,0.994,0.011,0.004,-0.004,0.002,0.000,0.000,0.000,0.000,0,2,0,1,7,255,1200,250,0,0,-89.464,0.876,-31.365
EX0521-092111,20,C20,prep,1680,1680,0,1034339.092,0.685,-0.676,0.195,0.187,0,0,0,0,0,0,0,0,0,0.000,0,0,0.049,0.006,0.040,-0.020,0.020,0.015,0.993,0.011,0.006,-0.002,-0.004,0.000,0.000,0.000,0.000,0,2,0,1,7,255,1200,250,0,0,-89.464,0.876,-31.365
EX0521-092111,20,C20,prep,1680,1680,0,1034344.091,0.685,-0.676,0.195,0.187,0,0,0,0,0,0,0,0,0,0.000,0,0,0.049,0.008,0.040,-0.020,0.020,0.015,0.994,0.011,0.008,0.000,0.002,0.000,0.000,0.000,0.000,0,2,0,1,7,255,1200,250,0,0,-89.464,0.876,-31.365
EX0521-092111,20,C20,prep,1696,1696,0,1034349.092,0.685,-0.676,0.195,0.187,0,0,0,0,0,0,0,0,0,0.000,0,0,0.049,0.006,-0.020,-0.020,-0.040,0.013,0.994,0.011,0.006,0.002,0.000,0.000,0.000,0.000,0.000,0,2,0,1,7,255,1200,250,0,0,-89.464,0.876,-31.365
EX0521-092111,20,C20,prep,1696,1696,0,1034354.091,0.685,-0.676,0.195,0.187,0,0,0,0,0,0,0,0,0,0.000,0,0,0.049,0.002,0.040,-0.020,0.020,0.015,0.994,0.012,-0.002,0.000,0.002,0.000,0.000,0.000,0.000,0,2,0,1,7,255,1200,250,0,0,-89.464,0.876,-31.365
EX0521-092111,20,C20,prep,1696,1696,0,1034359.093,0.685,-0.676,0.195,0.187,0,0,0,0,0,0,0,0,0,0.000,0,0,0.060,0.006,-0.020,0.040,0.040,0.014,0.995,0.011,-0.002,0.006,0.002,0.000,0.000,0.000,0.000,0,2,0,1,7,255,1200,250,0,0,-89.464,0.876,-31.365
EX0521-092111,20,C20,prep,1696,1696,0,1034364.093,0.685,-0.676,0.195,0.187,0,0,0,0,0,0,0,0,0,0.000,0,0,0.098,0.002,0.040,-0.080,-0.040,0.014,0.993,0.012,-0.002,0.000,0.002,0.000,0.000,0.000,0.000,0,2,0,1,7,255,1200,250,0,0,-89.464,0.876,-31.365
EX0521-092111,20,C20,prep,1731,1731,0,1034369.092,0.685,-0.676,0.195,0.187,0,0,0,0,0,0,0,0,0,0.000,0,0,0.060,0.003,0.040,-0.020,-0.040,0.014,0.993,0.011,-0.002,0.002,-0.004,0.000,0.000,0.000,0.000,0,2,0,1,7,255,1200,250,0,0,-89.464,0.876,-31.365
EX0521-092111,20,C20,prep,1731,1731,0,1034374.092,0.685,-0.676,0.195,0.187,0,0,0,0,0,0,0,0,0,0.000,0,0,0.049,0.008,-0.020,-0.020,-0.040,0.013,0.993,0.011,-0.008,0.002,-0.004,0.000,0.000,0.000,0.000,0,2,0,1,7,255,1200,250,0,0,-89.464,0.876,-31.365
EX0521-092111,20,C20,prep,1743,1743,0,1034379.093,0.685,-0.676,0.195,0.187,0,0,0,0,0,0,0,0,0,0.000,0,0,0.092,0.006,-0.020,-0.080,-0.040,0.014,0.994,0.011,-0.002,0.006,-0.004,0.000,0.000,0.000,0.000,0,2,0,1,7,255,1200,250,0,0,-89.464,0.876,-31.365
