experiment_id,condition_order_index,condition_id,condition_phase,condition_phase_elapsed_ms,condition_elapsed_ms,is_stimulation_on,t_ms,R_q0,R_q1,R_q2,R_q3,R_heel1,R_mid1,R_fore1,R_heel2,R_fore3,R_mid2,R_fore4,R_fore2,R_cadence,R_speed,R_steps,R_zupt,R_gyroNorm,R_accH,R_gyro_x,R_gyro_y,R_gyro_z,R_acc_x,R_acc_y,R_acc_z,R_nav_ax,R_nav_ay,R_nav_az,R_stepVel,R_stepVelj,R_stepDispRaw,R_stepDispZUPT,R_gaitEvent,R_motorMode,R_motorActive,R_motorAlignment,R_motorRegionMask,R_motorAmplitude,R_motorIntervalMs,R_motorDurationMs,R_motorPhaseMs,R_motorCycleMs,R_roll,R_pitch,R_yaw
EX0521-092111,3,C26,prep,0,0,0,378614.091,0.685,-0.678,0.192,0.187,0,0,0,0,0,0,0,0,0,0.000,0,0,0.190,0.008,0.180,0.000,-0.060,0.015,0.991,0.012,0.000,0.008,0.036,0.000,0.000,0.000,0.000,0,2,0,1,7,255,960,250,0,0,-89.579,0.528,-31.066
EX0521-092111,3,C26,prep,70,70,0,378619.092,0.685,-0.678,0.192,0.187,0,0,0,0,0,0,0,0,0,0.000,0,0,0.825,0.008,-0.720,-0.180,0.360,0.016,0.991,0.012,0.000,-0.008,-0.030,0.000,0.000,0.000,0.000,0,2,0,1,7,255,960,250,0,0,-89.576,0.527,-31.066
EX0521-092111,3,C26,prep,70,70,0,378624.092,0.685,-0.678,0.192,0.187,0,0,0,0,0,0,0,0,0,0.000,0,0,0.505,0.008,0.440,-0.060,-0.240,0.012,1.001,0.011,0.000,-0.008,-0.030,0.000,0.000,0.000,0.000,0,2,0,1,7,255,960,250,0,0,-89.577,0.527,-31.066
EX0521-092111,3,C26,prep,70,70,0,378629.092,0.685,-0.678,0.192,0.187,0,0,0,0,0,0,0,0,0,0.000,0,0,0.609,0.009,0.560,0.000,-0.240,0.016,0.985,0.010,0.008,0.004,-0.030,0.000,0.000,0.000,0.000,0,2,0,1,7,255,960,250,0,0,-89.577,0.527,-31.066
EX0521-092111,3,C26,prep,71,71,0,378634.093,0.685,-0.678,0.192,0.187,0,0,0,0,0,0,0,0,0,0.000,0,0,1.328,0.010,-1.160,-0.240,0.600,0.014,0.998,0.010,0.002,0.010,0.032,0.000,0.000,0.000,0.000,0,2,0,1,7,255,960,250,0,0,-89.572,0.529,-31.066
EX0521-092111,3,C26,prep,71,71,0,378639.092,0.685,-0.678,0.192,0.187,0,0,0,0,0,0,0,0,0,0.000,0,0,1.489,0.004,1.280,0.180,-0.740,0.013,1.001,0.012,0.002,0.004,0.032,0.000,0.000,0.000,0.000,0,2,0,1,7,255,960,250,0,0,-89.579,0.525,-31.066
EX0521-092111,3,C26,prep,71,71,0,378644.091,0.685,-0.678,0.192,0.187,0,0,0,0,0,0,0,0,0,0.000,0,0,0.754,0.004,-0.600,-0.180,0.420,0.018,0.979,0.013,0.002,0.004,0.032,0.000,0.000,0.000,0.000,0,2,0,1,7,255,960,250,0,0,-89.571,0.526,-31.066
EX0521-092111,3,C26,prep,71,71,0,378649.092,0.685,-0.678,0.192,0.187,0,0,0,0,0,0,0,0,0,0.000,0,0,0.147,0.016,-0.120,-0.060,-0.060,0.011,1.014,0.009,-0.016,0.004,0.064,0.000,0.000,0.000,0.000,0,2,0,1,7,255,960,250,0,0,-89.572,0.525,-31.066
EX0521-092111,3,C26,prep,71,71,0,378654.091,0.685,-0.678,0.192,0.187,0,0,0,0,0,0,0,0,0,0.000,0,0,1.208,0.025,1.100,0.000,-0.500,0.016,0.978,0.013,0.008,-0.024,-0.154,0.000,0.000,0.000,0.000,0,2,0,1,7,255,960,250,0,0,-89.576,0.525,-31.066
EX0521-092111,3,C26,prep,72,72,0,378659.092,0.685,-0.678,0.192,0.187,0,0,0,0,0,0,0,0,0,0.000,0,0,1.730,0.036,-1.580,-0.180,0.680,0.012,1.004,0.008,0.000,0.036,0.094,0.000,0.000,0.000,0.000,0,2,0,1,7,255,960,250,0,0,-89.569,0.527,-31.066
EX0521-092111,3,C26,prep,72,72,0,378664.092,0.685,-0.678,0.192,0.187,0,0,0,0,0,0,0,0,0,0.000,0,0,1.844,0.004,1.660,-0.060,-0.800,0.015,0.995,0.011,0.004,0.002,0.008,0.000,0.000,0.000,0.000,0,2,0,1,7,255,960,250,0,0,-89.578,0.523,-31.066
EX0521-092111,3,C26,prep,72,72,0,378669.092,0.685,-0.678,0.192,0.187,0,0,0,0,0,0,0,0,0,0.000,0,0,1.556,0.004,-1.400,0.000,0.680,0.016,0.983,0.010,0.004,0.002,0.008,0.000,0.000,0.000,0.000,0,2,0,1,7,255,960,250,0,0,-89.571,0.526,-31.066
EX0521-092111,3,C26,prep,72,72,0,378674.091,0.685,-0.678,0.192,0.187,0,0,0,0,0,0,0,0,0,0.000,0,0,0.484,0.004,0.380,-0.180,-0.240,0.013,1.007,0.012,0.004,0.002,0.008,0.000,0.000,0.000,0.000,0,2,0,1,7,255,960,250,0,0,-89.572,0.525,-31.066
EX0521-092111,3,C26,prep,72,72,0,378679.092,0.685,-0.678,0.192,0.187,0,0,0,0,0,0,0,0,0,0.000,0,0,0.676,0.008,0.560,0.120,-0.360,0.016,0.983,0.012,0.008,0.000,-0.106,0.000,0.000,0.000,0.000,0,2,0,1,7,255,960,250,0,0,-89.572,0.526,-31.066
EX0521-092111,3,C26,prep,72,72,0,378684.091,0.685,-0.678,0.192,0.187,0,0,0,0,0,0,0,0,0,0.000,0,0,1.346,0.003,-1.220,-0.180,0.540,0.014,1.000,0.010,0.002,0.002,0.056,0.000,0.000,0.000,0.000,0,2,0,1,7,255,960,250,0,0,-89.567,0.525,-31.066
EX0521-092111,3,C26,prep,86,86,0,378689.092,0.685,-0.678,0.192,0.187,0,0,0,0,0,0,0,0,0,0.000,0,0,0.832,0.003,0.740,-0.120,-0.360,0.015,0.996,0.011,0.002,-0.002,0.016,0.000,0.000,0.000,0.000,0,2,0,1,7,255,960,250,0,0,-89.571,0.524,-31.066
EX0521-092111,3,C26,prep,86,86,0,378694.091,0.685,-0.678,0.192,0.187,0,0,0,0,0,0,0,0,0,0.000,0,0,0.255,0.003,0.180,0.180,0.000,0.015,0.983,0.012,0.002,-0.002,0.016,0.000,0.000,0.000,0.000,0,2,0,1,7,255,960,250,0,0,-89.571,0.525,-31.066
EX0521-092111,3,C26,prep,86,86,0,378699.092,0.685,-0.678,0.192,0.187,0,0,0,0,0,0,0,0,0,0.000,0,0,0.441,0.002,-0.420,-0.120,0.060,0.011,1.009,0.007,0.000,-0.002,0.016,0.000,0.000,0.000,0.000,0,2,0,1,7,255,960,250,0,0,-89.572,0.524,-31.066
EX0521-092111,3,C26,prep,86,86,0,378704.091,0.685,-0.678,0.192,0.187,0,0,0,0,0,0,0,0,0,0.000,0,0,0.255,0.009,-0.180,-0.180,0.000,0.017,0.981,0.016,-0.004,-0.008,-0.106,0.000,0.000,0.000,0.000,0,2,0,1,7,255,960,250,0,0,-89.565,0.525,-31.066
EX0521-092111,3,C26,prep,134,134,0,378709.092,0.685,-0.678,0.192,0.187,0,0,0,0,0,0,0,0,0,0.000,0,0,1.132,0.018,1.100,0.120,-0.240,0.016,0.995,0.008,-0.004,0.018,0.008,0.000,0.000,0.000,0.000,0,2,0,1,7,255,960,250,0,0,-89.571,0.525,-31.066
EX0521-092111,3,C26,prep,134,134,0,378714.092,0.685,-0.678,0.192,0.187,0,0,0,0,0,0,0,0,0,0.000,0,0,0.782,0.019,-0.780,0.060,0.000,0.012,1.005,0.006,0.006,0.018,0.008,0.000,0.000,0.000,0.000,0,2,0,1,7,255,960,250,0,0,-89.567,0.524,-31.066
EX0521-092111,3,C26,prep,134,134,0,378719.092,0.685,-0.678,0.192,0.187,0,0,0,0,0,0,0,0,0,0.000,0,0,1.272,0.019,-1.100,-0.420,0.480,0.016,0.982,0.020,0.006,0.018,0.008,0.000,0.000,0.000,0.000,0,2,0,1,7,255,960,250,0,0,-89.559,0.524,-31.066
EX0521-092111,3,C26,prep,134,134,0,378724.092,0.685,-0.678,0.192,0.187,0,0,0,0,0,0,0,0,0,0.000,0,0,3.330,0.004,3.180,0.120,-0.980,0.015,0.996,0.011,0.004,-0.002,0.018,0.000,0.000,0.000,0.000,0,2,0,1,7,255,960,250,0,0,-89.575,0.518,-31.066
EX0521-092111,3,C26,prep,134,134,0,378729.092,0.685,-0.678,0.192,0.187,0,0,0,0,0,0,0,0,0,0.000,0,0,1.325,0.004,-1.280,0.320,0.120,0.013,1.006,0.000,0.004,-0.002,0.018,0.000,0.000,0.000,0.000,0,2,0,1,7,255,960,250,0,0,-89.572,0.517,-31.066
EX0521-092111,3,C26,prep,134,134,0,378734.093,0.685,-0.678,0.192,0.187,0,0,0,0,0,0,0,0,0,0.000,0,0,2.838,0.004,-2.680,-0.360,0.860,0.016,0.981,0.021,0.004,-0.002,0.018,0.000,0.000,0.000,0.000,0,2,0,1,7,255,960,250,0,0,-89.554,0.521,-31.066
EX0521-092111,3,C26,prep,150,150,0,378739.092,0.685,-0.678,0.192,0.187,0,0,0,0,0,0,0,0,0,0.000,0,0,3.032,0.051,2.940,-0.060,-0.740,0.016,0.990,0.016,-0.012,-0.050,-0.046,0.000,0.000,0.000,0.000,0,2,0,1,7,255,960,250,0,0,-89.567,0.517,-31.066
EX0521-092111,3,C26,prep,150,150,0,378744.092,0.685,-0.678,0.192,0.187,0,0,0,0,0,0,0,0,0,0.000,0,0,2.302,0.051,2.080,0.120,-0.980,0.012,1.011,-0.006,-0.012,-0.050,-0.046,0.000,0.000,0.000,0.000,0,2,0,1,7,255,960,250,0,0,-89.582,0.511,-31.066
EX0521-092111,3,C26,prep,150,150,0,378749.091,0.685,-0.678,0.192,0.187,0,0,0,0,0,0,0,0,0,0.000,0,0,5.746,0.044,-5.420,-0.180,1.900,0.015,0.982,0.016,-0.012,-0.042,-0.046,0.000,0.000,0.000,0.000,0,2,0,1,7,255,960,250,0,0,-89.553,0.520,-31.066
EX0521-092111,3,C26,prep,150,150,0,378754.092,0.685,-0.678,0.192,0.187,0,0,0,0,0,0,0,0,0,0.000,0,0,1.845,0.044,1.780,0.060,-0.480,0.013,0.999,0.020,-0.014,-0.042,0.040,0.000,0.000,0.000,0.000,0,2,0,1,7,255,960,250,0,0,-89.559,0.519,-31.066
EX0521-092111,3,C26,prep,150,150,0,378759.092,0.685,-0.678,0.192,0.187,0,0,0,0,0,0,0,0,0,0.000,0,0,3.711,0.044,3.540,-0.180,-1.100,0.015,0.988,0.001,-0.014,-0.042,-0.060,0.000,0.000,0.000,0.000,0,2,0,1,7,255,960,250,0,0,-89.579,0.514,-31.066
EX0521-092111,3,C26,prep,150,150,0,378764.093,0.685,-0.678,0.192,0.187,0,0,0,0,0,0,0,0,0,0.000,0,0,4.093,0.047,-3.900,-0.240,1.220,0.013,1.007,0.007,0.010,0.046,0.040,0.000,0.000,0.000,0.000,0,2,0,1,7,255,960,250,0,0,-89.560,0.519,-31.066
EX0521-092111,3,C26,prep,177,177,0,378769.091,0.685,-0.678,0.192,0.187,0,0,0,0,0,0,0,0,0,0.000,0,0,1.000,0.047,0.800,0.260,-0.540,0.014,0.986,0.022,0.010,0.046,-0.060,0.000,0.000,0.000,0.000,0,2,0,1,7,255,960,250,0,0,-89.560,0.518,-31.066
EX0521-092111,3,C26,prep,177,177,0,378774.092,0.685,-0.678,0.192,0.187,0,0,0,0,0,0,0,0,0,0.000,0,0,0.822,0.024,0.800,-0.060,0.180,0.016,0.984,0.007,0.010,0.022,-0.082,0.000,0.000,0.000,0.000,0,2,0,1,7,255,960,250,0,0,-89.564,0.518,-31.066
EX0521-092111,3,C26,prep,178,178,0,378779.091,0.685,-0.678,0.192,0.187,0,0,0,0,0,0,0,0,0,0.000,0,0,0.224,0.027,-0.120,-0.060,-0.180,0.013,1.013,0.005,0.016,0.022,-0.082,0.000,0.000,0.000,0.000,0,2,0,1,7,255,960,250,0,0,-89.565,0.517,-31.066
EX0521-092111,3,C26,prep,178,178,0,378784.092,0.685,-0.678,0.192,0.187,0,0,0,0,0,0,0,0,0,0.000,0,0,1.497,0.027,-1.400,-0.180,0.500,0.017,0.976,0.017,0.016,0.022,-0.102,0.000,0.000,0.000,0.000,0,2,0,1,7,255,960,250,0,0,-89.556,0.517,-31.066
EX0521-092111,3,C26,prep,179,179,0,378789.091,0.685,-0.678,0.192,0.187,0,0,0,0,0,0,0,0,0,0.000,0,0,0.693,0.007,0.680,-0.120,0.060,0.013,1.002,0.012,-0.004,0.006,0.076,0.000,0.000,0.000,0.000,0,2,0,1,7,255,960,250,0,0,-89.560,0.516,-31.066
EX0521-092111,3,C26,prep,179,179,0,378794.092,0.685,-0.678,0.192,0.187,0,0,0,0,0,0,0,0,0,0.000,0,0,1.875,0.007,1.660,0.140,-0.860,0.014,0.999,0.005,-0.004,0.006,0.042,0.000,0.000,0.000,0.000,0,2,0,1,7,255,960,250,0,0,-89.568,0.511,-31.066
EX0521-092111,3,C26,prep,200,200,0,378799.091,0.685,-0.678,0.192,0.187,0,0,0,0,0,0,0,0,0,0.000,0,0,3.179,0.006,-2.980,-0.120,1.100,0.016,0.986,0.014,0.002,0.006,0.042,0.000,0.000,0.000,0.000,0,2,0,1,7,255,960,250,0,0,-89.552,0.516,-31.066
EX0521-092111,3,C26,prep,200,200,0,378804.092,0.685,-0.678,0.192,0.187,0,0,0,0,0,0,0,0,0,0.000,0,0,1.463,0.014,1.360,0.000,-0.540,0.014,1.002,0.013,0.002,-0.014,0.042,0.000,0.000,0.000,0.000,0,2,0,1,7,255,960,250,0,0,-89.558,0.516,-31.066
EX0521-092111,3,C26,prep,233,233,0,378809.092,0.685,-0.678,0.192,0.187,0,0,0,0,0,0,0,0,0,0.000,0,0,1.101,0.014,1.040,0.000,-0.360,0.015,0.986,0.008,0.002,-0.014,-0.078,0.000,0.000,0.000,0.000,0,2,0,1,7,255,960,250,0,0,-89.563,0.515,-31.066
EX0521-092111,3,C26,prep,233,233,0,378814.092,0.685,-0.678,0.192,0.187,0,0,0,0,0,0,0,0,0,0.000,0,0,2.057,0.022,-1.940,-0.180,0.660,0.014,1.002,0.009,0.010,0.020,0.074,0.000,0.000,0.000,0.000,0,2,0,1,7,255,960,250,0,0,-89.554,0.518,-31.066
EX0521-092111,3,C26,prep,233,233,0,378819.091,0.685,-0.678,0.192,0.187,0,0,0,0,0,0,0,0,0,0.000,0,0,1.289,0.022,1.160,-0.060,-0.560,0.014,0.992,0.015,0.010,0.020,-0.020,0.000,0.000,0.000,0.000,0,2,0,1,7,255,960,250,0,0,-89.558,0.517,-31.066
EX0521-092111,3,C26,prep,233,233,0,378824.092,0.685,-0.678,0.192,0.187,0,0,0,0,0,0,0,0,0,0.000,0,0,0.247,0.022,0.120,-0.120,0.180,0.014,0.986,0.009,0.010,0.020,-0.020,0.000,0.000,0.000,0.000,0,2,0,1,7,255,960,250,0,0,-89.559,0.518,-31.066
EX0521-092111,3,C26,prep,246,246,0,378829.091,0.685,-0.678,0.192,0.187,0,0,0,0,0,0,0,0,0,0.000,0,0,0.384,0.026,-0.360,-0.060,-0.120,0.014,1.008,0.007,0.014,0.022,-0.020,0.000,0.000,0.000,0.000,0,2,0,1,7,255,960,250,0,0,-89.559,0.517,-31.066
EX0521-092111,3,C26,prep,246,246,0,378834.093,0.685,-0.678,0.192,0.187,0,0,0,0,0,0,0,0,0,0.000,0,0,0.553,0.026,-0.540,0.000,0.120,0.017,0.981,0.016,0.014,0.022,-0.078,0.000,0.000,0.000,0.000,0,2,0,1,7,255,960,250,0,0,-89.553,0.518,-31.066
EX0521-092111,3,C26,prep,246,246,0,378839.091,0.685,-0.678,0.192,0.187,0,0,0,0,0,0,0,0,0,0.000,0,0,0.224,0.026,0.120,-0.060,0.180,0.015,0.999,0.009,0.016,0.020,0.046,0.000,0.000,0.000,0.000,0,2,0,1,7,255,960,250,0,0,-89.553,0.519,-31.066
EX0521-092111,3,C26,prep,246,246,0,378844.092,0.685,-0.678,0.192,0.187,0,0,0,0,0,0,0,0,0,0.000,0,0,0.933,0.021,0.800,0.000,-0.480,0.013,0.999,0.008,0.006,0.020,0.042,0.000,0.000,0.000,0.000,0,2,0,1,7,255,960,250,0,0,-89.558,0.518,-31.066
EX0521-092111,3,C26,prep,271,271,0,378849.091,0.685,-0.678,0.192,0.187,0,0,0,0,0,0,0,0,0,0.000,0,0,1.694,0.021,-1.580,-0.120,0.600,0.015,0.986,0.013,0.006,0.020,0.042,0.000,0.000,0.000,0.000,0,2,0,1,7,255,960,250,0,0,-89.549,0.520,-31.066
EX0521-092111,3,C26,prep,271,271,0,378854.092,0.685,-0.678,0.192,0.187,0,0,0,0,0,0,0,0,0,0.000,0,0,0.990,0.004,0.920,-0.060,-0.360,0.013,1.001,0.012,0.002,0.004,0.042,0.000,0.000,0.000,0.000,0,2,0,1,7,255,960,250,0,0,-89.554,0.519,-31.066
EX0521-092111,3,C26,prep,271,271,0,378859.091,0.685,-0.678,0.192,0.187,0,0,0,0,0,0,0,0,0,0.000,0,0,0.769,0.004,0.680,0.000,-0.360,0.015,0.989,0.010,0.002,0.004,-0.050,0.000,0.000,0.000,0.000,0,2,0,1,7,255,960,250,0,0,-89.558,0.520,-31.066
EX0521-092111,3,C26,prep,271,271,0,378864.092,0.685,-0.678,0.192,0.187,0,0,0,0,0,0,0,0,0,0.000,0,0,1.757,0.007,-1.640,-0.120,0.620,0.014,0.996,0.012,-0.006,0.004,0.012,0.000,0.000,0.000,0.000,0,2,0,1,7,255,960,250,0,0,-89.550,0.522,-31.066
EX0521-092111,3,C26,prep,271,271,0,378869.091,0.685,-0.678,0.192,0.187,0,0,0,0,0,0,0,0,0,0.000,0,0,0.932,0.006,0.860,0.000,-0.360,0.014,0.997,0.014,-0.006,0.002,0.012,0.000,0.000,0.000,0.000,0,2,0,1,7,255,960,250,0,0,-89.553,0.522,-31.066
EX0521-092111,3,C26,prep,271,271,0,378874.092,0.685,-0.678,0.192,0.187,0,0,0,0,0,0,0,0,0,0.000,0,0,0.180,0.006,0.120,-0.120,0.060,0.016,0.989,0.009,-0.006,0.002,0.012,0.000,0.000,0.000,0.000,0,2,0,1,7,255,960,250,0,0,-89.554,0.523,-31.066
EX0521-092111,3,C26,prep,271,271,0,378879.091,0.685,-0.678,0.192,0.187,0,0,0,0,0,0,0,0,0,0.000,0,0,0.566,0.014,-0.540,-0.120,0.120,0.015,1.001,0.010,0.010,0.010,0.022,0.000,0.000,0.000,0.000,0,2,0,1,7,255,960,250,0,0,-89.554,0.523,-31.066
EX0521-092111,3,C26,prep,271,271,0,378884.091,0.685,-0.678,0.192,0.187,0,0,0,0,0,0,0,0,0,0.000,0,0,0.347,0.014,0.320,-0.060,-0.120,0.015,0.989,0.014,0.010,0.010,-0.048,0.000,0.000,0.000,0.000,0,2,0,1,7,255,960,250,0,0,-89.549,0.524,-31.066
EX0521-092111,3,C26,prep,279,279,0,378889.092,0.685,-0.678,0.192,0.187,0,0,0,0,0,0,0,0,0,0.000,0,0,0.224,0.013,0.180,-0.120,0.060,0.014,0.995,0.010,0.004,0.012,0.004,0.000,0.000,0.000,0.000,0,2,0,1,7,255,960,250,0,0,-89.549,0.524,-31.066
EX0521-092111,3,C26,prep,279,279,0,378894.092,0.685,-0.678,0.192,0.187,0,0,0,0,0,0,0,0,0,0.000,0,0,0.199,0.013,0.060,-0.060,-0.180,0.015,1.000,0.009,0.004,0.012,0.004,0.000,0.000,0.000,0.000,0,2,0,1,7,255,960,250,0,0,-89.550,0.525,-31.066
EX0521-092111,3,C26,prep,305,305,0,378899.092,0.685,-0.678,0.192,0.187,0,0,0,0,0,0,0,0,0,0.000,0,0,0.838,0.016,-0.780,-0.060,0.300,0.017,0.987,0.013,0.010,0.012,0.004,0.000,0.000,0.000,0.000,0,2,0,1,7,255,960,250,0,0,-89.545,0.525,-31.066
EX0521-092111,3,C26,prep,305,305,0,378904.091,0.685,-0.678,0.192,0.187,0,0,0,0,0,0,0,0,0,0.000,0,0,0.403,0.012,0.380,-0.060,-0.120,0.015,0.997,0.011,0.010,0.006,0.028,0.000,0.000,0.000,0.000,0,2,0,1,7,255,960,250,0,0,-89.545,0.525,-31.066
EX0521-092111,3,C26,prep,305,305,0,378909.092,0.685,-0.678,0.192,0.187,0,0,0,0,0,0,0,0,0,0.000,0,0,0.453,0.008,0.380,-0.060,-0.240,0.014,0.993,0.010,0.006,0.006,-0.012,0.000,0.000,0.000,0.000,0,2,0,1,7,255,960,250,0,0,-89.546,0.526,-31.066
EX0521-092111,3,C26,prep,305,305,0,378914.091,0.685,-0.678,0.192,0.187,0,0,0,0,0,0,0,0,0,0.000,0,0,0.894,0.008,-0.840,-0.060,0.300,0.014,0.992,0.012,0.006,0.006,-0.012,0.000,0.000,0.000,0.000,0,2,0,1,7,255,960,250,0,0,-89.542,0.525,-31.066
EX0521-092111,3,C26,prep,336,336,0,378919.092,0.685,-0.678,0.192,0.187,0,0,0,0,0,0,0,0,0,0.000,0,0,0.778,0.004,0.740,0.000,-0.240,0.013,0.996,0.012,-0.004,0.002,-0.012,0.000,0.000,0.000,0.000,0,2,0,1,7,255,960,250,0,0,-89.546,0.524,-31.066
EX0521-092111,3,C26,prep,336,336,0,378924.092,0.685,-0.678,0.192,0.187,0,0,0,0,0,0,0,0,0,0.000,0,0,0.190,0.004,0.180,-0.060,0.000,0.014,0.993,0.011,-0.004,0.002,-0.016,0.000,0.000,0.000,0.000,0,2,0,1,7,255,960,250,0,0,-89.547,0.523,-31.066
EX0521-092111,3,C26,prep,337,337,0,378929.092,0.685,-0.678,0.192,0.187,0,0,0,0,0,0,0,0,0,0.000,0,0,0.818,0.010,-0.780,-0.060,0.240,0.014,0.996,0.010,-0.002,0.010,0.012,0.000,0.000,0.000,0.000,0,2,0,1,7,255,960,250,0,0,-89.543,0.523,-31.066
EX0521-092111,3,C26,prep,337,337,0,378934.093,0.685,-0.678,0.192,0.187,0,0,0,0,0,0,0,0,0,0.000,0,0,0.425,0.010,0.380,-0.060,-0.180,0.014,0.993,0.013,-0.002,0.010,-0.010,0.000,0.000,0.000,0.000,0,2,0,1,7,255,960,250,0,0,-89.544,0.522,-31.066
EX0521-092111,3,C26,prep,338,338,0,378939.092,0.685,-0.678,0.192,0.187,0,0,0,0,0,0,0,0,0,0.000,0,0,0.060,0.008,0.000,0.000,0.060,0.014,0.994,0.011,0.002,0.008,-0.006,0.000,0.000,0.000,0.000,0,2,0,1,7,255,960,250,0,0,-89.544,0.522,-31.066
EX0521-092111,3,C26,prep,338,338,0,378944.091,0.685,-0.678,0.192,0.187,0,0,0,0,0,0,0,0,0,0.000,0,0,0.190,0.007,-0.180,-0.060,0.000,0.014,0.997,0.011,-0.004,0.006,-0.006,0.000,0.000,0.000,0.000,0,2,0,1,7,255,960,250,0,0,-89.545,0.522,-31.066
EX0521-092111,3,C26,prep,338,338,0,378949.092,0.685,-0.678,0.192,0.187,0,0,0,0,0,0,0,0,0,0.000,0,0,0.120,0.006,0.000,-0.120,0.000,0.015,0.990,0.012,0.000,0.006,-0.006,0.000,0.000,0.000,0.000,0,2,0,1,7,255,960,250,0,0,-89.545,0.522,-31.066
EX0521-092111,3,C26,prep,338,338,0,378954.091,0.685,-0.678,0.192,0.187,0,0,0,0,0,0,0,0,0,0.000,0,0,0.347,0.006,0.320,-0.120,-0.060,0.014,0.997,0.010,0.000,0.006,0.022,0.000,0.000,0.000,0.000,0,2,0,1,7,255,960,250,0,0,-89.546,0.523,-31.066
EX0521-092111,3,C26,prep,370,370,0,378959.092,0.685,-0.678,0.192,0.187,0,0,0,0,0,0,0,0,0,0.000,0,0,0.085,0.013,0.060,0.000,-0.060,0.014,0.995,0.010,0.004,0.012,0.008,0.000,0.000,0.000,0.000,0,2,0,1,7,255,960,250,0,0,-89.546,0.523,-31.066
EX0521-092111,3,C26,prep,370,370,0,378964.093,0.685,-0.678,0.192,0.187,0,0,0,0,0,0,0,0,0,0.000,0,0,0.572,0.013,-0.540,-0.060,0.180,0.015,0.989,0.013,0.004,0.012,0.008,0.000,0.000,0.000,0.000,0,2,0,1,7,255,960,250,0,0,-89.547,0.524,-31.066
EX0521-092111,3,C26,prep,370,370,0,378969.092,0.685,-0.678,0.192,0.187,0,0,0,0,0,0,0,0,0,0.000,0,0,0.398,0.004,0.380,0.000,-0.120,0.014,0.997,0.011,0.000,0.004,0.008,0.000,0.000,0.000,0.000,0,2,0,1,7,255,960,250,0,0,-89.547,0.524,-31.066
EX0521-092111,3,C26,prep,370,370,0,378974.091,0.685,-0.678,0.192,0.187,0,0,0,0,0,0,0,0,0,0.000,0,0,0.104,0.004,0.060,-0.060,-0.060,0.015,0.993,0.010,0.000,0.004,-0.016,0.000,0.000,0.000,0.000,0,2,0,1,7,255,960,250,0,0,-89.548,0.525,-31.066
EX0521-092111,3,C26,prep,370,370,0,378979.092,0.685,-0.678,0.192,0.187,0,0,0,0,0,0,0,0,0,0.000,0,0,0.472,0.004,-0.420,-0.120,0.180,0.015,0.994,0.012,0.000,0.004,-0.006,0.000,0.000,0.000,0.000,0,2,0,1,7,255,960,250,0,0,-89.548,0.526,-31.066
EX0521-092111,3,C26,prep,370,370,0,378984.091,0.685,-0.678,0.192,0.187,0,0,0,0,0,0,0,0,0,0.000,0,0,0.479,0.004,0.440,-0.060,-0.180,0.015,0.994,0.012,0.000,-0.004,-0.006,0.000,0.000,0.000,0.000,0,2,0,1,7,255,960,250,0,0,-89.549,0.526,-31.066
EX0521-092111,3,C26,prep,403,403,0,378989.092,0.685,-0.678,0.192,0.187,0,0,0,0,0,0,0,0,0,0.000,0,0,0.104,0.004,0.060,-0.060,-0.060,0.015,0.993,0.009,0.000,-0.004,-0.006,0.000,0.000,0.000,0.000,0,2,0,1,7,255,960,250,0,0,-89.549,0.527,-31.066
EX0521-092111,3,C26,prep,403,403,0,378994.091,0.685,-0.678,0.192,0.187,0,0,0,0,0,0,0,0,0,0.000,0,0,0.428,0.006,-0.420,-0.060,0.060,0.015,0.996,0.011,0.006,-0.002,0.000,0.000,0.000,0.000,0.000,0,2,0,1,7,255,960,250,0,0,-89.550,0.527,-31.066
EX0521-092111,3,C26,prep,403,403,0,378999.092,0.685,-0.678,0.192,0.187,0,0,0,0,0,0,0,0,0,0.000,0,0,0.147,0.006,0.120,-0.060,-0.060,0.015,0.992,0.012,0.006,-0.002,-0.016,0.000,0.000,0.000,0.000,0,2,0,1,7,255,960,250,0,0,-89.550,0.528,-31.066
EX0521-092111,3,C26,prep,403,403,0,379004.091,0.685,-0.678,0.192,0.187,0,0,0,0,0,0,0,0,0,0.000,0,0,0.085,0.003,0.060,-0.060,0.000,0.014,0.994,0.012,-0.002,-0.002,0.000,0.000,0.000,0.000,0.000,0,2,0,1,7,255,960,250,0,0,-89.551,0.528,-31.066
EX0521-092111,3,C26,prep,440,440,0,379009.092,0.685,-0.678,0.192,0.187,0,0,0,0,0,0,0,0,0,0.000,0,0,0.134,0.003,-0.120,-0.060,0.000,0.014,0.995,0.010,-0.002,-0.002,0.000,0.000,0.000,0.000,0.000,0,2,0,1,7,255,960,250,0,0,-89.551,0.528,-31.066
EX0521-092111,3,C26,prep,440,440,0,379014.091,0.685,-0.678,0.192,0.187,0,0,0,0,0,0,0,0,0,0.000,0,0,0.060,0.003,0.000,-0.060,0.000,0.014,0.992,0.011,-0.002,0.002,0.000,0.000,0.000,0.000,0.000,0,2,0,1,7,255,960,250,0,0,-89.552,0.528,-31.066
EX0521-092111,3,C26,prep,450,450,0,379019.092,0.685,-0.678,0.192,0.187,0,0,0,0,0,0,0,0,0,0.000,0,0,0.347,0.014,0.320,-0.120,-0.060,0.013,0.995,0.010,-0.002,0.014,0.004,0.000,0.000,0.000,0.000,0,2,0,1,7,255,960,250,0,0,-89.552,0.527,-31.066
EX0521-092111,3,C26,prep,450,450,0,379024.092,0.685,-0.678,0.192,0.187,0,0,0,0,0,0,0,0,0,0.000,0,0,0.104,0.010,-0.060,-0.060,-0.060,0.014,0.995,0.010,-0.002,0.010,0.004,0.000,0.000,0.000,0.000,0,2,0,1,7,255,960,250,0,0,-89.553,0.527,-31.066
EX0521-092111,3,C26,prep,450,450,0,379029.092,0.685,-0.678,0.192,0.187,0,0,0,0,0,0,0,0,0,0.000,0,0,0.329,0.011,-0.300,-0.060,0.120,0.014,0.993,0.012,-0.004,0.010,0.004,0.000,0.000,0.000,0.000,0,2,0,1,7,255,960,250,0,0,-89.553,0.528,-31.066
EX0521-092111,3,C26,prep,450,450,0,379034.093,0.685,-0.678,0.192,0.187,0,0,0,0,0,0,0,0,0,0.000,0,0,0.293,0.002,0.260,-0.060,-0.120,0.015,0.996,0.011,0.002,0.000,0.004,0.000,0.000,0.000,0.000,0,2,0,1,7,255,960,250,0,0,-89.554,0.528,-31.066
EX0521-092111,3,C26,prep,451,451,0,379039.092,0.685,-0.678,0.192,0.187,0,0,0,0,0,0,0,0,0,0.000,0,0,0.060,0.002,0.000,-0.060,0.000,0.015,0.993,0.010,0.002,0.000,-0.010,0.000,0.000,0.000,0.000,0,2,0,1,7,255,960,250,0,0,-89.554,0.529,-31.066
EX0521-092111,3,C26,prep,451,451,0,379044.092,0.685,-0.678,0.192,0.187,0,0,0,0,0,0,0,0,0,0.000,0,0,0.147,0.003,-0.120,-0.060,0.060,0.014,0.995,0.011,0.002,0.002,0.008,0.000,0.000,0.000,0.000,0,2,0,1,7,255,960,250,0,0,-89.555,0.528,-31.066
EX0521-092111,3,C26,prep,451,451,0,379049.092,0.685,-0.678,0.192,0.187,0,0,0,0,0,0,0,0,0,0.000,0,0,0.293,0.003,0.260,-0.060,-0.120,0.015,0.994,0.011,0.002,0.002,-0.006,0.000,0.000,0.000,0.000,0,2,0,1,7,255,960,250,0,0,-89.555,0.529,-31.066
EX0521-092111,3,C26,prep,451,451,0,379054.092,0.685,-0.678,0.192,0.187,0,0,0,0,0,0,0,0,0,0.000,0,0,0.170,0.002,0.120,-0.120,0.000,0.014,0.995,0.011,0.000,0.002,0.004,0.000,0.000,0.000,0.000,0,2,0,1,7,255,960,250,0,0,-89.556,0.529,-31.066
EX0521-092111,3,C26,prep,451,451,0,379059.092,0.685,-0.678,0.192,0.187,0,0,0,0,0,0,0,0,0,0.000,0,0,0.312,0.002,-0.300,-0.060,0.060,0.015,0.995,0.011,0.002,0.000,0.004,0.000,0.000,0.000,0.000,0,2,0,1,7,255,960,250,0,0,-89.556,0.530,-31.066
EX0521-092111,3,C26,prep,451,451,0,379064.092,0.685,-0.678,0.192,0.187,0,0,0,0,0,0,0,0,0,0.000,0,0,0.060,0.000,0.000,-0.060,0.000,0.014,0.992,0.012,0.000,0.000,0.004,0.000,0.000,0.000,0.000,0,2,0,1,7,255,960,250,0,0,-89.557,0.530,-31.066
EX0521-092111,3,C26,prep,470,470,0,379069.092,0.685,-0.678,0.192,0.187,0,0,0,0,0,0,0,0,0,0.000,0,0,0.085,0.002,0.060,-0.060,0.000,0.015,0.994,0.010,0.002,0.000,-0.006,0.000,0.000,0.000,0.000,0,2,0,1,7,255,960,250,0,0,-89.557,0.531,-31.066
EX0521-092111,3,C26,prep,470,470,0,379074.093,0.685,-0.678,0.192,0.187,0,0,0,0,0,0,0,0,0,0.000,0,0,0.085,0.004,-0.060,-0.060,0.000,0.014,0.994,0.011,0.000,0.004,-0.006,0.000,0.000,0.000,0.000,0,2,0,1,7,255,960,250,0,0,-89.558,0.530,-31.066
EX0521-092111,3,C26,prep,470,470,0,379079.091,0.685,-0.678,0.192,0.187,0,0,0,0,0,0,0,0,0,0.000,0,0,0.104,0.007,-0.060,-0.060,0.060,0.015,0.993,0.011,0.006,0.004,-0.006,0.000,0.000,0.000,0.000,0,2,0,1,7,255,960,250,0,0,-89.558,0.531,-31.066
EX0521-092111,3,C26,prep,470,470,0,379084.092,0.685,-0.678,0.192,0.187,0,0,0,0,0,0,0,0,0,0.000,0,0,0.273,0.007,0.260,-0.060,-0.060,0.015,0.994,0.011,0.006,-0.004,-0.006,0.000,0.000,0.000,0.000,0,2,0,1,7,255,960,250,0,0,-89.559,0.531,-31.066
EX0521-092111,3,C26,prep,486,486,0,379089.091,0.685,-0.678,0.192,0.187,0,0,0,0,0,0,0,0,0,0.000,0,0,0.085,0.007,-0.060,-0.060,0.000,0.015,0.995,0.011,0.006,-0.004,0.000,0.000,0.000,0.000,0.000,0,2,0,1,7,255,960,250,0,0,-89.560,0.532,-31.066
EX0521-092111,3,C26,prep,486,486,0,379094.092,0.685,-0.678,0.192,0.187,0,0,0,0,0,0,0,0,0,0.000,0,0,0.190,0.004,-0.180,-0.060,0.000,0.015,0.994,0.012,0.002,-0.004,0.000,0.000,0.000,0.000,0.000,0,2,0,1,7,255,960,250,0,0,-89.560,0.533,-31.066
EX0521-092111,3,C26,prep,502,502,0,379099.091,0.685,-0.678,0.192,0.187,0,0,0,0,0,0,0,0,0,0.000,0,0,0.147,0.002,0.120,-0.060,-0.060,0.014,0.995,0.012,0.000,-0.002,0.004,0.000,0.000,0.000,0.000,0,2,0,1,7,255,960,250,0,0,-89.561,0.532,-31.066
EX0521-092111,3,C26,prep,502,502,0,379104.092,0.685,-0.678,0.192,0.187,0,0,0,0,0,0,0,0,0,0.000,0,0,0.104,0.002,-0.060,-0.060,-0.060,0.015,0.994,0.011,0.000,-0.002,-0.004,0.000,0.000,0.000,0.000,0,2,0,1,7,255,960,250,0,0,-89.561,0.532,-31.066
EX0521-092111,3,C26,prep,519,519,0,379109.091,0.685,-0.678,0.192,0.187,0,0,0,0,0,0,0,0,0,0.000,0,0,0.170,0.002,-0.120,-0.120,0.000,0.015,0.994,0.011,0.000,-0.002,0.000,0.000,0.000,0.000,0.000,0,2,0,1,7,255,960,250,0,0,-89.562,0.533,-31.066
EX0521-092111,3,C26,prep,519,519,0,379114.092,0.685,-0.678,0.192,0.187,0,0,0,0,0,0,0,0,0,0.000,0,0,0.147,0.002,0.120,-0.060,-0.060,0.015,0.994,0.012,0.000,-0.002,0.000,0.000,0.000,0.000,0.000,0,2,0,1,7,255,960,250,0,0,-89.562,0.533,-31.066
EX0521-092111,3,C26,prep,519,519,0,379119.091,0.685,-0.678,0.192,0.187,0,0,0,0,0,0,0,0,0,0.000,0,0,0.134,0.002,0.120,-0.060,0.000,0.015,0.995,0.011,0.000,-0.002,0.000,0.000,0.000,0.000,0.000,0,2,0,1,7,255,960,250,0,0,-89.563,0.534,-31.066
EX0521-092111,3,C26,prep,519,519,0,379124.092,0.685,-0.678,0.192,0.187,0,0,0,0,0,0,0,0,0,0.000,0,0,0.134,0.002,-0.120,-0.060,0.000,0.015,0.995,0.010,0.000,-0.002,0.004,0.000,0.000,0.000,0.000,0,2,0,1,7,255,960,250,0,0,-89.563,0.535,-31.066
EX0521-092111,3,C26,prep,534,534,0,379129.091,0.685,-0.678,0.192,0.187,0,0,0,0,0,0,0,0,0,0.000,0,0,0.060,0.002,0.000,-0.060,0.000,0.014,0.994,0.013,0.000,-0.002,0.004,0.000,0.000,0.000,0.000,0,2,0,1,7,255,960,250,0,0,-89.559,0.534,-31.066
EX0521-092111,3,C26,prep,534,534,0,379134.093,0.685,-0.678,0.192,0.187,0,0,0,0,0,0,0,0,0,0.000,0,0,0.104,0.008,0.060,-0.060,-0.060,0.015,0.995,0.010,0.006,0.006,0.004,0.000,0.000,0.000,0.000,0,2,0,1,7,255,960,250,0,0,-89.559,0.534,-31.066
EX0521-092111,3,C26,prep,550,550,0,379139.091,0.685,-0.678,0.192,0.187,0,0,0,0,0,0,0,0,0,0.000,0,0,0.085,0.006,-0.060,-0.060,0.000,0.015,0.994,0.011,0.004,-0.004,-0.006,0.000,0.000,0.000,0.000,0,2,0,1,7,255,960,250,0,0,-89.560,0.535,-31.066
EX0521-092111,3,C26,prep,550,550,0,379144.092,0.685,-0.678,0.192,0.187,0,0,0,0,0,0,0,0,0,0.000,0,0,0.085,0.008,-0.060,-0.060,0.000,0.015,0.994,0.011,0.008,0.000,0.000,0.000,0.000,0.000,0.000,0,2,0,1,7,255,960,250,0,0,-89.560,0.536,-31.066
EX0521-092111,3,C26,prep,550,550,0,379149.091,0.685,-0.678,0.192,0.187,0,0,0,0,0,0,0,0,0,0.000,0,0,0.180,0.004,0.120,-0.120,-0.060,0.014,0.994,0.010,0.004,0.000,0.000,0.000,0.000,0.000,0.000,0,2,0,1,7,255,960,250,0,0,-89.561,0.535,-31.066
EX0521-092111,3,C26,prep,550,550,0,379154.092,0.685,-0.678,0.192,0.187,0,0,0,0,0,0,0,0,0,0.000,0,0,0.147,0.009,-0.120,-0.060,0.060,0.015,0.994,0.010,0.008,0.004,0.000,0.000,0.000,0.000,0.000,0,2,0,1,7,255,960,250,0,0,-89.561,0.535,-31.066
EX0521-092111,3,C26,prep,550,550,0,379159.092,0.685,-0.678,0.192,0.187,0,0,0,0,0,0,0,0,0,0.000,0,0,0.199,0.011,-0.180,-0.060,0.060,0.016,0.994,0.011,0.010,0.004,0.000,0.000,0.000,0.000,0.000,0,2,0,1,7,255,960,250,0,0,-89.562,0.536,-31.066
EX0521-092111,3,C26,prep,550,550,0,379164.093,0.685,-0.678,0.192,0.187,0,0,0,0,0,0,0,0,0,0.000,0,0,0.147,0.010,0.120,-0.060,-0.060,0.015,0.993,0.011,0.010,0.002,-0.006,0.000,0.000,0.000,0.000,0,2,0,1,7,255,960,250,0,0,-89.562,0.537,-31.066
EX0521-092111,3,C26,prep,570,570,0,379169.091,0.685,-0.678,0.192,0.187,0,0,0,0,0,0,0,0,0,0.000,0,0,0.060,0.008,0.000,-0.060,0.000,0.015,0.996,0.010,0.008,0.002,-0.006,0.000,0.000,0.000,0.000,0,2,0,1,7,255,960,250,0,0,-89.563,0.538,-31.066
EX0521-092111,3,C26,prep,570,570,0,379174.092,0.685,-0.678,0.192,0.187,0,0,0,0,0,0,0,0,0,0.000,0,0,0.134,0.003,-0.120,-0.060,0.000,0.015,0.995,0.011,0.002,0.002,0.010,0.000,0.000,0.000,0.000,0,2,0,1,7,255,960,250,0,0,-89.564,0.538,-31.066
EX0521-092111,3,C26,prep,582,582,0,379179.091,0.685,-0.678,0.192,0.187,0,0,0,0,0,0,0,0,0,0.000,0,0,0.180,0.002,0.120,-0.120,-0.060,0.015,0.993,0.011,0.000,-0.002,0.010,0.000,0.000,0.000,0.000,0,2,0,1,7,255,960,250,0,0,-89.564,0.539,-31.066
EX0521-092111,3,C26,prep,582,582,0,379184.092,0.685,-0.678,0.192,0.187,0,0,0,0,0,0,0,0,0,0.000,0,0,0.104,0.002,0.060,-0.060,-0.060,0.015,0.993,0.011,0.000,-0.002,-0.010,0.000,0.000,0.000,0.000,0,2,0,1,7,255,960,250,0,0,-89.565,0.539,-31.066
EX0521-092111,3,C26,prep,582,582,0,379189.091,0.685,-0.678,0.192,0.187,0,0,0,0,0,0,0,0,0,0.000,0,0,0.134,0.000,-0.120,-0.060,0.000,0.014,0.995,0.011,0.000,0.000,-0.010,0.000,0.000,0.000,0.000,0,2,0,1,7,255,960,250,0,0,-89.565,0.538,-31.066
EX0521-092111,3,C26,prep,582,582,0,379194.092,0.685,-0.678,0.192,0.187,0,0,0,0,0,0,0,0,0,0.000,0,0,0.000,0.004,0.000,0.000,0.000,0.014,0.994,0.011,-0.004,0.002,0.000,0.000,0.000,0.000,0.000,0,2,0,1,7,255,960,250,0,0,-89.566,0.537,-31.066
EX0521-092111,3,C26,prep,603,603,0,379199.092,0.685,-0.678,0.192,0.187,0,0,0,0,0,0,0,0,0,0.000,0,0,0.085,0.004,0.060,-0.060,0.000,0.014,0.994,0.011,-0.004,0.002,0.000,0.000,0.000,0.000,0.000,0,2,0,1,7,255,960,250,0,0,-89.566,0.536,-31.066
EX0521-092111,3,C26,prep,603,603,0,379204.092,0.685,-0.678,0.192,0.187,0,0,0,0,0,0,0,0,0,0.000,0,0,0.085,0.010,-0.060,-0.060,0.000,0.013,0.993,0.011,-0.006,0.008,0.000,0.000,0.000,0.000,0.000,0,2,0,1,7,255,960,250,0,0,-89.567,0.535,-31.066
EX0521-092111,3,C26,prep,603,603,0,379209.092,0.685,-0.678,0.192,0.187,0,0,0,0,0,0,0,0,0,0.000,0,0,0.085,0.004,-0.060,-0.060,0.000,0.015,0.995,0.012,-0.004,0.000,0.000,0.000,0.000,0.000,0.000,0,2,0,1,7,255,960,250,0,0,-89.567,0.536,-31.066
EX0521-092111,3,C26,prep,603,603,0,379214.091,0.685,-0.678,0.192,0.187,0,0,0,0,0,0,0,0,0,0.000,0,0,0.104,0.008,0.060,-0.060,-0.060,0.015,0.994,0.012,-0.002,-0.008,-0.004,0.000,0.000,0.000,0.000,0,2,0,1,7,255,960,250,0,0,-89.568,0.537,-31.066
EX0521-092111,3,C26,prep,642,642,0,379219.092,0.685,-0.678,0.192,0.187,0,0,0,0,0,0,0,0,0,0.000,0,0,0.085,0.008,0.060,-0.060,0.000,0.015,0.994,0.011,0.002,-0.008,-0.004,0.000,0.000,0.000,0.000,0,2,0,1,7,255,960,250,0,0,-89.568,0.537,-31.066
EX0521-092111,3,C26,prep,642,642,0,379224.092,0.685,-0.678,0.192,0.187,0,0,0,0,0,0,0,0,0,0.000,0,0,0.170,0.003,-0.120,-0.120,0.000,0.015,0.993,0.011,0.002,-0.002,-0.004,0.000,0.000,0.000,0.000,0,2,0,1,7,255,960,250,0,0,-89.569,0.538,-31.066
EX0521-092111,3,C26,prep,643,643,0,379229.092,0.685,-0.678,0.192,0.187,0,0,0,0,0,0,0,0,0,0.000,0,0,0.060,0.002,0.000,0.000,-0.060,0.014,0.995,0.011,0.000,0.002,-0.004,0.000,0.000,0.000,0.000,0,2,0,1,7,255,960,250,0,0,-89.569,0.537,-31.066
EX0521-092111,3,C26,prep,643,643,0,379234.093,0.685,-0.678,0.192,0.187,0,0,0,0,0,0,0,0,0,0.000,0,0,0.060,0.002,0.000,-0.060,0.000,0.015,0.995,0.010,0.000,0.002,0.004,0.000,0.000,0.000,0.000,0,2,0,1,7,255,960,250,0,0,-89.570,0.538,-31.066
EX0521-092111,3,C26,prep,644,644,0,379239.092,0.685,-0.678,0.192,0.187,0,0,0,0,0,0,0,0,0,0.000,0,0,0.085,0.004,-0.060,-0.060,0.000,0.015,0.995,0.012,-0.004,0.002,0.010,0.000,0.000,0.000,0.000,0,2,0,1,7,255,960,250,0,0,-89.570,0.538,-31.066
EX0521-092111,3,C26,prep,644,644,0,379244.092,0.685,-0.678,0.192,0.187,0,0,0,0,0,0,0,0,0,0.000,0,0,0.104,0.007,0.060,-0.060,-0.060,0.015,0.996,0.012,-0.004,-0.006,0.010,0.000,0.000,0.000,0.000,0,2,0,1,7,255,960,250,0,0,-89.571,0.539,-31.066
EX0521-092111,3,C26,prep,645,645,0,379249.092,0.685,-0.678,0.192,0.187,0,0,0,0,0,0,0,0,0,0.000,0,0,0.085,0.007,0.000,-0.060,-0.060,0.014,0.994,0.010,-0.004,-0.006,0.010,0.000,0.000,0.000,0.000,0,2,0,1,7,255,960,250,0,0,-89.571,0.538,-31.066
EX0521-092111,3,C26,prep,645,645,0,379254.091,0.685,-0.678,0.192,0.187,0,0,0,0,0,0,0,0,0,0.000,0,0,0.180,0.004,-0.120,-0.120,-0.060,0.014,0.996,0.011,-0.002,0.004,0.014,0.000,0.000,0.000,0.000,0,2,0,1,7,255,960,250,0,0,-89.572,0.537,-31.066
EX0521-092111,3,C26,prep,646,646,0,379259.092,0.685,-0.678,0.192,0.187,0,0,0,0,0,0,0,0,0,0.000,0,0,0.134,0.004,-0.060,-0.120,0.000,0.014,0.995,0.011,-0.002,0.004,0.004,0.000,0.000,0.000,0.000,0,2,0,1,7,255,960,250,0,0,-89.572,0.536,-31.066
EX0521-092111,3,C26,prep,646,646,0,379264.092,0.685,-0.678,0.192,0.187,0,0,0,0,0,0,0,0,0,0.000,0,0,0.060,0.004,0.000,-0.060,0.000,0.014,0.994,0.010,-0.002,0.004,0.004,0.000,0.000,0.000,0.000,0,2,0,1,7,255,960,250,0,0,-89.573,0.535,-31.066
EX0521-092111,3,C26,prep,674,674,0,379269.092,0.685,-0.678,0.192,0.187,0,0,0,0,0,0,0,0,0,0.000,0,0,0.060,0.000,-0.060,0.000,0.000,0.015,0.994,0.012,0.000,0.000,0.000,0.000,0.000,0.000,0.000,0,2,0,1,7,255,960,250,0,0,-89.573,0.535,-31.066
EX0521-092111,3,C26,prep,674,674,0,379274.091,0.685,-0.678,0.192,0.187,0,0,0,0,0,0,0,0,0,0.000,0,0,0.085,0.008,-0.060,-0.060,0.000,0.016,0.994,0.011,0.002,-0.008,-0.006,0.000,0.000,0.000,0.000,0,2,0,1,7,255,960,250,0,0,-89.574,0.536,-31.066
EX0521-092111,3,C26,prep,675,675,0,379279.092,0.685,-0.678,0.192,0.187,0,0,0,0,0,0,0,0,0,0.000,0,0,0.134,0.008,0.120,-0.060,0.000,0.015,0.995,0.011,0.002,-0.008,0.000,0.000,0.000,0.000,0.000,0,2,0,1,7,255,960,250,0,0,-89.574,0.537,-31.066
EX0521-092111,3,C26,prep,675,675,0,379284.091,0.685,-0.678,0.192,0.187,0,0,0,0,0,0,0,0,0,0.000,0,0,0.060,0.007,0.000,-0.060,0.000,0.015,0.993,0.011,0.004,-0.006,-0.006,0.000,0.000,0.000,0.000,0,2,0,1,7,255,960,250,0,0,-89.575,0.538,-31.066
EX0521-092111,3,C26,prep,678,678,0,379289.092,0.685,-0.678,0.192,0.187,0,0,0,0,0,0,0,0,0,0.000,0,0,0.134,0.006,-0.060,-0.120,0.000,0.016,0.994,0.011,0.004,-0.004,-0.006,0.000,0.000,0.000,0.000,0,2,0,1,7,255,960,250,0,0,-89.575,0.538,-31.066
EX0521-092111,3,C26,prep,678,678,0,379294.091,0.685,-0.678,0.192,0.187,0,0,0,0,0,0,0,0,0,0.000,0,0,0.085,0.006,0.060,-0.060,0.000,0.014,0.994,0.012,0.004,-0.004,-0.006,0.000,0.000,0.000,0.000,0,2,0,1,7,255,960,250,0,0,-89.576,0.537,-31.066
EX0521-092111,3,C26,prep,697,697,0,379299.092,0.685,-0.678,0.192,0.187,0,0,0,0,0,0,0,0,0,0.000,0,0,0.085,0.003,0.000,-0.060,-0.060,0.015,0.994,0.011,-0.002,-0.002,-0.006,0.000,0.000,0.000,0.000,0,2,0,1,7,255,960,250,0,0,-89.576,0.538,-31.066
EX0521-092111,3,C26,prep,697,697,0,379304.091,0.685,-0.678,0.192,0.187,0,0,0,0,0,0,0,0,0,0.000,0,0,0.104,0.003,-0.060,-0.060,-0.060,0.015,0.993,0.011,-0.002,-0.002,-0.006,0.000,0.000,0.000,0.000,0,2,0,1,7,255,960,250,0,0,-89.577,0.538,-31.066
EX0521-092111,3,C26,prep,734,734,0,379309.092,0.685,-0.678,0.192,0.187,0,0,0,0,0,0,0,0,0,0.000,0,0,0.147,0.002,0.060,-0.120,-0.060,0.015,0.993,0.012,0.000,-0.002,-0.010,0.000,0.000,0.000,0.000,0,2,0,1,7,255,960,250,0,0,-89.577,0.539,-31.066
EX0521-092111,3,C26,prep,734,734,0,379314.091,0.685,-0.678,0.192,0.187,0,0,0,0,0,0,0,0,0,0.000,0,0,0.085,0.002,0.060,-0.060,0.000,0.015,0.993,0.010,0.002,0.000,-0.010,0.000,0.000,0.000,0.000,0,2,0,1,7,255,960,250,0,0,-89.578,0.540,-31.066
EX0521-092111,3,C26,prep,734,734,0,379319.092,0.685,-0.678,0.192,0.187,0,0,0,0,0,0,0,0,0,0.000,0,0,0.085,0.006,0.000,-0.060,-0.060,0.014,0.994,0.010,0.000,0.006,-0.010,0.000,0.000,0.000,0.000,0,2,0,1,7,255,960,250,0,0,-89.578,0.539,-31.066
EX0521-092111,3,C26,prep,734,734,0,379324.092,0.685,-0.678,0.192,0.187,0,0,0,0,0,0,0,0,0,0.000,0,0,0.000,0.006,0.000,0.000,0.000,0.014,0.993,0.012,-0.002,0.006,-0.010,0.000,0.000,0.000,0.000,0,2,0,1,7,255,960,250,0,0,-89.579,0.538,-31.066
EX0521-092111,3,C26,prep,734,734,0,379329.092,0.685,-0.678,0.192,0.187,0,0,0,0,0,0,0,0,0,0.000,0,0,0.120,0.008,0.000,-0.120,0.000,0.014,0.994,0.011,-0.006,0.006,-0.004,0.000,0.000,0.000,0.000,0,2,0,1,7,255,960,250,0,0,-89.579,0.537,-31.066
EX0521-092111,3,C26,prep,734,734,0,379334.093,0.685,-0.678,0.192,0.187,0,0,0,0,0,0,0,0,0,0.000,0,0,0.104,0.008,-0.060,-0.060,-0.060,0.016,0.994,0.011,-0.006,-0.006,-0.004,0.000,0.000,0.000,0.000,0,2,0,1,7,255,960,250,0,0,-89.580,0.538,-31.066
EX0521-092111,3,C26,prep,742,742,0,379339.092,0.685,-0.678,0.192,0.187,0,0,0,0,0,0,0,0,0,0.000,0,0,0.060,0.006,0.000,-0.060,0.000,0.015,0.995,0.010,0.004,0.004,0.000,0.000,0.000,0.000,0.000,0,2,0,1,7,255,960,250,0,0,-89.580,0.538,-31.066
EX0521-092111,3,C26,prep,742,742,0,379344.091,0.685,-0.678,0.192,0.187,0,0,0,0,0,0,0,0,0,0.000,0,0,0.085,0.004,0.060,-0.060,0.000,0.014,0.994,0.011,0.004,0.002,0.000,0.000,0.000,0.000,0.000,0,2,0,1,7,255,960,250,0,0,-89.581,0.537,-31.066
EX0521-092111,3,C26,prep,742,742,0,379349.092,0.685,-0.678,0.192,0.187,0,0,0,0,0,0,0,0,0,0.000,0,0,0.085,0.006,0.000,-0.060,-0.060,0.013,0.994,0.011,-0.004,0.004,0.000,0.000,0.000,0.000,0.000,0,2,0,1,7,255,960,250,0,0,-89.581,0.536,-31.066
EX0521-092111,3,C26,prep,742,742,0,379354.091,0.685,-0.678,0.192,0.187,0,0,0,0,0,0,0,0,0,0.000,0,0,0.134,0.004,-0.120,-0.060,0.000,0.015,0.994,0.011,-0.004,0.002,0.000,0.000,0.000,0.000,0.000,0,2,0,1,7,255,960,250,0,0,-89.582,0.537,-31.066
EX0521-092111,3,C26,prep,772,772,0,379359.093,0.685,-0.678,0.192,0.187,0,0,0,0,0,0,0,0,0,0.000,0,0,0.087,0.003,-0.060,0.020,-0.060,0.014,0.994,0.011,-0.002,0.002,-0.004,0.000,0.000,0.000,0.000,0,2,0,1,7,255,960,250,0,0,-89.582,0.536,-31.066
EX0521-092111,3,C26,prep,772,772,0,379364.093,0.685,-0.678,0.192,0.187,0,0,0,0,0,0,0,0,0,0.000,0,0,0.134,0.003,-0.060,-0.120,0.000,0.014,0.994,0.011,-0.002,-0.002,0.000,0.000,0.000,0.000,0.000,0,2,0,1,7,255,960,250,0,0,-89.583,0.535,-31.066
EX0521-092111,3,C26,prep,772,772,0,379369.092,0.685,-0.678,0.192,0.187,0,0,0,0,0,0,0,0,0,0.000,0,0,0.094,0.002,-0.060,-0.040,-0.060,0.015,0.994,0.011,-0.002,0.000,0.000,0.000,0.000,0.000,0.000,0,2,0,1,7,255,960,250,0,0,-89.583,0.536,-31.066
EX0521-092111,3,C26,prep,772,772,0,379374.092,0.685,-0.678,0.192,0.187,0,0,0,0,0,0,0,0,0,0.000,0,0,0.072,0.006,0.000,-0.040,-0.060,0.014,0.995,0.013,-0.006,-0.002,0.000,0.000,0.000,0.000,0.000,0,2,0,1,7,255,960,250,0,0,-89.579,0.535,-31.066
EX0521-092111,3,C26,prep,773,773,0,379379.092,0.685,-0.678,0.192,0.187,0,0,0,0,0,0,0,0,0,0.000,0,0,0.040,0.009,0.000,-0.040,0.000,0.015,0.994,0.012,-0.004,-0.008,0.000,0.000,0.000,0.000,0.000,0,2,0,1,7,255,960,250,0,0,-89.579,0.535,-31.066
EX0521-092111,3,C26,prep,773,773,0,379384.092,0.685,-0.678,0.192,0.187,0,0,0,0,0,0,0,0,0,0.000,0,0,0.072,0.011,-0.060,-0.040,0.000,0.014,0.995,0.012,-0.008,-0.008,0.004,0.000,0.000,0.000,0.000,0,2,0,1,7,255,960,250,0,0,-89.580,0.534,-31.066
EX0521-092111,3,C26,prep,774,774,0,379389.091,0.685,-0.678,0.192,0.187,0,0,0,0,0,0,0,0,0,0.000,0,0,0.134,0.007,-0.060,-0.120,0.000,0.014,0.993,0.010,-0.004,-0.006,-0.004,0.000,0.000,0.000,0.000,0,2,0,1,7,255,960,250,0,0,-89.580,0.533,-31.066
EX0521-092111,3,C26,prep,774,774,0,379394.092,0.685,-0.678,0.192,0.187,0,0,0,0,0,0,0,0,0,0.000,0,0,0.040,0.008,0.000,-0.040,0.000,0.014,0.994,0.011,-0.008,0.000,-0.004,0.000,0.000,0.000,0.000,0,2,0,1,7,255,960,250,0,0,-89.581,0.532,-31.066
EX0521-092111,3,C26,prep,808,808,0,379399.092,0.685,-0.678,0.192,0.187,0,0,0,0,0,0,0,0,0,0.000,0,0,0.094,0.004,-0.060,-0.040,-0.060,0.015,0.994,0.011,-0.004,0.000,-0.004,0.000,0.000,0.000,0.000,0,2,0,1,7,255,960,250,0,0,-89.581,0.533,-31.066
EX0521-092111,3,C26,prep,808,808,0,379404.092,0.685,-0.678,0.192,0.187,0,0,0,0,0,0,0,0,0,0.000,0,0,0.094,0.004,-0.060,-0.040,-0.060,0.015,0.994,0.010,0.004,0.000,-0.004,0.000,0.000,0.000,0.000,0,2,0,1,7,255,960,250,0,0,-89.582,0.534,-31.066
EX0521-092111,3,C26,prep,836,836,0,379409.092,0.685,-0.678,0.192,0.187,0,0,0,0,0,0,0,0,0,0.000,0,0,0.085,0.007,0.000,-0.060,-0.060,0.014,0.995,0.012,0.004,-0.006,0.000,0.000,0.000,0.000,0.000,0,2,0,1,7,255,960,250,0,0,-89.582,0.533,-31.066
EX0521-092111,3,C26,prep,836,836,0,379414.092,0.685,-0.678,0.192,0.187,0,0,0,0,0,0,0,0,0,0.000,0,0,0.085,0.006,0.060,-0.060,0.000,0.014,0.994,0.011,-0.006,0.002,-0.004,0.000,0.000,0.000,0.000,0,2,0,1,7,255,960,250,0,0,-89.583,0.532,-31.066
EX0521-092111,3,C26,prep,836,836,0,379419.091,0.685,-0.678,0.192,0.187,0,0,0,0,0,0,0,0,0,0.000,0,0,0.085,0.007,-0.060,-0.060,0.000,0.015,0.993,0.010,-0.006,0.004,-0.004,0.000,0.000,0.000,0.000,0,2,0,1,7,255,960,250,0,0,-89.583,0.532,-31.066
EX0521-092111,3,C26,prep,836,836,0,379424.092,0.685,-0.678,0.192,0.187,0,0,0,0,0,0,0,0,0,0.000,0,0,0.085,0.006,-0.060,-0.060,0.000,0.016,0.993,0.012,0.004,0.004,-0.010,0.000,0.000,0.000,0.000,0,2,0,1,7,255,960,250,0,0,-89.584,0.533,-31.066
EX0521-092111,3,C26,prep,836,836,0,379429.091,0.685,-0.678,0.192,0.187,0,0,0,0,0,0,0,0,0,0.000,0,0,0.060,0.004,0.000,-0.060,0.000,0.014,0.995,0.011,0.004,-0.002,-0.010,0.000,0.000,0.000,0.000,0,2,0,1,7,255,960,250,0,0,-89.584,0.532,-31.066
EX0521-092111,3,C26,prep,836,836,0,379434.093,0.685,-0.678,0.192,0.187,0,0,0,0,0,0,0,0,0,0.000,0,0,0.104,0.006,-0.060,-0.060,-0.060,0.015,0.993,0.010,0.006,-0.002,-0.010,0.000,0.000,0.000,0.000,0,2,0,1,7,255,960,250,0,0,-89.585,0.533,-31.066
EX0521-092111,3,C26,prep,854,854,0,379439.091,0.685,-0.678,0.192,0.187,0,0,0,0,0,0,0,0,0,0.000,0,0,0.085,0.004,0.060,-0.060,0.000,0.015,0.994,0.011,0.004,-0.002,-0.004,0.000,0.000,0.000,0.000,0,2,0,1,7,255,960,250,0,0,-89.585,0.534,-31.066
EX0521-092111,3,C26,prep,854,854,0,379444.092,0.685,-0.678,0.192,0.187,0,0,0,0,0,0,0,0,0,0.000,0,0,0.060,0.007,0.000,-0.060,0.000,0.015,0.994,0.011,0.004,-0.006,-0.004,0.000,0.000,0.000,0.000,0,2,0,1,7,255,960,250,0,0,-89.586,0.534,-31.066
EX0521-092111,3,C26,prep,854,854,0,379449.091,0.685,-0.678,0.192,0.187,0,0,0,0,0,0,0,0,0,0.000,0,0,0.060,0.007,0.000,-0.060,0.000,0.014,0.994,0.010,0.004,-0.006,0.000,0.000,0.000,0.000,0.000,0,2,0,1,7,255,960,250,0,0,-89.586,0.533,-31.066
EX0521-092111,3,C26,prep,854,854,0,379454.092,0.685,-0.678,0.192,0.187,0,0,0,0,0,0,0,0,0,0.000,0,0,0.085,0.006,-0.060,-0.060,0.000,0.015,0.993,0.012,0.000,-0.006,0.000,0.000,0.000,0.000,0.000,0,2,0,1,7,255,960,250,0,0,-89.587,0.534,-31.066
EX0521-092111,3,C26,prep,854,854,0,379459.091,0.685,-0.678,0.192,0.187,0,0,0,0,0,0,0,0,0,0.000,0,0,0.060,0.006,0.000,-0.060,0.000,0.014,0.995,0.010,0.000,0.006,0.000,0.000,0.000,0.000,0.000,0,2,0,1,7,255,960,250,0,0,-89.588,0.533,-31.066
EX0521-092111,3,C26,prep,854,854,0,379464.092,0.685,-0.678,0.192,0.187,0,0,0,0,0,0,0,0,0,0.000,0,0,0.085,0.004,-0.060,-0.060,0.000,0.015,0.994,0.011,0.002,-0.004,0.000,0.000,0.000,0.000,0.000,0,2,0,1,7,255,960,250,0,0,-89.588,0.534,-31.066
EX0521-092111,3,C26,prep,870,870,0,379469.092,0.685,-0.678,0.192,0.187,0,0,0,0,0,0,0,0,0,0.000,0,0,0.085,0.004,0.000,-0.060,-0.060,0.015,0.995,0.011,0.002,-0.004,0.010,0.000,0.000,0.000,0.000,0,2,0,1,7,255,960,250,0,0,-89.589,0.534,-31.066
EX0521-092111,3,C26,prep,870,870,0,379474.092,0.685,-0.678,0.192,0.187,0,0,0,0,0,0,0,0,0,0.000,0,0,0.060,0.004,0.000,-0.060,0.000,0.015,0.994,0.011,0.000,-0.004,0.000,0.000,0.000,0.000,0.000,0,2,0,1,7,255,960,250,0,0,-89.589,0.535,-31.066
EX0521-092111,3,C26,prep,870,870,0,379479.091,0.685,-0.678,0.192,0.187,0,0,0,0,0,0,0,0,0,0.000,0,0,0.000,0.003,0.000,0.000,0.000,0.014,0.995,0.011,-0.002,-0.002,0.006,0.000,0.000,0.000,0.000,0,2,0,1,7,255,960,250,0,0,-89.590,0.534,-31.066
EX0521-092111,3,C26,prep,870,870,0,379484.092,0.685,-0.678,0.192,0.187,0,0,0,0,0,0,0,0,0,0.000,0,0,0.085,0.002,-0.060,-0.060,0.000,0.014,0.994,0.011,-0.002,0.000,0.000,0.000,0.000,0.000,0.000,0,2,0,1,7,255,960,250,0,0,-89.590,0.533,-31.066
EX0521-092111,3,C26,prep,886,886,0,379489.091,0.685,-0.678,0.192,0.187,0,0,0,0,0,0,0,0,0,0.000,0,0,0.104,0.004,0.060,-0.060,-0.060,0.015,0.995,0.012,-0.004,-0.002,0.006,0.000,0.000,0.000,0.000,0,2,0,1,7,255,960,250,0,0,-89.591,0.534,-31.066
EX0521-092111,3,C26,prep,886,886,0,379494.092,0.685,-0.678,0.192,0.187,0,0,0,0,0,0,0,0,0,0.000,0,0,0.085,0.006,-0.060,-0.060,0.000,0.016,0.994,0.011,-0.002,-0.006,0.000,0.000,0.000,0.000,0.000,0,2,0,1,7,255,960,250,0,0,-89.591,0.534,-31.066
EX0521-092111,3,C26,prep,886,886,0,379499.091,0.685,-0.678,0.192,0.187,0,0,0,0,0,0,0,0,0,0.000,0,0,0.085,0.007,-0.060,-0.060,0.000,0.013,0.995,0.010,-0.004,-0.006,0.004,0.000,0.000,0.000,0.000,0,2,0,1,7,255,960,250,0,0,-89.592,0.533,-31.066
EX0521-092111,3,C26,prep,886,886,0,379504.092,0.685,-0.678,0.192,0.187,0,0,0,0,0,0,0,0,0,0.000,0,0,0.085,0.007,0.000,-0.060,-0.060,0.014,0.994,0.011,-0.006,0.004,-0.004,0.000,0.000,0.000,0.000,0,2,0,1,7,255,960,250,0,0,-89.592,0.533,-31.066
EX0521-092111,3,C26,prep,902,902,0,379509.091,0.685,-0.678,0.192,0.187,0,0,0,0,0,0,0,0,0,0.000,0,0,0.134,0.007,0.120,0.000,-0.060,0.014,0.994,0.010,-0.006,0.004,-0.004,0.000,0.000,0.000,0.000,0,2,0,1,7,255,960,250,0,0,-89.593,0.532,-31.066
EX0521-092111,3,C26,prep,902,902,0,379514.092,0.685,-0.678,0.192,0.187,0,0,0,0,0,0,0,0,0,0.000,0,0,0.085,0.004,0.000,-0.060,-0.060,0.015,0.995,0.011,-0.002,0.004,-0.004,0.000,0.000,0.000,0.000,0,2,0,1,7,255,960,250,0,0,-89.593,0.532,-31.066
EX0521-092111,3,C26,prep,956,956,0,379519.091,0.685,-0.678,0.192,0.187,0,0,0,0,0,0,0,0,0,0.000,0,0,0.060,0.006,0.000,-0.060,0.000,0.015,0.994,0.011,-0.002,-0.006,0.000,0.000,0.000,0.000,0.000,0,2,0,1,7,255,960,250,0,0,-89.594,0.533,-31.066
EX0521-092111,3,C26,prep,956,956,0,379524.092,0.685,-0.678,0.192,0.187,0,0,0,0,0,0,0,0,0,0.000,0,0,0.085,0.006,0.060,-0.060,0.000,0.013,0.995,0.012,-0.002,-0.006,0.006,0.000,0.000,0.000,0.000,0,2,0,1,7,255,960,250,0,0,-89.589,0.532,-31.066
EX0521-092111,3,C26,prep,960,960,0,379529.092,0.685,-0.678,0.192,0.187,0,0,0,0,0,0,0,0,0,0.000,0,0,0.060,0.007,0.000,-0.060,0.000,0.015,0.994,0.012,-0.004,-0.006,0.000,0.000,0.000,0.000,0.000,0,2,0,1,7,255,960,250,0,0,-89.590,0.532,-31.066
EX0521-092111,3,C26,prep,960,960,0,379534.093,0.685,-0.678,0.192,0.187,0,0,0,0,0,0,0,0,0,0.000,0,0,0.060,0.007,0.000,-0.060,0.000,0.015,0.994,0.011,-0.004,-0.006,0.000,0.000,0.000,0.000,0.000,0,2,0,1,7,255,960,250,0,0,-89.590,0.533,-31.066
EX0521-092111,3,C26,prep,960,960,0,379539.091,0.685,-0.678,0.192,0.187,0,0,0,0,0,0,0,0,0,0.000,0,0,0.085,0.006,0.000,-0.060,-0.060,0.014,0.995,0.011,-0.004,-0.004,0.000,0.000,0.000,0.000,0.000,0,2,0,1,7,255,960,250,0,0,-89.591,0.532,-31.066
EX0521-092111,3,C26,prep,960,960,0,379544.092,0.685,-0.678,0.192,0.187,0,0,0,0,0,0,0,0,0,0.000,0,0,0.060,0.000,0.000,-0.060,0.000,0.015,0.994,0.010,0.000,0.000,0.000,0.000,0.000,0.000,0.000,0,2,0,1,7,255,960,250,0,0,-89.591,0.533,-31.066
EX0521-092111,3,C26,prep,961,961,0,379549.092,0.685,-0.678,0.192,0.187,0,0,0,0,0,0,0,0,0,0.000,0,0,0.085,0.008,0.000,-0.060,-0.060,0.014,0.995,0.012,-0.008,0.000,0.006,0.000,0.000,0.000,0.000,0,2,0,1,7,255,960,250,0,0,-89.592,0.532,-31.066
EX0521-092111,3,C26,prep,961,961,0,379554.092,0.685,-0.678,0.192,0.187,0,0,0,0,0,0,0,0,0,0.000,0,0,0.085,0.007,-0.060,-0.060,0.000,0.015,0.994,0.011,0.004,-0.006,0.000,0.000,0.000,0.000,0.000,0,2,0,1,7,255,960,250,0,0,-89.592,0.532,-31.066
EX0521-092111,3,C26,prep,961,961,0,379559.093,0.685,-0.678,0.192,0.187,0,0,0,0,0,0,0,0,0,0.000,0,0,0.060,0.007,0.000,-0.060,0.000,0.015,0.994,0.010,0.004,-0.006,0.000,0.000,0.000,0.000,0.000,0,2,0,1,7,255,960,250,0,0,-89.593,0.533,-31.066
EX0521-092111,3,C26,prep,961,961,0,379564.093,0.685,-0.678,0.192,0.187,0,0,0,0,0,0,0,0,0,0.000,0,0,0.060,0.004,0.000,-0.060,0.000,0.014,0.994,0.009,0.004,0.002,0.000,0.000,0.000,0.000,0.000,0,2,0,1,7,255,960,250,0,0,-89.594,0.532,-31.066
EX0521-092111,3,C26,prep,961,961,0,379569.092,0.685,-0.678,0.192,0.187,0,0,0,0,0,0,0,0,0,0.000,0,0,0.085,0.002,0.000,-0.060,-0.060,0.014,0.994,0.012,0.000,0.002,-0.004,0.000,0.000,0.000,0.000,0,2,0,1,7,255,960,250,0,0,-89.594,0.531,-31.066
EX0521-092111,3,C26,prep,961,961,0,379574.091,0.685,-0.678,0.192,0.187,0,0,0,0,0,0,0,0,0,0.000,0,0,0.060,0.006,0.000,-0.060,0.000,0.014,0.995,0.011,-0.004,-0.004,-0.004,0.000,0.000,0.000,0.000,0,2,0,1,7,255,960,250,0,0,-89.595,0.530,-31.066
EX0521-092111,3,C26,prep,982,982,0,379579.092,0.685,-0.678,0.192,0.187,0,0,0,0,0,0,0,0,0,0.000,0,0,0.104,0.006,-0.060,-0.060,-0.060,0.016,0.994,0.010,-0.004,-0.004,-0.004,0.000,0.000,0.000,0.000,0,2,0,1,7,255,960,250,0,0,-89.595,0.531,-31.066
EX0521-092111,3,C26,prep,982,982,0,379584.091,0.685,-0.678,0.192,0.187,0,0,0,0,0,0,0,0,0,0.000,0,0,0.085,0.004,0.060,-0.060,0.000,0.015,0.994,0.011,-0.002,-0.004,0.000,0.000,0.000,0.000,0.000,0,2,0,1,7,255,960,250,0,0,-89.596,0.531,-31.066
EX0521-092111,3,C26,prep,982,982,0,379589.092,0.685,-0.678,0.192,0.187,0,0,0,0,0,0,0,0,0,0.000,0,0,0.120,0.006,0.000,-0.120,0.000,0.015,0.995,0.011,-0.002,-0.006,0.000,0.000,0.000,0.000,0.000,0,2,0,1,7,255,960,250,0,0,-89.596,0.532,-31.066
EX0521-092111,3,C26,prep,982,982,0,379594.091,0.685,-0.678,0.192,0.187,0,0,0,0,0,0,0,0,0,0.000,0,0,0.147,0.006,-0.060,-0.120,-0.060,0.014,0.993,0.010,-0.002,-0.006,0.000,0.000,0.000,0.000,0.000,0,2,0,1,7,255,960,250,0,0,-89.597,0.531,-31.066
EX0521-092111,3,C26,prep,982,982,0,379599.092,0.685,-0.678,0.192,0.187,0,0,0,0,0,0,0,0,0,0.000,0,0,0.104,0.004,-0.060,-0.060,-0.060,0.015,0.995,0.011,0.000,-0.004,0.006,0.000,0.000,0.000,0.000,0,2,0,1,7,255,960,250,0,0,-89.597,0.532,-31.066
EX0521-092111,3,C26,prep,982,982,0,379604.091,0.685,-0.678,0.192,0.187,0,0,0,0,0,0,0,0,0,0.000,0,0,0.060,0.004,0.000,-0.060,0.000,0.014,0.994,0.011,0.000,-0.004,-0.004,0.000,0.000,0.000,0.000,0,2,0,1,7,255,960,250,0,0,-89.598,0.531,-31.066
EX0521-092111,3,C26,prep,1037,1037,0,379609.092,0.685,-0.678,0.192,0.187,0,0,0,0,0,0,0,0,0,0.000,0,0,0.104,0.004,-0.060,-0.060,-0.060,0.014,0.994,0.010,0.000,-0.004,0.000,0.000,0.000,0.000,0.000,0,2,0,1,7,255,960,250,0,0,-89.598,0.530,-31.066
EX0521-092111,3,C26,prep,1037,1037,0,379614.091,0.685,-0.678,0.192,0.187,0,0,0,0,0,0,0,0,0,0.000,0,0,0.060,0.007,0.000,-0.060,0.000,0.015,0.995,0.012,-0.006,-0.004,0.000,0.000,0.000,0.000,0.000,0,2,0,1,7,255,960,250,0,0,-89.594,0.530,-31.066
EX0521-092111,3,C26,prep,1037,1037,0,379619.092,0.685,-0.678,0.192,0.187,0,0,0,0,0,0,0,0,0,0.000,0,0,0.060,0.003,0.000,-0.060,0.000,0.014,0.994,0.011,-0.002,0.002,0.000,0.000,0.000,0.000,0.000,0,2,0,1,7,255,960,250,0,0,-89.594,0.529,-31.066
EX0521-092111,3,C26,prep,1037,1037,0,379624.092,0.685,-0.678,0.192,0.187,0,0,0,0,0,0,0,0,0,0.000,0,0,0.104,0.010,-0.060,-0.060,-0.060,0.014,0.995,0.012,-0.006,-0.008,0.006,0.000,0.000,0.000,0.000,0,2,0,1,7,255,960,250,0,0,-89.595,0.529,-31.066
EX0521-092111,3,C26,prep,1046,1046,0,379629.092,0.685,-0.678,0.192,0.187,0,0,0,0,0,0,0,0,0,0.000,0,0,0.085,0.006,0.000,-0.060,-0.060,0.014,0.994,0.011,-0.006,0.002,0.000,0.000,0.000,0.000,0.000,0,2,0,1,7,255,960,250,0,0,-89.595,0.528,-31.066
EX0521-092111,3,C26,prep,1046,1046,0,379634.093,0.685,-0.678,0.192,0.187,0,0,0,0,0,0,0,0,0,0.000,0,0,0.085,0.008,-0.060,-0.060,0.000,0.014,0.994,0.011,-0.008,-0.002,0.000,0.000,0.000,0.000,0.000,0,2,0,1,7,255,960,250,0,0,-89.596,0.527,-31.066
EX0521-092111,3,C26,prep,1046,1046,0,379639.092,0.685,-0.678,0.192,0.187,0,0,0,0,0,0,0,0,0,0.000,0,0,0.085,0.006,0.000,-0.060,-0.060,0.016,0.994,0.011,-0.006,-0.002,0.000,0.000,0.000,0.000,0.000,0,2,0,1,7,255,960,250,0,0,-89.596,0.528,-31.066
EX0521-092111,3,C26,prep,1046,1046,0,379644.091,0.685,-0.678,0.192,0.187,0,0,0,0,0,0,0,0,0,0.000,0,0,0.085,0.010,0.000,-0.060,-0.060,0.014,0.993,0.012,-0.008,-0.006,0.000,0.000,0.000,0.000,0.000,0,2,0,1,7,255,960,250,0,0,-89.597,0.527,-31.066
EX0521-092111,3,C26,prep,1046,1046,0,379649.092,0.685,-0.678,0.192,0.187,0,0,0,0,0,0,0,0,0,0.000,0,0,0.060,0.006,0.000,-0.060,0.000,0.014,0.994,0.011,-0.002,-0.006,0.000,0.000,0.000,0.000,0.000,0,2,0,1,7,255,960,250,0,0,-89.597,0.527,-31.066
EX0521-092111,3,C26,prep,1046,1046,0,379654.091,0.685,-0.678,0.192,0.187,0,0,0,0,0,0,0,0,0,0.000,0,0,0.104,0.002,-0.060,-0.060,-0.060,0.015,0.995,0.010,-0.002,0.000,0.000,0.000,0.000,0.000,0.000,0,2,0,1,7,255,960,250,0,0,-89.598,0.528,-31.066
EX0521-092111,3,C26,prep,1046,1046,0,379659.092,0.685,-0.678,0.192,0.187,0,0,0,0,0,0,0,0,0,0.000,0,0,0.085,0.000,0.060,-0.060,0.000,0.015,0.994,0.011,0.000,0.000,0.000,0.000,0.000,0.000,0.000,0,2,0,1,7,255,960,250,0,0,-89.598,0.528,-31.066
EX0521-092111,3,C26,prep,1046,1046,0,379664.092,0.685,-0.678,0.192,0.187,0,0,0,0,0,0,0,0,0,0.000,0,0,0.147,0.004,-0.060,-0.120,-0.060,0.014,0.995,0.011,0.000,-0.004,0.010,0.000,0.000,0.000,0.000,0,2,0,1,7,255,960,250,0,0,-89.599,0.529,-31.066
EX0521-092111,3,C26,prep,1072,1072,0,379669.092,0.685,-0.678,0.192,0.187,1,0,0,0,0,0,0,0,0,0.000,0,0,0.085,0.006,0.000,-0.060,-0.060,0.015,0.993,0.011,0.000,-0.006,0.000,0.000,0.000,0.000,0.000,0,2,0,1,7,255,960,250,0,0,-89.599,0.529,-31.066
EX0521-092111,3,C26,prep,1072,1072,0,379674.091,0.685,-0.678,0.192,0.187,0,0,0,0,0,0,0,0,0,0.000,0,0,0.060,0.004,0.000,-0.060,0.000,0.015,0.995,0.011,0.000,-0.004,0.006,0.000,0.000,0.000,0.000,0,2,0,1,7,255,960,250,0,0,-89.600,0.530,-31.066
EX0521-092111,3,C26,prep,1073,1073,0,379679.092,0.685,-0.678,0.192,0.187,0,0,0,0,0,0,0,0,0,0.000,0,0,0.134,0.004,-0.060,-0.120,0.000,0.014,0.993,0.011,0.000,-0.004,-0.010,0.000,0.000,0.000,0.000,0,2,0,1,7,255,960,250,0,0,-89.600,0.529,-31.066
EX0521-092111,3,C26,prep,1073,1073,0,379684.091,0.685,-0.678,0.192,0.187,0,0,0,0,0,0,0,0,0,0.000,0,0,0.085,0.006,0.000,-0.060,-0.060,0.014,0.994,0.011,-0.006,0.002,0.000,0.000,0.000,0.000,0.000,0,2,0,1,7,255,960,250,0,0,-89.601,0.528,-31.066
EX0521-092111,3,C26,prep,1078,1078,0,379689.092,0.685,-0.678,0.192,0.187,0,0,0,0,0,0,0,0,0,0.000,0,0,0.060,0.006,0.000,-0.060,0.000,0.015,0.994,0.010,-0.006,0.002,-0.004,0.000,0.000,0.000,0.000,0,2,0,1,7,255,960,250,0,0,-89.601,0.529,-31.066
EX0521-092111,3,C26,prep,1078,1078,0,379694.091,0.685,-0.678,0.192,0.187,0,0,0,0,0,0,0,0,0,0.000,0,0,0.060,0.003,0.000,-0.060,0.000,0.015,0.994,0.011,0.002,0.002,0.000,0.000,0.000,0.000,0.000,0,2,0,1,7,255,960,250,0,0,-89.602,0.529,-31.066
EX0521-092111,3,C26,prep,1097,1097,0,379699.092,0.685,-0.678,0.192,0.187,0,0,0,0,0,0,0,0,0,0.000,0,0,0.060,0.003,0.000,-0.060,0.000,0.015,0.994,0.012,0.002,-0.002,0.000,0.000,0.000,0.000,0.000,0,2,0,1,7,255,960,250,0,0,-89.602,0.530,-31.066
EX0521-092111,3,C26,prep,1097,1097,0,379704.091,0.685,-0.678,0.192,0.187,0,0,0,0,0,0,0,0,0,0.000,0,0,0.120,0.006,0.000,-0.120,0.000,0.014,0.995,0.011,-0.004,-0.004,0.000,0.000,0.000,0.000,0.000,0,2,0,1,7,255,960,250,0,0,-89.603,0.529,-31.066
EX0521-092111,3,C26,prep,1135,1135,0,379709.092,0.684,-0.678,0.192,0.187,0,0,0,0,0,0,0,0,0,0.000,0,0,0.134,0.006,-0.060,-0.120,0.000,0.015,0.995,0.011,-0.004,-0.004,0.006,0.000,0.000,0.000,0.000,0,2,0,1,7,255,960,250,0,0,-89.603,0.530,-31.066
EX0521-092111,3,C26,prep,1135,1135,0,379714.091,0.684,-0.678,0.192,0.187,0,0,0,0,0,0,0,0,0,0.000,0,0,0.060,0.003,0.000,-0.060,0.000,0.015,0.995,0.010,0.002,-0.002,0.006,0.000,0.000,0.000,0.000,0,2,0,1,7,255,960,250,0,0,-89.604,0.530,-31.066
EX0521-092111,3,C26,prep,1135,1135,0,379719.092,0.684,-0.678,0.192,0.187,0,0,0,0,0,0,0,0,0,0.000,0,0,0.060,0.003,0.000,-0.060,0.000,0.014,0.994,0.011,0.002,-0.002,0.004,0.000,0.000,0.000,0.000,0,2,0,1,7,255,960,250,0,0,-89.604,0.529,-31.066
EX0521-092111,3,C26,prep,1135,1135,0,379724.092,0.684,-0.678,0.192,0.187,0,0,0,0,0,0,0,0,0,0.000,0,0,0.085,0.006,0.000,-0.060,-0.060,0.014,0.993,0.011,-0.006,-0.002,0.000,0.000,0.000,0.000,0.000,0,2,0,1,7,255,960,250,0,0,-89.605,0.528,-31.066
EX0521-092111,3,C26,prep,1135,1135,0,379729.092,0.684,-0.678,0.192,0.187,0,0,0,0,0,0,0,0,0,0.000,0,0,0.060,0.006,0.000,-0.060,0.000,0.014,0.994,0.011,-0.006,-0.002,0.000,0.000,0.000,0.000,0.000,0,2,0,1,7,255,960,250,0,0,-89.605,0.527,-31.066
EX0521-092111,3,C26,prep,1135,1135,0,379734.093,0.684,-0.678,0.192,0.187,0,0,0,0,0,0,0,0,0,0.000,0,0,0.085,0.006,0.060,-0.060,0.000,0.015,0.993,0.011,-0.006,-0.002,-0.010,0.000,0.000,0.000,0.000,0,2,0,1,7,255,960,250,0,0,-89.606,0.528,-31.066
EX0521-092111,3,C26,prep,1143,1143,0,379739.092,0.684,-0.678,0.192,0.187,0,0,0,0,0,0,0,0,0,0.000,0,0,0.120,0.002,0.000,-0.120,0.000,0.014,0.995,0.010,0.000,0.002,0.000,0.000,0.000,0.000,0.000,0,2,0,1,7,255,960,250,0,0,-89.607,0.528,-31.066
EX0521-092111,3,C26,prep,1143,1143,0,379744.092,0.684,-0.678,0.192,0.187,0,0,0,0,0,0,0,0,0,0.000,0,0,0.085,0.000,0.000,-0.060,-0.060,0.013,0.995,0.011,0.000,0.000,0.006,0.000,0.000,0.000,0.000,0,2,0,1,7,255,960,250,0,0,-89.607,0.527,-31.066
EX0521-092111,3,C26,prep,1143,1143,0,379749.092,0.684,-0.678,0.192,0.187,0,0,0,0,0,0,0,0,0,0.000,0,0,0.085,0.004,-0.060,-0.060,0.000,0.014,0.993,0.011,-0.004,0.000,0.006,0.000,0.000,0.000,0.000,0,2,0,1,7,255,960,250,0,0,-89.608,0.528,-31.066
EX0521-092111,3,C26,prep,1143,1143,0,379754.092,0.684,-0.678,0.192,0.187,0,0,0,0,0,0,0,0,0,0.000,0,0,0.060,0.004,0.000,-0.060,0.000,0.015,0.995,0.011,-0.004,-0.002,0.006,0.000,0.000,0.000,0.000,0,2,0,1,7,255,960,250,0,0,-89.608,0.528,-31.066
EX0521-092111,3,C26,prep,1143,1143,0,379759.092,0.684,-0.678,0.192,0.187,0,0,0,0,0,0,0,0,0,0.000,0,0,0.120,0.003,0.000,-0.120,0.000,0.015,0.993,0.010,0.002,-0.002,-0.010,0.000,0.000,0.000,0.000,0,2,0,1,7,255,960,250,0,0,-89.609,0.529,-31.066
EX0521-092111,3,C26,prep,1143,1143,0,379764.093,0.684,-0.678,0.192,0.187,0,0,0,0,0,0,0,0,0,0.000,0,0,0.085,0.003,-0.060,-0.060,0.000,0.014,0.994,0.011,0.002,-0.002,-0.004,0.000,0.000,0.000,0.000,0,2,0,1,7,255,960,250,0,0,-89.609,0.528,-31.066
EX0521-092111,3,C26,prep,1169,1169,0,379769.092,0.684,-0.678,0.192,0.187,0,0,0,0,0,0,0,0,0,0.000,0,0,0.085,0.002,0.000,-0.060,-0.060,0.014,0.994,0.010,0.000,-0.002,-0.004,0.000,0.000,0.000,0.000,0,2,0,1,7,255,960,250,0,0,-89.610,0.529,-31.066
EX0521-092111,3,C26,prep,1169,1169,0,379774.092,0.684,-0.678,0.192,0.187,0,0,0,0,0,0,0,0,0,0.000,0,0,0.060,0.003,0.000,-0.060,0.000,0.015,0.993,0.011,-0.002,-0.002,-0.004,0.000,0.000,0.000,0.000,0,2,0,1,7,255,960,250,0,0,-89.610,0.529,-31.066
EX0521-092111,3,C26,prep,1169,1169,0,379779.091,0.684,-0.678,0.192,0.187,0,0,0,0,0,0,0,0,0,0.000,0,0,0.060,0.008,0.000,-0.060,0.000,0.015,0.994,0.011,-0.002,-0.008,-0.004,0.000,0.000,0.000,0.000,0,2,0,1,7,255,960,250,0,0,-89.611,0.530,-31.066
EX0521-092111,3,C26,prep,1169,1169,0,379784.092,0.684,-0.678,0.192,0.187,0,0,0,0,0,0,0,0,0,0.000,0,0,0.060,0.008,0.000,-0.060,0.000,0.015,0.994,0.011,-0.002,-0.008,-0.004,0.000,0.000,0.000,0.000,0,2,0,1,7,255,960,250,0,0,-89.611,0.531,-31.066
EX0521-092111,3,C26,prep,1208,1208,0,379789.091,0.684,-0.678,0.192,0.187,0,0,0,0,0,0,0,0,0,0.000,0,0,0.085,0.006,0.000,-0.060,-0.060,0.013,0.994,0.012,-0.002,-0.006,-0.004,0.000,0.000,0.000,0.000,0,2,0,1,7,255,960,250,0,0,-89.612,0.530,-31.066
EX0521-092111,3,C26,prep,1208,1208,0,379794.092,0.684,-0.678,0.192,0.187,0,0,0,0,0,0,0,0,0,0.000,0,0,0.060,0.007,0.000,-0.060,0.000,0.015,0.994,0.010,0.006,-0.004,-0.004,0.000,0.000,0.000,0.000,0,2,0,1,7,255,960,250,0,0,-89.612,0.530,-31.066
EX0521-092111,3,C26,prep,1208,1208,0,379799.091,0.684,-0.678,0.192,0.187,0,0,0,0,0,0,0,0,0,0.000,0,0,0.104,0.004,-0.060,-0.060,-0.060,0.015,0.993,0.010,0.004,0.000,-0.004,0.000,0.000,0.000,0.000,0,2,0,1,7,255,960,250,0,0,-89.613,0.531,-31.066
EX0521-092111,3,C26,prep,1208,1208,0,379804.092,0.684,-0.678,0.192,0.187,0,0,0,0,0,0,0,0,0,0.000,0,0,0.120,0.004,0.000,-0.120,0.000,0.015,0.994,0.012,0.004,0.000,-0.004,0.000,0.000,0.000,0.000,0,2,0,1,7,255,960,250,0,0,-89.609,0.532,-31.066
EX0521-092111,3,C26,prep,1209,1209,0,379809.091,0.684,-0.678,0.192,0.187,0,0,0,0,0,0,0,0,0,0.000,0,0,0.060,0.010,0.000,-0.060,0.000,0.015,0.993,0.012,0.000,-0.010,-0.014,0.000,0.000,0.000,0.000,0,2,0,1,7,255,960,250,0,0,-89.609,0.532,-31.066
EX0521-092111,3,C26,prep,1209,1209,0,379814.092,0.684,-0.678,0.192,0.187,0,0,0,0,0,0,0,0,0,0.000,0,0,0.085,0.010,0.060,-0.060,0.000,0.015,0.993,0.011,-0.002,-0.010,-0.008,0.000,0.000,0.000,0.000,0,2,0,1,7,255,960,250,0,0,-89.610,0.533,-31.066
EX0521-092111,3,C26,prep,1270,1270,0,379819.091,0.684,-0.678,0.192,0.187,0,0,0,0,0,0,0,0,0,0.000,0,0,0.085,0.006,0.000,-0.060,-0.060,0.015,0.994,0.010,0.000,-0.006,-0.008,0.000,0.000,0.000,0.000,0,2,0,1,7,255,960,250,0,0,-89.610,0.533,-31.066
EX0521-092111,3,C26,prep,1270,1270,0,379824.092,0.684,-0.678,0.192,0.187,0,0,0,0,0,0,0,0,0,0.000,0,0,0.060,0.003,0.000,-0.060,0.000,0.014,0.994,0.010,0.002,0.002,0.002,0.000,0.000,0.000,0.000,0,2,0,1,7,255,960,250,0,0,-89.611,0.532,-31.066
EX0521-092111,3,C26,prep,1270,1270,0,379829.091,0.684,-0.678,0.192,0.187,0,0,0,0,0,0,0,0,0,0.000,0,0,0.060,0.003,0.000,-0.060,0.000,0.014,0.994,0.012,0.002,0.002,0.002,0.000,0.000,0.000,0.000,0,2,0,1,7,255,960,250,0,0,-89.611,0.531,-31.066
EX0521-092111,3,C26,prep,1270,1270,0,379834.093,0.684,-0.678,0.192,0.187,0,0,0,0,0,0,0,0,0,0.000,0,0,0.104,0.002,-0.060,-0.060,-0.060,0.015,0.995,0.011,0.000,-0.002,0.002,0.000,0.000,0.000,0.000,0,2,0,1,7,255,960,250,0,0,-89.612,0.532,-31.066
EX0521-092111,3,C26,prep,1270,1270,0,379839.091,0.684,-0.678,0.192,0.187,0,0,0,0,0,0,0,0,0,0.000,0,0,0.085,0.008,-0.060,-0.060,0.000,0.015,0.995,0.012,-0.006,-0.006,0.006,0.000,0.000,0.000,0.000,0,2,0,1,7,255,960,250,0,0,-89.607,0.533,-31.066
EX0521-092111,3,C26,prep,1270,1270,0,379844.092,0.684,-0.678,0.192,0.187,0,0,0,0,0,0,0,0,0,0.000,0,0,0.085,0.006,-0.060,0.000,-0.060,0.014,0.994,0.011,-0.006,-0.002,0.006,0.000,0.000,0.000,0.000,0,2,0,1,7,255,960,250,0,0,-89.608,0.532,-31.066
EX0521-092111,3,C26,prep,1270,1270,0,379849.091,0.684,-0.678,0.192,0.187,0,0,0,0,0,0,0,0,0,0.000,0,0,0.104,0.007,-0.060,-0.060,-0.060,0.014,0.993,0.011,-0.006,-0.004,0.000,0.000,0.000,0.000,0.000,0,2,0,1,7,255,960,250,0,0,-89.608,0.531,-31.066
EX0521-092111,3,C26,prep,1270,1270,0,379854.092,0.684,-0.678,0.192,0.187,0,0,0,0,0,0,0,0,0,0.000,0,0,0.085,0.007,-0.060,-0.060,0.000,0.015,0.994,0.011,-0.006,-0.004,-0.004,0.000,0.000,0.000,0.000,0,2,0,1,7,255,960,250,0,0,-89.609,0.531,-31.066
EX0521-092111,3,C26,prep,1270,1270,0,379859.091,0.684,-0.678,0.192,0.187,0,0,0,0,0,0,0,0,0,0.000,0,0,0.134,0.006,-0.060,-0.120,0.000,0.016,0.994,0.011,-0.002,-0.006,-0.004,0.000,0.000,0.000,0.000,0,2,0,1,7,255,960,250,0,0,-89.609,0.532,-31.066
EX0521-092111,3,C26,prep,1270,1270,0,379864.092,0.684,-0.678,0.192,0.187,0,0,0,0,0,0,0,0,0,0.000,0,0,0.060,0.007,0.000,-0.060,0.000,0.015,0.994,0.010,0.004,-0.006,-0.004,0.000,0.000,0.000,0.000,0,2,0,1,7,255,960,250,0,0,-89.610,0.533,-31.066
EX0521-092111,3,C26,prep,1270,1270,0,379869.091,0.684,-0.678,0.192,0.187,0,0,0,0,0,0,0,0,0,0.000,0,0,0.085,0.007,0.000,-0.060,-0.060,0.014,0.994,0.012,0.004,-0.006,0.002,0.000,0.000,0.000,0.000,0,2,0,1,7,255,960,250,0,0,-89.610,0.532,-31.066
EX0521-092111,3,C26,prep,1270,1270,0,379874.092,0.684,-0.678,0.192,0.187,0,0,0,0,0,0,0,0,0,0.000,0,0,0.085,0.003,0.000,-0.060,-0.060,0.015,0.993,0.011,0.002,-0.002,0.002,0.000,0.000,0.000,0.000,0,2,0,1,7,255,960,250,0,0,-89.611,0.532,-31.066
EX0521-092111,3,C26,prep,1271,1271,0,379879.091,0.684,-0.678,0.192,0.187,0,0,0,0,0,0,0,0,0,0.000,0,0,0.085,0.007,0.060,-0.060,0.000,0.014,0.993,0.011,-0.006,-0.004,-0.008,0.000,0.000,0.000,0.000,0,2,0,1,7,255,960,250,0,0,-89.611,0.531,-31.066
EX0521-092111,3,C26,prep,1271,1271,0,379884.092,0.684,-0.678,0.192,0.187,0,0,0,0,0,0,0,0,0,0.000,0,0,0.085,0.006,0.000,-0.060,-0.060,0.013,0.994,0.011,-0.006,-0.002,-0.008,0.000,0.000,0.000,0.000,0,2,0,1,7,255,960,250,0,0,-89.612,0.531,-31.066
EX0521-092111,3,C26,prep,1286,1286,0,379889.091,0.684,-0.678,0.192,0.187,0,0,0,0,0,0,0,0,0,0.000,0,0,0.104,0.006,-0.060,-0.060,-0.060,0.014,0.995,0.010,-0.006,0.000,-0.004,0.000,0.000,0.000,0.000,0,2,0,1,7,255,960,250,0,0,-89.612,0.530,-31.066
EX0521-092111,3,C26,prep,1286,1286,0,379894.092,0.684,-0.678,0.192,0.187,0,0,0,0,0,0,0,0,0,0.000,0,0,0.060,0.011,0.000,-0.060,0.000,0.013,0.993,0.011,-0.010,0.004,-0.004,0.000,0.000,0.000,0.000,0,2,0,1,7,255,960,250,0,0,-89.613,0.529,-31.066
EX0521-092111,3,C26,prep,1286,1286,0,379899.091,0.684,-0.678,0.192,0.187,0,0,0,0,0,0,0,0,0,0.000,0,0,0.120,0.004,0.000,-0.120,0.000,0.016,0.995,0.010,0.000,0.004,0.006,0.000,0.000,0.000,0.000,0,2,0,1,7,255,960,250,0,0,-89.613,0.529,-31.066
EX0521-092111,3,C26,prep,1286,1286,0,379904.092,0.684,-0.678,0.192,0.187,0,0,0,0,0,0,0,0,0,0.000,0,0,0.060,0.006,0.000,-0.060,0.000,0.014,0.993,0.010,-0.004,0.004,-0.008,0.000,0.000,0.000,0.000,0,2,0,1,7,255,960,250,0,0,-89.614,0.529,-31.066
EX0521-092111,3,C26,prep,1337,1337,0,379909.091,0.684,-0.678,0.192,0.187,0,0,0,0,0,0,0,0,0,0.000,0,0,0.147,0.007,-0.060,-0.120,-0.060,0.015,0.995,0.011,0.006,-0.004,0.006,0.000,0.000,0.000,0.000,0,2,0,1,7,255,960,250,0,0,-89.614,0.529,-31.066
EX0521-092111,3,C26,prep,1337,1337,0,379914.092,0.684,-0.678,0.192,0.187,0,0,0,0,0,0,0,0,0,0.000,0,0,0.040,0.006,0.000,-0.040,0.000,0.015,0.995,0.010,0.006,-0.002,0.006,0.000,0.000,0.000,0.000,0,2,0,1,7,255,960,250,0,0,-89.615,0.530,-31.066
EX0521-092111,3,C26,prep,1338,1338,0,379919.091,0.684,-0.678,0.192,0.187,0,0,0,0,0,0,0,0,0,0.000,0,0,0.072,0.006,-0.060,-0.040,0.000,0.013,0.994,0.010,0.006,-0.002,0.006,0.000,0.000,0.000,0.000,0,2,0,1,7,255,960,250,0,0,-89.615,0.529,-31.066
EX0521-092111,3,C26,prep,1338,1338,0,379924.092,0.684,-0.678,0.192,0.187,0,0,0,0,0,0,0,0,0,0.000,0,0,0.040,0.004,0.000,-0.040,0.000,0.015,0.993,0.012,-0.004,-0.002,0.002,0.000,0.000,0.000,0.000,0,2,0,1,7,255,960,250,0,0,-89.611,0.530,-31.066
EX0521-092111,3,C26,prep,1338,1338,0,379929.091,0.684,-0.678,0.192,0.187,0,0,0,0,0,0,0,0,0,0.000,0,0,0.072,0.006,0.000,-0.040,-0.060,0.014,0.994,0.011,-0.006,0.002,-0.004,0.000,0.000,0.000,0.000,0,2,0,1,7,255,960,250,0,0,-89.612,0.529,-31.066
EX0521-092111,3,C26,prep,1338,1338,0,379934.093,0.684,-0.678,0.192,0.187,0,0,0,0,0,0,0,0,0,0.000,0,0,0.063,0.006,-0.060,0.020,0.000,0.014,0.994,0.011,-0.004,-0.004,-0.004,0.000,0.000,0.000,0.000,0,2,0,1,7,255,960,250,0,0,-89.612,0.529,-31.066
EX0521-092111,3,C26,prep,1339,1339,0,379939.091,0.684,-0.678,0.192,0.187,0,0,0,0,0,0,0,0,0,0.000,0,0,0.072,0.006,-0.060,-0.040,0.000,0.016,0.994,0.011,-0.004,-0.004,-0.004,0.000,0.000,0.000,0.000,0,2,0,1,7,255,960,250,0,0,-89.613,0.530,-31.066
EX0521-092111,3,C26,prep,1339,1339,0,379944.092,0.684,-0.678,0.192,0.187,0,0,0,0,0,0,0,0,0,0.000,0,0,0.134,0.006,0.000,-0.120,-0.060,0.015,0.995,0.010,0.004,-0.004,0.002,0.000,0.000,0.000,0.000,0,2,0,1,7,255,960,250,0,0,-89.613,0.531,-31.066
EX0521-092111,3,C26,prep,1339,1339,0,379949.091,0.684,-0.678,0.192,0.187,0,0,0,0,0,0,0,0,0,0.000,0,0,0.040,0.004,0.000,-0.040,0.000,0.014,0.994,0.011,0.004,0.002,0.002,0.000,0.000,0.000,0.000,0,2,0,1,7,255,960,250,0,0,-89.614,0.530,-31.066
EX0521-092111,3,C26,prep,1339,1339,0,379954.092,0.684,-0.678,0.192,0.187,0,0,0,0,0,0,0,0,0,0.000,0,0,0.040,0.003,0.000,-0.040,0.000,0.014,0.995,0.011,-0.002,0.002,0.006,0.000,0.000,0.000,0.000,0,2,0,1,7,255,960,250,0,0,-89.614,0.529,-31.066
EX0521-092111,3,C26,prep,1350,1350,0,379959.092,0.684,-0.678,0.192,0.187,0,0,0,0,0,0,0,0,0,0.000,0,0,0.060,0.006,0.000,-0.060,0.000,0.014,0.994,0.011,-0.006,0.000,0.002,0.000,0.000,0.000,0.000,0,2,0,1,7,255,960,250,0,0,-89.615,0.529,-31.066
EX0521-092111,3,C26,prep,1350,1350,0,379964.093,0.684,-0.678,0.192,0.187,0,0,0,0,0,0,0,0,0,0.000,0,0,0.060,0.006,0.000,-0.060,0.000,0.015,0.995,0.012,-0.004,-0.004,0.006,0.000,0.000,0.000,0.000,0,2,0,1,7,255,960,250,0,0,-89.611,0.530,-31.066
EX0521-092111,3,C26,prep,1382,1382,0,379969.091,0.684,-0.678,0.192,0.187,0,0,0,0,0,0,0,0,0,0.000,0,0,0.060,0.006,0.000,-0.060,0.000,0.014,0.994,0.011,-0.004,-0.004,0.002,0.000,0.000,0.000,0.000,0,2,0,1,7,255,960,250,0,0,-89.611,0.530,-31.066
EX0521-092111,3,C26,prep,1382,1382,0,379974.092,0.684,-0.678,0.192,0.187,0,0,0,0,0,0,0,0,0,0.000,0,0,0.060,0.011,0.000,-0.060,0.000,0.015,0.995,0.012,-0.004,-0.010,0.006,0.000,0.000,0.000,0.000,0,2,0,1,7,255,960,250,0,0,-89.612,0.531,-31.066
EX0521-092111,3,C26,prep,1382,1382,0,379979.091,0.684,-0.678,0.192,0.187,0,0,0,0,0,0,0,0,0,0.000,0,0,0.063,0.006,-0.060,0.020,0.000,0.014,0.995,0.011,-0.004,-0.004,0.006,0.000,0.000,0.000,0.000,0,2,0,1,7,255,960,250,0,0,-89.612,0.530,-31.066
EX0521-092111,3,C26,prep,1382,1382,0,379984.092,0.684,-0.678,0.192,0.187,0,0,0,0,0,0,0,0,0,0.000,0,0,0.085,0.004,-0.060,-0.060,0.000,0.015,0.994,0.011,0.000,-0.004,0.006,0.000,0.000,0.000,0.000,0,2,0,1,7,255,960,250,0,0,-89.613,0.531,-31.066
EX0521-092111,3,C26,prep,1382,1382,0,379989.091,0.684,-0.678,0.192,0.187,0,0,0,0,0,0,0,0,0,0.000,0,0,0.134,0.004,0.000,-0.120,-0.060,0.015,0.993,0.011,0.002,-0.004,0.002,0.000,0.000,0.000,0.000,0,2,0,1,7,255,960,250,0,0,-89.613,0.531,-31.066
EX0521-092111,3,C26,prep,1382,1382,0,379994.092,0.684,-0.678,0.192,0.187,0,0,0,0,0,0,0,0,0,0.000,0,0,0.120,0.004,0.000,-0.120,0.000,0.014,0.995,0.011,0.002,-0.004,0.002,0.000,0.000,0.000,0.000,0,2,0,1,7,255,960,250,0,0,-89.614,0.530,-31.066
EX0521-092111,3,C26,prep,1407,1407,0,379999.091,0.684,-0.678,0.192,0.187,0,0,0,0,0,0,0,0,0,0.000,0,0,0.020,0.003,0.000,0.020,0.000,0.014,0.994,0.011,-0.002,-0.002,0.002,0.000,0.000,0.000,0.000,0,2,0,1,7,255,960,250,0,0,-89.614,0.529,-31.066
EX0521-092111,3,C26,prep,1407,1407,0,380004.092,0.684,-0.678,0.192,0.187,0,0,0,0,0,0,0,0,0,0.000,0,0,0.060,0.004,0.000,-0.060,0.000,0.015,0.994,0.011,-0.002,-0.004,0.002,0.000,0.000,0.000,0.000,0,2,0,1,7,255,960,250,0,0,-89.615,0.530,-31.066
EX0521-092111,3,C26,prep,1443,1443,0,380009.091,0.684,-0.678,0.192,0.187,0,0,0,0,0,0,0,0,0,0.000,0,0,0.060,0.002,0.000,-0.060,0.000,0.014,0.994,0.011,-0.002,0.000,0.002,0.000,0.000,0.000,0.000,0,2,0,1,7,255,960,250,0,0,-89.615,0.529,-31.066
EX0521-092111,3,C26,prep,1443,1443,0,380014.092,0.684,-0.678,0.192,0.187,0,0,0,0,0,0,0,0,0,0.000,0,0,0.060,0.004,0.000,-0.060,0.000,0.014,0.996,0.011,-0.002,-0.004,0.002,0.000,0.000,0.000,0.000,0,2,0,1,7,255,960,250,0,0,-89.616,0.528,-31.066
EX0521-092111,3,C26,prep,1443,1443,0,380019.092,0.684,-0.678,0.192,0.187,0,0,0,0,0,0,0,0,0,0.000,0,0,0.000,0.002,0.000,0.000,0.000,0.015,0.995,0.010,-0.002,0.000,0.006,0.000,0.000,0.000,0.000,0,2,0,1,7,255,960,250,0,0,-89.616,0.529,-31.066
EX0521-092111,3,C26,prep,1443,1443,0,380024.092,0.684,-0.678,0.192,0.187,0,0,0,0,0,0,0,0,0,0.000,0,0,0.060,0.008,0.000,-0.060,0.000,0.015,0.994,0.010,0.008,-0.002,0.006,0.000,0.000,0.000,0.000,0,2,0,1,7,255,960,250,0,0,-89.617,0.530,-31.066
EX0521-092111,3,C26,prep,1443,1443,0,380029.092,0.684,-0.678,0.192,0.187,0,0,0,0,0,0,0,0,0,0.000,0,0,0.060,0.010,0.000,-0.060,0.000,0.016,0.994,0.010,0.010,-0.002,0.000,0.000,0.000,0.000,0.000,0,2,0,1,7,255,960,250,0,0,-89.617,0.531,-31.066
EX0521-092111,3,C26,prep,1443,1443,0,380034.093,0.684,-0.678,0.192,0.187,0,0,0,0,0,0,0,0,0,0.000,0,0,0.120,0.009,0.000,-0.120,0.000,0.015,0.994,0.011,0.008,-0.004,-0.004,0.000,0.000,0.000,0.000,0,2,0,1,7,255,960,250,0,0,-89.618,0.531,-31.066
EX0521-092111,3,C26,prep,1443,1443,0,380039.092,0.684,-0.678,0.192,0.187,0,0,0,0,0,0,0,0,0,0.000,0,0,0.085,0.007,0.000,-0.060,-0.060,0.015,0.994,0.011,0.004,-0.006,-0.004,0.000,0.000,0.000,0.000,0,2,0,1,7,255,960,250,0,0,-89.618,0.532,-31.066
EX0521-092111,3,C26,prep,1443,1443,0,380044.092,0.684,-0.678,0.192,0.187,0,0,0,0,0,0,0,0,0,0.000,0,0,0.085,0.006,0.000,-0.060,-0.060,0.014,0.995,0.011,0.002,-0.006,-0.004,0.000,0.000,0.000,0.000,0,2,0,1,7,255,960,250,0,0,-89.619,0.531,-31.066
EX0521-092111,3,C26,prep,1444,1444,0,380049.092,0.684,-0.678,0.192,0.187,0,0,0,0,0,0,0,0,0,0.000,0,0,0.060,0.004,0.000,-0.060,0.000,0.015,0.994,0.010,0.002,-0.004,0.000,0.000,0.000,0.000,0.000,0,2,0,1,7,255,960,250,0,0,-89.619,0.532,-31.066
EX0521-092111,3,C26,prep,1444,1444,0,380054.091,0.684,-0.678,0.192,0.187,0,0,0,0,0,0,0,0,0,0.000,0,0,0.060,0.006,0.000,-0.060,0.000,0.014,0.994,0.010,-0.006,0.002,0.000,0.000,0.000,0.000,0.000,0,2,0,1,7,255,960,250,0,0,-89.620,0.531,-31.066
EX0521-092111,3,C26,prep,1445,1445,0,380059.092,0.684,-0.678,0.192,0.187,0,0,0,0,0,0,0,0,0,0.000,0,0,0.120,0.004,0.000,-0.120,0.000,0.014,0.994,0.010,0.000,0.004,0.000,0.000,0.000,0.000,0.000,0,2,0,1,7,255,960,250,0,0,-89.620,0.530,-31.066
EX0521-092111,3,C26,prep,1445,1445,0,380064.092,0.684,-0.678,0.192,0.187,0,0,0,0,0,0,0,0,0,0.000,0,0,0.085,0.006,0.000,-0.060,0.060,0.014,0.993,0.011,-0.004,0.004,-0.004,0.000,0.000,0.000,0.000,0,2,0,1,7,255,960,250,0,0,-89.621,0.530,-31.066
EX0521-092111,3,C26,prep,1477,1477,0,380069.092,0.684,-0.678,0.192,0.187,0,0,0,0,0,0,0,0,0,0.000,0,0,0.085,0.000,-0.060,-0.060,0.000,0.015,0.994,0.011,0.000,0.000,-0.004,0.000,0.000,0.000,0.000,0,2,0,1,7,255,960,250,0,0,-89.621,0.531,-31.066
EX0521-092111,3,C26,prep,1477,1477,0,380074.093,0.684,-0.678,0.192,0.187,0,0,0,0,0,0,0,0,0,0.000,0,0,0.134,0.002,0.000,-0.120,-0.060,0.015,0.994,0.010,0.000,-0.002,-0.004,0.000,0.000,0.000,0.000,0,2,0,1,7,255,960,250,0,0,-89.622,0.531,-31.066
EX0521-092111,3,C26,prep,1478,1478,0,380079.092,0.684,-0.678,0.192,0.187,0,0,0,0,0,0,0,0,0,0.000,0,0,0.104,0.003,-0.060,-0.060,-0.060,0.015,0.995,0.010,0.002,-0.002,-0.004,0.000,0.000,0.000,0.000,0,2,0,1,7,255,960,250,0,0,-89.622,0.532,-31.066
EX0521-092111,3,C26,prep,1478,1478,0,380084.091,0.684,-0.678,0.192,0.187,0,0,0,0,0,0,0,0,0,0.000,0,0,0.060,0.003,0.000,-0.060,0.000,0.015,0.994,0.011,0.002,-0.002,0.002,0.000,0.000,0.000,0.000,0,2,0,1,7,255,960,250,0,0,-89.623,0.533,-31.066
EX0521-092111,3,C26,prep,1478,1478,0,380089.092,0.684,-0.678,0.192,0.187,0,0,0,0,0,0,0,0,0,0.000,0,0,0.060,0.008,-0.060,0.000,0.000,0.015,0.995,0.011,-0.002,-0.008,0.006,0.000,0.000,0.000,0.000,0,2,0,1,7,255,960,250,0,0,-89.623,0.533,-31.066
EX0521-092111,3,C26,prep,1478,1478,0,380094.091,0.684,-0.678,0.192,0.187,0,0,0,0,0,0,0,0,0,0.000,0,0,0.000,0.008,0.000,0.000,0.000,0.014,0.994,0.011,-0.002,-0.008,0.002,0.000,0.000,0.000,0.000,0,2,0,1,7,255,960,250,0,0,-89.624,0.532,-31.066
EX0521-092111,3,C26,prep,1496,1496,0,380099.092,0.684,-0.678,0.192,0.187,0,0,0,0,0,0,0,0,0,0.000,0,0,0.060,0.002,0.000,-0.060,0.000,0.015,0.993,0.010,-0.002,0.000,0.000,0.000,0.000,0.000,0.000,0,2,0,1,7,255,960,250,0,0,-89.624,0.533,-31.066
EX0521-092111,3,C26,prep,1497,1497,0,380104.092,0.684,-0.678,0.192,0.187,0,0,0,0,0,0,0,0,0,0.000,0,0,0.060,0.002,0.000,-0.060,0.000,0.015,0.994,0.011,-0.002,0.000,0.000,0.000,0.000,0.000,0.000,0,2,0,1,7,255,960,250,0,0,-89.625,0.533,-31.066
EX0521-092111,3,C26,prep,1497,1497,0,380109.092,0.684,-0.678,0.192,0.187,0,0,0,0,0,0,0,0,0,0.000,0,0,0.085,0.002,-0.060,-0.060,0.000,0.015,0.995,0.010,0.002,0.000,0.002,0.000,0.000,0.000,0.000,0,2,0,1,7,255,960,250,0,0,-89.625,0.534,-31.066
EX0521-092111,3,C26,prep,1497,1497,0,380114.093,0.684,-0.678,0.192,0.187,0,0,0,0,0,0,0,0,0,0.000,0,0,0.060,0.008,0.000,-0.060,0.000,0.015,0.995,0.011,-0.002,-0.008,0.006,0.000,0.000,0.000,0.000,0,2,0,1,7,255,960,250,0,0,-89.626,0.535,-31.066
EX0521-092111,3,C26,prep,1531,1531,0,380119.092,0.684,-0.678,0.192,0.187,0,0,0,0,0,0,0,0,0,0.000,0,0,0.134,0.008,-0.060,-0.120,0.000,0.016,0.994,0.011,0.002,-0.008,0.006,0.000,0.000,0.000,0.000,0,2,0,1,7,255,960,250,0,0,-89.626,0.536,-31.066
EX0521-092111,3,C26,prep,1531,1531,0,380124.092,0.684,-0.678,0.192,0.187,0,0,0,0,0,0,0,0,0,0.000,0,0,0.134,0.009,0.060,-0.120,0.000,0.015,0.994,0.011,0.004,-0.008,0.002,0.000,0.000,0.000,0.000,0,2,0,1,7,255,960,250,0,0,-89.627,0.536,-31.066
EX0521-092111,3,C26,prep,1532,1532,0,380129.092,0.684,-0.678,0.192,0.187,0,0,0,0,0,0,0,0,0,0.000,0,0,0.085,0.007,0.060,-0.060,0.000,0.015,0.994,0.011,0.004,-0.006,0.000,0.000,0.000,0.000,0.000,0,2,0,1,7,255,960,250,0,0,-89.627,0.537,-31.066
EX0521-092111,3,C26,prep,1532,1532,0,380134.093,0.684,-0.678,0.192,0.187,0,0,0,0,0,0,0,0,0,0.000,0,0,0.085,0.007,0.000,-0.060,0.060,0.014,0.995,0.011,0.004,-0.006,0.000,0.000,0.000,0.000,0.000,0,2,0,1,7,255,960,250,0,0,-89.628,0.536,-31.066
EX0521-092111,3,C26,prep,1542,1542,0,380139.092,0.684,-0.678,0.192,0.187,0,0,0,0,0,0,0,0,0,0.000,0,0,0.085,0.007,-0.060,-0.060,0.000,0.015,0.994,0.011,-0.004,-0.006,0.000,0.000,0.000,0.000,0.000,0,2,0,1,7,255,960,250,0,0,-89.628,0.537,-31.066
EX0521-092111,3,C26,prep,1542,1542,0,380144.091,0.684,-0.678,0.192,0.187,0,0,0,0,0,0,0,0,0,0.000,0,0,0.085,0.009,-0.060,-0.060,0.000,0.015,0.993,0.011,-0.004,-0.008,-0.004,0.000,0.000,0.000,0.000,0,2,0,1,7,255,960,250,0,0,-89.629,0.537,-31.066
EX0521-092111,3,C26,prep,1542,1542,0,380149.092,0.684,-0.678,0.192,0.187,0,0,0,0,0,0,0,0,0,0.000,0,0,0.060,0.009,0.000,-0.060,0.000,0.015,0.994,0.012,-0.004,-0.008,-0.004,0.000,0.000,0.000,0.000,0,2,0,1,7,255,960,250,0,0,-89.625,0.538,-31.066
EX0521-092111,3,C26,prep,1542,1542,0,380154.091,0.684,-0.678,0.192,0.187,0,0,0,0,0,0,0,0,0,0.000,0,0,0.085,0.008,0.000,-0.060,-0.060,0.015,0.993,0.011,-0.002,-0.008,-0.014,0.000,0.000,0.000,0.000,0,2,0,1,7,255,960,250,0,0,-89.625,0.539,-31.066
EX0521-092111,3,C26,prep,1568,1568,0,380159.093,0.684,-0.678,0.192,0.187,0,0,0,0,0,0,0,0,0,0.000,0,0,0.060,0.008,0.000,-0.060,0.000,0.015,0.995,0.011,-0.002,-0.008,0.002,0.000,0.000,0.000,0.000,0,2,0,1,7,255,960,250,0,0,-89.626,0.539,-31.066
EX0521-092111,3,C26,prep,1568,1568,0,380164.093,0.684,-0.678,0.192,0.187,0,0,0,0,0,0,0,0,0,0.000,0,0,0.060,0.003,0.000,-0.060,0.000,0.014,0.993,0.011,-0.002,-0.002,-0.014,0.000,0.000,0.000,0.000,0,2,0,1,7,255,960,250,0,0,-89.626,0.538,-31.066
EX0521-092111,3,C26,prep,1568,1568,0,380169.092,0.684,-0.678,0.192,0.187,0,0,0,0,0,0,0,0,0,0.000,0,0,0.060,0.003,0.000,-0.060,0.000,0.016,0.994,0.011,-0.002,-0.002,-0.004,0.000,0.000,0.000,0.000,0,2,0,1,7,255,960,250,0,0,-89.627,0.539,-31.066
EX0521-092111,3,C26,prep,1568,1568,0,380174.091,0.684,-0.678,0.192,0.187,0,0,0,0,0,0,0,0,0,0.000,0,0,0.085,0.007,0.000,-0.060,-0.060,0.015,0.993,0.011,-0.004,-0.006,-0.012,0.000,0.000,0.000,0.000,0,2,0,1,7,255,960,250,0,0,-89.627,0.540,-31.066
EX0521-092111,3,C26,prep,1575,1575,0,380179.092,0.684,-0.678,0.192,0.187,0,0,0,0,0,0,0,0,0,0.000,0,0,0.060,0.006,0.000,-0.060,0.000,0.015,0.994,0.011,0.002,-0.006,-0.004,0.000,0.000,0.000,0.000,0,2,0,1,7,255,960,250,0,0,-89.628,0.540,-31.066
EX0521-092111,3,C26,prep,1575,1575,0,380184.091,0.684,-0.678,0.192,0.187,0,0,0,0,0,0,0,0,0,0.000,0,0,0.085,0.006,0.000,-0.060,-0.060,0.014,0.994,0.011,-0.004,-0.004,-0.004,0.000,0.000,0.000,0.000,0,2,0,1,7,255,960,250,0,0,-89.628,0.539,-31.066
EX0521-092111,3,C26,prep,1603,1603,0,380189.092,0.684,-0.678,0.192,0.187,0,0,0,0,0,0,0,0,0,0.000,0,0,0.085,0.004,0.000,-0.060,-0.060,0.015,0.994,0.011,0.000,-0.004,-0.004,0.000,0.000,0.000,0.000,0,2,0,1,7,255,960,250,0,0,-89.629,0.540,-31.066
EX0521-092111,3,C26,prep,1603,1603,0,380194.091,0.684,-0.678,0.192,0.187,0,0,0,0,0,0,0,0,0,0.000,0,0,0.085,0.009,0.060,-0.060,0.000,0.014,0.994,0.011,-0.008,-0.004,-0.004,0.000,0.000,0.000,0.000,0,2,0,1,7,255,960,250,0,0,-89.629,0.539,-31.066
EX0521-092111,3,C26,prep,1603,1603,0,380199.092,0.684,-0.678,0.192,0.187,0,0,0,0,0,0,0,0,0,0.000,0,0,0.060,0.011,0.000,-0.060,0.000,0.014,0.993,0.013,-0.008,-0.008,-0.004,0.000,0.000,0.000,0.000,0,2,0,1,7,255,960,250,0,0,-89.624,0.538,-31.066
EX0521-092111,3,C26,prep,1603,1603,0,380204.091,0.684,-0.678,0.192,0.187,0,0,0,0,0,0,0,0,0,0.000,0,0,0.120,0.009,0.000,-0.120,0.000,0.014,0.994,0.011,-0.008,-0.004,-0.004,0.000,0.000,0.000,0.000,0,2,0,1,7,255,960,250,0,0,-89.624,0.537,-31.066
EX0521-092111,3,C26,prep,1630,1630,0,380209.092,0.684,-0.678,0.192,0.187,0,0,0,0,0,0,0,0,0,0.000,0,0,0.060,0.010,0.000,-0.060,0.000,0.016,0.995,0.011,-0.006,-0.008,-0.004,0.000,0.000,0.000,0.000,0,2,0,1,7,255,960,250,0,0,-89.625,0.538,-31.066
EX0521-092111,3,C26,prep,1630,1630,0,380214.091,0.684,-0.678,0.192,0.187,0,0,0,0,0,0,0,0,0,0.000,0,0,0.060,0.010,0.000,-0.060,0.000,0.015,0.994,0.012,-0.006,-0.008,-0.004,0.000,0.000,0.000,0.000,0,2,0,1,7,255,960,250,0,0,-89.621,0.539,-31.066
EX0521-092111,3,C26,prep,1630,1630,0,380219.092,0.684,-0.678,0.192,0.187,0,0,0,0,0,0,0,0,0,0.000,0,0,0.060,0.010,0.000,-0.060,0.000,0.014,0.993,0.012,-0.006,-0.008,-0.004,0.000,0.000,0.000,0.000,0,2,0,1,7,255,960,250,0,0,-89.617,0.538,-31.066
EX0521-092111,3,C26,prep,1630,1630,0,380224.092,0.684,-0.678,0.192,0.187,0,0,0,0,0,0,0,0,0,0.000,0,0,0.120,0.010,0.000,-0.120,0.000,0.015,0.994,0.012,-0.006,-0.008,-0.004,0.000,0.000,0.000,0.000,0,2,0,1,7,255,960,250,0,0,-89.613,0.538,-31.066
EX0521-092111,3,C26,prep,1638,1638,0,380229.092,0.684,-0.678,0.192,0.187,0,0,0,0,0,0,0,0,0,0.000,0,0,0.060,0.007,0.000,-0.060,0.000,0.015,0.994,0.011,-0.004,-0.006,-0.004,0.000,0.000,0.000,0.000,0,2,0,1,7,255,960,250,0,0,-89.613,0.539,-31.066
EX0521-092111,3,C26,prep,1638,1638,0,380234.093,0.684,-0.678,0.192,0.187,0,0,0,0,0,0,0,0,0,0.000,0,0,0.060,0.006,0.000,-0.060,0.000,0.014,0.995,0.011,-0.004,-0.004,-0.004,0.000,0.000,0.000,0.000,0,2,0,1,7,255,960,250,0,0,-89.614,0.538,-31.066
EX0521-092111,3,C26,prep,1665,1665,0,380239.092,0.684,-0.678,0.192,0.187,0,0,0,0,0,0,0,0,0,0.000,0,0,0.085,0.004,0.000,-0.060,-0.060,0.014,0.994,0.011,-0.004,-0.002,0.002,0.000,0.000,0.000,0.000,0,2,0,1,7,255,960,250,0,0,-89.614,0.537,-31.066
EX0521-092111,3,C26,prep,1665,1665,0,380244.091,0.684,-0.678,0.192,0.187,0,0,0,0,0,0,0,0,0,0.000,0,0,0.060,0.006,0.000,-0.060,0.000,0.013,0.994,0.012,-0.006,0.000,0.002,0.000,0.000,0.000,0.000,0,2,0,1,7,255,960,250,0,0,-89.610,0.536,-31.066
EX0521-092111,3,C26,prep,1665,1665,0,380249.092,0.684,-0.678,0.192,0.187,0,0,0,0,0,0,0,0,0,0.000,0,0,0.085,0.006,0.000,-0.060,-0.060,0.015,0.994,0.011,-0.006,-0.002,0.002,0.000,0.000,0.000,0.000,0,2,0,1,7,255,960,250,0,0,-89.611,0.537,-31.066
EX0521-092111,3,C26,prep,1665,1665,0,380254.091,0.684,-0.678,0.192,0.187,0,0,0,0,0,0,0,0,0,0.000,0,0,0.120,0.009,0.000,-0.120,0.000,0.014,0.992,0.012,-0.008,-0.004,0.002,0.000,0.000,0.000,0.000,0,2,0,1,7,255,960,250,0,0,-89.607,0.536,-31.066
EX0521-092111,3,C26,prep,1665,1665,0,380259.092,0.684,-0.678,0.192,0.187,0,0,0,0,0,0,0,0,0,0.000,0,0,0.060,0.004,0.000,-0.060,0.000,0.015,0.994,0.011,-0.002,-0.004,0.002,0.000,0.000,0.000,0.000,0,2,0,1,7,255,960,250,0,0,-89.607,0.536,-31.066
EX0521-092111,3,C26,prep,1665,1665,0,380264.092,0.684,-0.678,0.192,0.187,0,0,0,0,0,0,0,0,0,0.000,0,0,0.104,0.003,-0.060,-0.060,-0.060,0.015,0.994,0.011,0.002,0.002,0.002,0.000,0.000,0.000,0.000,0,2,0,1,7,255,960,250,0,0,-89.608,0.537,-31.066
EX0521-092111,3,C26,prep,1667,1667,0,380269.092,0.684,-0.678,0.192,0.187,0,0,0,0,0,0,0,0,0,0.000,0,0,0.060,0.003,0.000,-0.060,0.000,0.014,0.993,0.011,0.002,0.002,0.002,0.000,0.000,0.000,0.000,0,2,0,1,7,255,960,250,0,0,-89.608,0.536,-31.066
EX0521-092111,3,C26,prep,1667,1667,0,380274.091,0.684,-0.678,0.192,0.187,0,0,0,0,0,0,0,0,0,0.000,0,0,0.000,0.006,0.000,0.000,0.000,0.015,0.995,0.010,0.002,0.006,0.002,0.000,0.000,0.000,0.000,0,2,0,1,7,255,960,250,0,0,-89.609,0.537,-31.066
EX0521-092111,3,C26,prep,1668,1668,0,380279.092,0.684,-0.678,0.192,0.187,0,0,0,0,0,0,0,0,0,0.000,0,0,0.085,0.006,-0.060,-0.060,0.000,0.014,0.994,0.011,-0.002,0.006,0.002,0.000,0.000,0.000,0.000,0,2,0,1,7,255,960,250,0,0,-89.609,0.536,-31.066
EX0521-092111,3,C26,prep,1668,1668,0,380284.091,0.684,-0.678,0.192,0.187,0,0,0,0,0,0,0,0,0,0.000,0,0,0.060,0.004,0.000,-0.060,0.000,0.015,0.994,0.011,0.000,0.004,0.002,0.000,0.000,0.000,0.000,0,2,0,1,7,255,960,250,0,0,-89.610,0.536,-31.066
EX0521-092111,3,C26,prep,1686,1686,0,380289.092,0.684,-0.678,0.192,0.187,0,0,0,0,0,0,0,0,0,0.000,0,0,0.060,0.003,0.000,-0.060,0.000,0.014,0.994,0.011,-0.002,0.002,0.002,0.000,0.000,0.000,0.000,0,2,0,1,7,255,960,250,0,0,-89.610,0.535,-31.066
EX0521-092111,3,C26,prep,1686,1686,0,380294.091,0.684,-0.678,0.192,0.187,0,0,0,0,0,0,0,0,0,0.000,0,0,0.060,0.000,0.000,-0.060,0.000,0.016,0.995,0.010,0.000,0.000,0.002,0.000,0.000,0.000,0.000,0,2,0,1,7,255,960,250,0,0,-89.611,0.536,-31.066
EX0521-092111,3,C26,prep,1702,1702,0,380299.092,0.684,-0.678,0.192,0.187,0,0,0,0,0,0,0,0,0,0.000,0,0,0.060,0.003,0.000,-0.060,0.000,0.014,0.993,0.011,-0.002,0.002,0.002,0.000,0.000,0.000,0.000,0,2,0,1,7,255,960,250,0,0,-89.611,0.535,-31.066
EX0521-092111,3,C26,prep,1702,1702,0,380304.091,0.684,-0.678,0.192,0.187,0,0,0,0,0,0,0,0,0,0.000,0,0,0.085,0.003,0.000,-0.060,0.060,0.014,0.994,0.011,-0.002,0.002,-0.004,0.000,0.000,0.000,0.000,0,2,0,1,7,255,960,250,0,0,-89.612,0.534,-31.066
EX0521-092111,3,C26,prep,1736,1736,0,380309.092,0.684,-0.678,0.192,0.187,0,0,0,0,0,0,0,0,0,0.000,0,0,0.060,0.003,0.000,-0.060,0.000,0.015,0.993,0.011,-0.002,0.002,-0.008,0.000,0.000,0.000,0.000,0,2,0,1,7,255,960,250,0,0,-89.612,0.535,-31.066
EX0521-092111,3,C26,prep,1736,1736,0,380314.091,0.684,-0.678,0.192,0.187,0,0,0,0,0,0,0,0,0,0.000,0,0,0.104,0.008,-0.060,-0.060,-0.060,0.014,0.994,0.011,-0.008,0.000,-0.004,0.000,0.000,0.000,0.000,0,2,0,1,7,255,960,250,0,0,-89.613,0.534,-31.066
EX0521-092111,3,C26,prep,1736,1736,0,380319.092,0.684,-0.678,0.192,0.187,0,0,0,0,0,0,0,0,0,0.000,0,0,0.134,0.002,0.000,-0.120,-0.060,0.016,0.995,0.010,0.002,0.000,-0.004,0.000,0.000,0.000,0.000,0,2,0,1,7,255,960,250,0,0,-89.613,0.535,-31.066
EX0521-092111,3,C26,prep,1736,1736,0,380324.092,0.684,-0.678,0.192,0.187,0,0,0,0,0,0,0,0,0,0.000,0,0,0.104,0.002,0.060,-0.060,-0.060,0.015,0.994,0.011,0.002,0.000,-0.002,0.000,0.000,0.000,0.000,0,2,0,1,7,255,960,250,0,0,-89.614,0.535,-31.066
EX0521-092111,3,C26,prep,1736,1736,0,380329.092,0.684,-0.678,0.192,0.187,0,0,0,0,0,0,0,0,0,0.000,0,0,0.120,0.008,0.000,-0.120,0.000,0.016,0.994,0.011,0.006,-0.006,0.002,0.000,0.000,0.000,0.000,0,2,0,1,7,255,960,250,0,0,-89.614,0.536,-31.066
EX0521-092111,3,C26,prep,1736,1736,0,380334.093,0.684,-0.678,0.192,0.187,0,0,0,0,0,0,0,0,0,0.000,0,0,0.085,0.006,0.000,-0.060,-0.060,0.014,0.993,0.010,0.002,-0.006,-0.002,0.000,0.000,0.000,0.000,0,2,0,1,7,255,960,250,0,0,-89.615,0.535,-31.066
EX0521-092111,3,C26,prep,1750,1750,0,380339.092,0.684,-0.678,0.192,0.187,0,0,0,0,0,0,0,0,0,0.000,0,0,0.085,0.008,-0.060,-0.060,0.000,0.015,0.994,0.012,0.000,-0.008,-0.002,0.000,0.000,0.000,0.000,0,2,0,1,7,255,960,250,0,0,-89.611,0.536,-31.066
EX0521-092111,3,C26,prep,1750,1750,0,380344.092,0.684,-0.678,0.192,0.187,0,0,0,0,0,0,0,0,0,0.000,0,0,0.060,0.007,0.000,-0.060,0.000,0.014,0.995,0.011,-0.004,0.006,-0.002,0.000,0.000,0.000,0.000,0,2,0,1,7,255,960,250,0,0,-89.611,0.535,-31.066
EX0521-092111,3,C26,prep,1750,1750,0,380349.092,0.684,-0.678,0.192,0.187,0,0,0,0,0,0,0,0,0,0.000,0,0,0.085,0.004,-0.060,-0.060,0.000,0.015,0.994,0.010,0.000,0.004,-0.002,0.000,0.000,0.000,0.000,0,2,0,1,7,255,960,250,0,0,-89.612,0.536,-31.066
EX0521-092111,3,C26,prep,1750,1750,0,380354.091,0.684,-0.678,0.192,0.187,0,0,0,0,0,0,0,0,0,0.000,0,0,0.085,0.004,0.000,-0.060,-0.060,0.015,0.993,0.011,0.002,0.004,-0.002,0.000,0.000,0.000,0.000,0,2,0,1,7,255,960,250,0,0,-89.612,0.536,-31.066
EX0521-092111,3,C26,prep,1750,1750,0,380359.093,0.684,-0.678,0.192,0.187,0,0,0,0,0,0,0,0,0,0.000,0,0,0.085,0.002,0.000,-0.060,-0.060,0.014,0.994,0.012,0.002,0.000,-0.002,0.000,0.000,0.000,0.000,0,2,0,1,7,255,960,250,0,0,-89.608,0.535,-31.066
EX0521-092111,3,C26,prep,1750,1750,0,380364.093,0.684,-0.678,0.192,0.187,0,0,0,0,0,0,0,0,0,0.000,0,0,0.000,0.002,0.000,0.000,0.000,0.014,0.995,0.010,0.002,0.000,0.002,0.000,0.000,0.000,0.000,0,2,0,1,7,255,960,250,0,0,-89.609,0.534,-31.066
EX0521-092111,3,C26,prep,1770,1770,0,380369.092,0.684,-0.678,0.192,0.187,0,0,0,0,0,0,0,0,0,0.000,0,0,0.000,0.014,0.000,0.000,0.000,0.013,0.994,0.010,-0.008,0.012,0.002,0.000,0.000,0.000,0.000,0,2,0,1,7,255,960,250,0,0,-89.609,0.533,-31.066
EX0521-092111,3,C26,prep,1770,1770,0,380374.092,0.684,-0.678,0.192,0.187,0,0,0,0,0,0,0,0,0,0.000,0,0,0.104,0.012,-0.060,-0.060,-0.060,0.015,0.993,0.011,0.002,0.012,-0.004,0.000,0.000,0.000,0.000,0,2,0,1,7,255,960,250,0,0,-89.610,0.534,-31.066
EX0521-092111,3,C26,prep,1771,1771,0,380379.092,0.684,-0.678,0.192,0.187,0,0,0,0,0,0,0,0,0,0.000,0,0,0.085,0.008,-0.060,-0.060,0.000,0.014,0.994,0.012,-0.006,-0.006,-0.004,0.000,0.000,0.000,0.000,0,2,0,1,7,255,960,250,0,0,-89.610,0.533,-31.066
EX0521-092111,3,C26,prep,1771,1771,0,380384.092,0.684,-0.678,0.192,0.187,0,0,0,0,0,0,0,0,0,0.000,0,0,0.085,0.007,0.000,-0.060,-0.060,0.015,0.994,0.011,0.004,-0.006,-0.002,0.000,0.000,0.000,0.000,0,2,0,1,7,255,960,250,0,0,-89.611,0.534,-31.066
EX0521-092111,3,C26,prep,1782,1782,0,380389.092,0.684,-0.678,0.192,0.187,0,0,0,0,0,0,0,0,0,0.000,0,0,0.060,0.008,0.000,-0.060,0.000,0.013,0.994,0.011,-0.006,-0.006,-0.002,0.000,0.000,0.000,0.000,0,2,0,1,7,255,960,250,0,0,-89.611,0.533,-31.066
EX0521-092111,3,C26,prep,1782,1782,0,380394.092,0.684,-0.678,0.192,0.187,0,0,0,0,0,0,0,0,0,0.000,0,0,0.060,0.006,0.000,-0.060,0.000,0.014,0.993,0.010,0.004,0.004,-0.002,0.000,0.000,0.000,0.000,0,2,0,1,7,255,960,250,0,0,-89.612,0.532,-31.066
EX0521-092111,3,C26,prep,1802,1802,0,380399.092,0.684,-0.678,0.192,0.187,0,0,0,0,0,0,0,0,0,0.000,0,0,0.060,0.007,0.000,-0.060,0.000,0.014,0.994,0.011,-0.006,0.004,-0.002,0.000,0.000,0.000,0.000,0,2,0,1,7,255,960,250,0,0,-89.612,0.531,-31.066
EX0521-092111,3,C26,prep,1802,1802,0,380404.092,0.684,-0.678,0.192,0.187,0,0,0,0,0,0,0,0,0,0.000,0,0,0.085,0.006,0.000,-0.060,-0.060,0.016,0.994,0.011,0.004,0.004,0.002,0.000,0.000,0.000,0.000,0,2,0,1,7,255,960,250,0,0,-89.613,0.532,-31.066
EX0521-092111,3,C26,prep,1803,1803,0,380409.092,0.684,-0.678,0.192,0.187,0,0,0,0,0,0,0,0,0,0.000,0,0,0.134,0.004,-0.060,-0.120,0.000,0.014,0.994,0.011,-0.004,-0.002,0.002,0.000,0.000,0.000,0.000,0,2,0,1,7,255,960,250,0,0,-89.613,0.531,-31.066
EX0521-092111,3,C26,prep,1803,1803,0,380414.092,0.684,-0.678,0.192,0.187,0,0,0,0,0,0,0,0,0,0.000,0,0,0.120,0.004,0.000,-0.120,0.000,0.014,0.995,0.011,-0.004,-0.002,0.002,0.000,0.000,0.000,0.000,0,2,0,1,7,255,960,250,0,0,-89.614,0.530,-31.066
EX0521-092111,3,C26,prep,1838,1838,0,380419.092,0.684,-0.678,0.192,0.187,0,0,0,0,0,0,0,0,0,0.000,0,0,0.104,0.004,-0.060,-0.060,-0.060,0.015,0.995,0.010,-0.004,-0.002,0.006,0.000,0.000,0.000,0.000,0,2,0,1,7,255,960,250,0,0,-89.614,0.531,-31.066
EX0521-092111,3,C26,prep,1838,1838,0,380424.092,0.684,-0.678,0.192,0.187,0,0,0,0,0,0,0,0,0,0.000,0,0,0.060,0.002,0.000,-0.060,0.000,0.015,0.994,0.011,0.000,-0.002,0.006,0.000,0.000,0.000,0.000,0,2,0,1,7,255,960,250,0,0,-89.615,0.531,-31.066
EX0521-092111,3,C26,prep,1839,1839,0,380429.092,0.684,-0.678,0.192,0.187,0,0,0,0,0,0,0,0,0,0.000,0,0,0.060,0.004,0.000,-0.060,0.000,0.015,0.995,0.012,0.002,-0.004,0.006,0.000,0.000,0.000,0.000,0,2,0,1,7,255,960,250,0,0,-89.611,0.532,-31.066
EX0521-092111,3,C26,prep,1839,1839,0,380434.093,0.684,-0.678,0.192,0.187,0,0,0,0,0,0,0,0,0,0.000,0,0,0.060,0.004,0.000,-0.060,0.000,0.015,0.995,0.011,0.000,-0.004,0.006,0.000,0.000,0.000,0.000,0,2,0,1,7,255,960,250,0,0,-89.611,0.533,-31.066
EX0521-092111,3,C26,prep,1840,1840,0,380439.092,0.684,-0.678,0.192,0.187,0,0,0,0,0,0,0,0,0,0.000,0,0,0.085,0.004,-0.060,-0.060,0.000,0.015,0.994,0.010,0.002,-0.004,0.006,0.000,0.000,0.000,0.000,0,2,0,1,7,255,960,250,0,0,-89.612,0.533,-31.066
EX0521-092111,3,C26,prep,1840,1840,0,380444.092,0.684,-0.678,0.192,0.187,0,0,0,0,0,0,0,0,0,0.000,0,0,0.134,0.004,-0.060,-0.120,0.000,0.015,0.995,0.010,0.004,0.002,0.006,0.000,0.000,0.000,0.000,0,2,0,1,7,255,960,250,0,0,-89.612,0.534,-31.066
EX0521-092111,3,C26,prep,1841,1841,0,380449.092,0.684,-0.678,0.192,0.187,0,0,0,0,0,0,0,0,0,0.000,0,0,0.085,0.004,0.000,-0.060,-0.060,0.015,0.993,0.012,0.004,0.002,0.002,0.000,0.000,0.000,0.000,0,2,0,1,7,255,960,250,0,0,-89.608,0.535,-31.066
EX0521-092111,3,C26,prep,1841,1841,0,380454.092,0.684,-0.678,0.192,0.187,0,0,0,0,0,0,0,0,0,0.000,0,0,0.060,0.002,0.000,-0.060,0.000,0.014,0.994,0.011,-0.002,0.000,-0.002,0.000,0.000,0.000,0.000,0,2,0,1,7,255,960,250,0,0,-89.609,0.534,-31.066
EX0521-092111,3,C26,prep,1847,1847,0,380459.091,0.684,-0.678,0.192,0.187,0,0,0,0,0,0,0,0,0,0.000,0,0,0.085,0.004,0.060,0.000,-0.060,0.014,0.994,0.011,-0.004,0.000,-0.002,0.000,0.000,0.000,0.000,0,2,0,1,7,255,960,250,0,0,-89.609,0.533,-31.066
EX0521-092111,3,C26,prep,1847,1847,0,380464.092,0.684,-0.678,0.192,0.187,0,0,0,0,0,0,0,0,0,0.000,0,0,0.060,0.004,0.000,-0.060,0.000,0.015,0.993,0.011,-0.004,0.000,-0.002,0.000,0.000,0.000,0.000,0,2,0,1,7,255,960,250,0,0,-89.610,0.533,-31.066
EX0521-092111,3,C26,prep,1864,1864,0,380469.092,0.684,-0.678,0.192,0.187,0,0,0,0,0,0,0,0,0,0.000,0,0,0.060,0.004,0.000,-0.060,0.000,0.016,0.993,0.011,0.000,-0.004,-0.008,0.000,0.000,0.000,0.000,0,2,0,1,7,255,960,250,0,0,-89.610,0.534,-31.066
EX0521-092111,3,C26,prep,1864,1864,0,380474.092,0.684,-0.678,0.192,0.187,0,0,0,0,0,0,0,0,0,0.000,0,0,0.104,0.006,-0.060,-0.060,-0.060,0.015,0.993,0.010,0.004,-0.004,-0.008,0.000,0.000,0.000,0.000,0,2,0,1,7,255,960,250,0,0,-89.611,0.535,-31.066
EX0521-092111,3,C26,prep,1878,1878,0,380479.092,0.684,-0.678,0.192,0.187,0,0,0,0,0,0,0,0,0,0.000,0,0,0.060,0.006,-0.060,0.000,0.000,0.015,0.995,0.011,0.004,-0.004,-0.008,0.000,0.000,0.000,0.000,0,2,0,1,7,255,960,250,0,0,-89.611,0.535,-31.066
EX0521-092111,3,C26,prep,1878,1878,0,380484.092,0.684,-0.678,0.192,0.187,0,0,0,0,0,0,0,0,0,0.000,0,0,0.060,0.006,0.000,-0.060,0.000,0.015,0.995,0.010,0.004,0.004,0.006,0.000,0.000,0.000,0.000,0,2,0,1,7,255,960,250,0,0,-89.612,0.536,-31.066
EX0521-092111,3,C26,prep,1878,1878,0,380489.091,0.684,-0.678,0.192,0.187,0,0,0,0,0,0,0,0,0,0.000,0,0,0.085,0.002,0.060,-0.060,0.000,0.014,0.994,0.011,0.000,-0.002,0.006,0.000,0.000,0.000,0.000,0,2,0,1,7,255,960,250,0,0,-89.612,0.535,-31.066
EX0521-092111,3,C26,prep,1878,1878,0,380494.092,0.684,-0.678,0.192,0.187,0,0,0,0,0,0,0,0,0,0.000,0,0,0.060,0.003,0.000,-0.060,0.000,0.014,0.995,0.011,-0.002,0.002,0.006,0.000,0.000,0.000,0.000,0,2,0,1,7,255,960,250,0,0,-89.613,0.534,-31.066
EX0521-092111,3,C26,prep,1897,1897,0,380499.091,0.684,-0.678,0.192,0.187,0,0,0,0,0,0,0,0,0,0.000,0,0,0.085,0.003,-0.060,-0.060,0.000,0.015,0.993,0.011,-0.002,-0.002,-0.002,0.000,0.000,0.000,0.000,0,2,0,1,7,255,960,250,0,0,-89.613,0.535,-31.066
EX0521-092111,3,C26,prep,1897,1897,0,380504.092,0.684,-0.678,0.192,0.187,0,0,0,0,0,0,0,0,0,0.000,0,0,0.134,0.004,0.000,-0.120,-0.060,0.015,0.995,0.011,0.004,-0.002,0.006,0.000,0.000,0.000,0.000,0,2,0,1,7,255,960,250,0,0,-89.614,0.535,-31.066
EX0521-092111,3,C26,prep,1936,1936,0,380509.091,0.684,-0.678,0.192,0.187,0,0,0,0,0,0,0,0,0,0.000,0,0,0.085,0.006,-0.060,-0.060,0.000,0.014,0.993,0.012,0.004,-0.004,-0.008,0.000,0.000,0.000,0.000,0,2,0,1,7,255,960,250,0,0,-89.610,0.534,-31.066
EX0521-092111,3,C26,prep,1936,1936,0,380514.092,0.684,-0.678,0.192,0.187,0,0,0,0,0,0,0,0,0,0.000,0,0,0.085,0.007,0.000,-0.060,-0.060,0.016,0.994,0.011,0.006,-0.004,-0.002,0.000,0.000,0.000,0.000,0,2,0,1,7,255,960,250,0,0,-89.610,0.535,-31.066
EX0521-092111,3,C26,prep,1937,1937,0,380519.091,0.684,-0.678,0.192,0.187,0,0,0,0,0,0,0,0,0,0.000,0,0,0.060,0.006,0.000,-0.060,0.000,0.015,0.994,0.010,0.004,-0.004,-0.002,0.000,0.000,0.000,0.000,0,2,0,1,7,255,960,250,0,0,-89.611,0.536,-31.066
EX0521-092111,3,C26,prep,1937,1937,0,380524.092,0.684,-0.678,0.192,0.187,0,0,0,0,0,0,0,0,0,0.000,0,0,0.060,0.006,0.000,-0.060,0.000,0.015,0.994,0.011,0.004,-0.004,-0.002,0.000,0.000,0.000,0.000,0,2,0,1,7,255,960,250,0,0,-89.611,0.536,-31.066
EX0521-092111,3,C26,prep,1938,1938,0,380529.091,0.684,-0.678,0.192,0.187,0,0,0,0,0,0,0,0,0,0.000,0,0,0.060,0.004,0.000,-0.060,0.000,0.015,0.995,0.012,-0.002,-0.004,-0.002,0.000,0.000,0.000,0.000,0,2,0,1,7,255,960,250,0,0,-89.612,0.537,-31.066
EX0521-092111,3,C26,prep,1938,1938,0,380534.093,0.684,-0.678,0.192,0.187,0,0,0,0,0,0,0,0,0,0.000,0,0,0.085,0.006,-0.060,-0.060,0.000,0.015,0.994,0.011,-0.002,-0.006,-0.002,0.000,0.000,0.000,0.000,0,2,0,1,7,255,960,250,0,0,-89.612,0.538,-31.066
EX0521-092111,3,C26,prep,1962,1962,0,380539.091,0.684,-0.678,0.192,0.187,0,0,0,0,0,0,0,0,0,0.000,0,0,0.060,0.007,0.000,-0.060,0.000,0.015,0.995,0.012,-0.004,-0.006,0.006,0.000,0.000,0.000,0.000,0,2,0,1,7,255,960,250,0,0,-89.608,0.538,-31.066
EX0521-092111,3,C26,prep,1962,1962,0,380544.092,0.684,-0.678,0.192,0.187,0,0,0,0,0,0,0,0,0,0.000,0,0,0.085,0.006,0.000,-0.060,-0.060,0.015,0.995,0.010,0.002,-0.006,0.012,0.000,0.000,0.000,0.000,0,2,0,1,7,255,960,250,0,0,-89.609,0.539,-31.066
EX0521-092111,3,C26,prep,1962,1962,0,380549.091,0.684,-0.678,0.192,0.187,0,0,0,0,0,0,0,0,0,0.000,0,0,0.120,0.006,0.000,-0.120,0.000,0.014,0.995,0.012,-0.004,-0.004,0.012,0.000,0.000,0.000,0.000,0,2,0,1,7,255,960,250,0,0,-89.609,0.538,-31.066
EX0521-092111,3,C26,prep,1962,1962,0,380554.092,0.684,-0.678,0.192,0.187,0,0,0,0,0,0,0,0,0,0.000,0,0,0.104,0.004,-0.060,-0.060,-0.060,0.014,0.995,0.011,-0.002,0.004,0.012,0.000,0.000,0.000,0.000,0,2,0,1,7,255,960,250,0,0,-89.610,0.537,-31.066
EX0521-092111,3,C26,prep,1962,1962,0,380559.092,0.684,-0.678,0.192,0.187,0,0,0,0,0,0,0,0,0,0.000,0,0,0.085,0.003,-0.060,0.000,-0.060,0.015,0.995,0.011,-0.002,0.002,0.006,0.000,0.000,0.000,0.000,0,2,0,1,7,255,960,250,0,0,-89.610,0.538,-31.066
EX0521-092111,3,C26,prep,1962,1962,0,380564.095,0.684,-0.678,0.192,0.187,0,0,0,0,0,0,0,0,0,0.000,0,0,0.104,0.003,-0.060,-0.060,-0.060,0.014,0.993,0.011,-0.002,0.002,0.006,0.000,0.000,0.000,0.000,0,2,0,1,7,255,960,250,0,0,-89.611,0.537,-31.066
EX0521-092111,3,C26,prep,1969,1969,0,380569.091,0.684,-0.678,0.192,0.187,0,0,0,0,0,0,0,0,0,0.000,0,0,0.085,0.002,0.000,-0.060,-0.060,0.015,0.993,0.011,0.002,0.000,-0.008,0.000,0.000,0.000,0.000,0,2,0,1,7,255,960,250,0,0,-89.611,0.537,-31.066
EX0521-092111,3,C26,prep,1969,1969,0,380574.092,0.684,-0.678,0.192,0.187,0,0,0,0,0,0,0,0,0,0.000,0,0,0.104,0.004,-0.060,-0.060,-0.060,0.015,0.994,0.012,-0.004,0.000,-0.008,0.000,0.000,0.000,0.000,0,2,0,1,7,255,960,250,0,0,-89.612,0.538,-31.066
EX0521-092111,3,C26,prep,1969,1969,0,380579.091,0.684,-0.678,0.192,0.187,0,0,0,0,0,0,0,0,0,0.000,0,0,0.060,0.004,0.000,-0.060,0.000,0.015,0.994,0.011,-0.002,-0.004,-0.002,0.000,0.000,0.000,0.000,0,2,0,1,7,255,960,250,0,0,-89.612,0.538,-31.066
EX0521-092111,3,C26,prep,1969,1969,0,380584.092,0.684,-0.678,0.192,0.187,0,0,0,0,0,0,0,0,0,0.000,0,0,0.060,0.006,0.000,-0.060,0.000,0.014,0.995,0.011,-0.004,-0.004,0.002,0.000,0.000,0.000,0.000,0,2,0,1,7,255,960,250,0,0,-89.613,0.537,-31.066
EX0521-092111,3,C26,prep,1974,1974,0,380589.091,0.684,-0.678,0.192,0.187,0,0,0,0,0,0,0,0,0,0.000,0,0,0.085,0.004,0.060,-0.060,0.000,0.015,0.994,0.011,-0.002,-0.004,0.002,0.000,0.000,0.000,0.000,0,2,0,1,7,255,960,250,0,0,-89.613,0.538,-31.066
EX0521-092111,3,C26,prep,1974,1974,0,380594.092,0.684,-0.678,0.192,0.187,0,0,0,0,0,0,0,0,0,0.000,0,0,0.060,0.007,0.000,-0.060,0.000,0.014,0.995,0.012,-0.006,-0.004,0.006,0.000,0.000,0.000,0.000,0,2,0,1,7,255,960,250,0,0,-89.609,0.537,-31.066
EX0521-092111,3,C26,prep,1996,1996,0,380599.091,0.684,-0.678,0.192,0.187,0,0,0,0,0,0,0,0,0,0.000,0,0,0.060,0.004,0.000,-0.060,0.000,0.015,0.994,0.010,-0.002,-0.004,0.002,0.000,0.000,0.000,0.000,0,2,0,1,7,255,960,250,0,0,-89.610,0.538,-31.066
EX0521-092111,3,C26,prep,1996,1996,0,380604.092,0.684,-0.678,0.192,0.187,0,0,0,0,0,0,0,0,0,0.000,0,0,0.060,0.010,0.000,-0.060,0.000,0.014,0.994,0.010,0.002,0.010,0.002,0.000,0.000,0.000,0.000,0,2,0,1,7,255,960,250,0,0,-89.610,0.537,-31.066
EX0521-092111,3,C26,prep,2028,2028,0,380609.091,0.684,-0.678,0.192,0.187,0,0,0,0,0,0,0,0,0,0.000,0,0,0.085,0.011,0.000,-0.060,-0.060,0.015,0.995,0.011,0.004,0.010,0.002,0.000,0.000,0.000,0.000,0,2,0,1,7,255,960,250,0,0,-89.611,0.537,-31.066
EX0521-092111,3,C26,prep,2028,2028,0,380614.092,0.684,-0.678,0.192,0.187,0,0,0,0,0,0,0,0,0,0.000,0,0,0.085,0.003,0.000,-0.060,-0.060,0.015,0.994,0.011,0.002,0.002,0.002,0.000,0.000,0.000,0.000,0,2,0,1,7,255,960,250,0,0,-89.611,0.538,-31.066
EX0521-092111,3,C26,prep,2028,2028,0,380619.091,0.684,-0.678,0.192,0.187,0,0,0,0,0,0,0,0,0,0.000,0,0,0.134,0.003,-0.060,-0.120,0.000,0.014,0.995,0.011,0.002,0.002,0.010,0.000,0.000,0.000,0.000,0,2,0,1,7,255,960,250,0,0,-89.612,0.537,-31.066
EX0521-092111,3,C26,prep,2028,2028,0,380624.093,0.684,-0.678,0.192,0.187,0,0,0,0,0,0,0,0,0,0.000,0,0,0.085,0.004,0.000,-0.060,-0.060,0.014,0.995,0.011,-0.002,0.004,0.006,0.000,0.000,0.000,0.000,0,2,0,1,7,255,960,250,0,0,-89.612,0.536,-31.066
EX0521-092111,3,C26,prep,2028,2028,0,380629.091,0.684,-0.678,0.192,0.187,0,0,0,0,0,0,0,0,0,0.000,0,0,0.120,0.004,0.000,-0.120,0.000,0.015,0.995,0.011,-0.002,0.004,0.006,0.000,0.000,0.000,0.000,0,2,0,1,7,255,960,250,0,0,-89.613,0.537,-31.066
EX0521-092111,3,C26,prep,2028,2028,0,380634.093,0.684,-0.678,0.192,0.187,0,0,0,0,0,0,0,0,0,0.000,0,0,0.104,0.004,-0.060,-0.060,-0.060,0.014,0.994,0.010,0.000,0.004,0.006,0.000,0.000,0.000,0.000,0,2,0,1,7,255,960,250,0,0,-89.613,0.536,-31.066
EX0521-092111,3,C26,prep,2062,2062,0,380639.091,0.684,-0.678,0.192,0.187,0,0,0,0,0,0,0,0,0,0.000,0,0,0.060,0.004,0.000,-0.060,0.000,0.015,0.993,0.011,0.000,-0.004,0.002,0.000,0.000,0.000,0.000,0,2,0,1,7,255,960,250,0,0,-89.614,0.536,-31.066
EX0521-092111,3,C26,prep,2062,2062,0,380644.092,0.684,-0.678,0.192,0.187,0,0,0,0,0,0,0,0,0,0.000,0,0,0.085,0.004,0.000,-0.060,-0.060,0.015,0.994,0.011,-0.002,-0.004,0.002,0.000,0.000,0.000,0.000,0,2,0,1,7,255,960,250,0,0,-89.614,0.537,-31.066
EX0521-092111,3,C26,prep,2062,2062,0,380649.091,0.684,-0.678,0.192,0.187,0,0,0,0,0,0,0,0,0,0.000,0,0,0.060,0.004,0.000,-0.060,0.000,0.015,0.994,0.010,-0.002,-0.004,-0.004,0.000,0.000,0.000,0.000,0,2,0,1,7,255,960,250,0,0,-89.615,0.538,-31.066
EX0521-092111,3,C26,prep,2062,2062,0,380654.092,0.684,-0.678,0.192,0.187,0,0,0,0,0,0,0,0,0,0.000,0,0,0.060,0.003,0.000,0.000,-0.060,0.014,0.995,0.011,-0.002,0.002,0.002,0.000,0.000,0.000,0.000,0,2,0,1,7,255,960,250,0,0,-89.615,0.537,-31.066
EX0521-092111,3,C26,prep,2062,2062,0,380659.091,0.684,-0.678,0.192,0.187,0,0,0,0,0,0,0,0,0,0.000,0,0,0.085,0.006,-0.060,-0.060,0.000,0.014,0.994,0.010,0.000,0.006,0.002,0.000,0.000,0.000,0.000,0,2,0,1,7,255,960,250,0,0,-89.616,0.536,-31.066
EX0521-092111,3,C26,prep,2062,2062,0,380664.092,0.684,-0.678,0.192,0.187,0,0,0,0,0,0,0,0,0,0.000,0,0,0.060,0.004,0.000,-0.060,0.000,0.013,0.995,0.012,-0.004,0.002,0.006,0.000,0.000,0.000,0.000,0,2,0,1,7,255,960,250,0,0,-89.611,0.535,-31.066
EX0521-092111,3,C26,prep,2063,2063,0,380669.091,0.684,-0.678,0.192,0.187,0,0,0,0,0,0,0,0,0,0.000,0,0,0.060,0.003,0.000,-0.060,0.000,0.014,0.993,0.011,-0.002,0.002,0.002,0.000,0.000,0.000,0.000,0,2,0,1,7,255,960,250,0,0,-89.612,0.534,-31.066
EX0521-092111,3,C26,prep,2063,2063,0,380674.092,0.684,-0.678,0.192,0.187,0,0,0,0,0,0,0,0,0,0.000,0,0,0.085,0.003,0.000,-0.060,-0.060,0.015,0.994,0.011,-0.002,-0.002,-0.004,0.000,0.000,0.000,0.000,0,2,0,1,7,255,960,250,0,0,-89.612,0.535,-31.066
EX0521-092111,3,C26,prep,2063,2063,0,380679.091,0.684,-0.678,0.192,0.187,0,0,0,0,0,0,0,0,0,0.000,0,0,0.104,0.002,-0.060,-0.060,-0.060,0.015,0.994,0.010,0.000,0.002,-0.004,0.000,0.000,0.000,0.000,0,2,0,1,7,255,960,250,0,0,-89.613,0.535,-31.066
EX0521-092111,3,C26,prep,2063,2063,0,380684.092,0.684,-0.678,0.192,0.187,0,0,0,0,0,0,0,0,0,0.000,0,0,0.085,0.004,0.000,-0.060,-0.060,0.015,0.995,0.011,0.000,-0.004,0.002,0.000,0.000,0.000,0.000,0,2,0,1,7,255,960,250,0,0,-89.613,0.536,-31.066
EX0521-092111,3,C26,prep,2086,2086,0,380689.091,0.684,-0.678,0.192,0.187,0,0,0,0,0,0,0,0,0,0.000,0,0,0.104,0.004,-0.060,-0.060,-0.060,0.015,0.993,0.010,0.004,0.002,0.002,0.000,0.000,0.000,0.000,0,2,0,1,7,255,960,250,0,0,-89.614,0.536,-31.066
EX0521-092111,3,C26,prep,2086,2086,0,380694.092,0.684,-0.678,0.192,0.187,0,0,0,0,0,0,0,0,0,0.000,0,0,0.134,0.006,0.000,-0.120,-0.060,0.015,0.993,0.010,0.006,0.002,-0.008,0.000,0.000,0.000,0.000,0,2,0,1,7,255,960,250,0,0,-89.614,0.537,-31.066
EX0521-092111,3,C26,prep,2086,2086,0,380699.091,0.684,-0.678,0.192,0.187,0,0,0,0,0,0,0,0,0,0.000,0,0,0.060,0.006,0.000,-0.060,0.000,0.015,0.994,0.011,0.006,0.002,-0.008,0.000,0.000,0.000,0.000,0,2,0,1,7,255,960,250,0,0,-89.615,0.538,-31.066
EX0521-092111,3,C26,prep,2086,2086,0,380704.092,0.684,-0.678,0.192,0.187,0,0,0,0,0,0,0,0,0,0.000,0,0,0.085,0.006,0.060,-0.060,0.000,0.015,0.994,0.011,0.006,-0.002,0.002,0.000,0.000,0.000,0.000,0,2,0,1,7,255,960,250,0,0,-89.615,0.538,-31.066
EX0521-092111,3,C26,prep,2102,2102,0,380709.091,0.684,-0.678,0.192,0.187,0,0,0,0,0,0,0,0,0,0.000,0,0,0.060,0.004,0.000,-0.060,0.000,0.015,0.994,0.011,-0.002,-0.004,0.002,0.000,0.000,0.000,0.000,0,2,0,1,7,255,960,250,0,0,-89.616,0.539,-31.066
EX0521-092111,3,C26,prep,2102,2102,0,380714.092,0.684,-0.678,0.192,0.187,0,0,0,0,0,0,0,0,0,0.000,0,0,0.085,0.002,-0.060,-0.060,0.000,0.015,0.994,0.011,0.000,-0.002,0.002,0.000,0.000,0.000,0.000,0,2,0,1,7,255,960,250,0,0,-89.616,0.539,-31.066
EX0521-092111,3,C26,prep,2139,2139,0,380719.091,0.684,-0.678,0.192,0.187,0,0,0,0,0,0,0,0,0,0.000,0,0,0.085,0.004,-0.060,-0.060,0.000,0.016,0.995,0.011,0.000,-0.004,0.002,0.000,0.000,0.000,0.000,0,2,0,1,7,255,960,250,0,0,-89.617,0.540,-31.066
EX0521-092111,3,C26,prep,2139,2139,0,380724.092,0.684,-0.678,0.192,0.187,0,0,0,0,0,0,0,0,0,0.000,0,0,0.085,0.006,0.060,-0.060,0.000,0.015,0.995,0.012,0.000,-0.006,0.006,0.000,0.000,0.000,0.000,0,2,0,1,7,255,960,250,0,0,-89.613,0.541,-31.066
EX0521-092111,3,C26,prep,2140,2140,0,380729.091,0.684,-0.678,0.192,0.187,0,0,0,0,0,0,0,0,0,0.000,0,0,0.060,0.007,0.000,-0.060,0.000,0.015,0.994,0.012,-0.004,-0.006,0.006,0.000,0.000,0.000,0.000,0,2,0,1,7,255,960,250,0,0,-89.609,0.541,-31.066
EX0521-092111,3,C26,prep,2140,2140,0,380734.093,0.684,-0.678,0.192,0.187,0,0,0,0,0,0,0,0,0,0.000,0,0,0.085,0.007,-0.060,-0.060,0.000,0.014,0.995,0.012,-0.004,-0.006,0.006,0.000,0.000,0.000,0.000,0,2,0,1,7,255,960,250,0,0,-89.609,0.540,-31.066
EX0521-092111,3,C26,prep,2141,2141,0,380739.091,0.684,-0.678,0.192,0.187,0,0,0,0,0,0,0,0,0,0.000,0,0,0.085,0.006,-0.060,-0.060,0.000,0.014,0.994,0.011,-0.006,-0.002,0.002,0.000,0.000,0.000,0.000,0,2,0,1,7,255,960,250,0,0,-89.610,0.539,-31.066
EX0521-092111,3,C26,prep,2141,2141,0,380744.092,0.684,-0.678,0.192,0.187,0,0,0,0,0,0,0,0,0,0.000,0,0,0.085,0.006,0.000,-0.060,-0.060,0.015,0.995,0.010,-0.006,0.000,0.006,0.000,0.000,0.000,0.000,0,2,0,1,7,255,960,250,0,0,-89.610,0.540,-31.066
EX0521-092111,3,C26,prep,2142,2142,0,380749.091,0.684,-0.678,0.192,0.187,0,0,0,0,0,0,0,0,0,0.000,0,0,0.147,0.007,-0.060,-0.120,-0.060,0.015,0.994,0.010,0.004,0.006,0.002,0.000,0.000,0.000,0.000,0,2,0,1,7,255,960,250,0,0,-89.611,0.541,-31.066
EX0521-092111,3,C26,prep,2142,2142,0,380754.092,0.684,-0.678,0.192,0.187,0,0,0,0,0,0,0,0,0,0.000,0,0,0.120,0.007,0.000,-0.120,0.000,0.015,0.994,0.011,0.004,0.006,0.002,0.000,0.000,0.000,0.000,0,2,0,1,7,255,960,250,0,0,-89.611,0.541,-31.066
EX0521-092111,3,C26,prep,2150,2150,0,380759.092,0.684,-0.678,0.192,0.187,0,0,0,0,0,0,0,0,0,0.000,0,0,0.120,0.004,0.000,-0.120,0.000,0.015,0.995,0.011,0.004,0.000,0.002,0.000,0.000,0.000,0.000,0,2,0,1,7,255,960,250,0,0,-89.612,0.542,-31.066
EX0521-092111,3,C26,prep,2150,2150,0,380764.093,0.684,-0.678,0.192,0.187,0,0,0,0,0,0,0,0,0,0.000,0,0,0.060,0.000,0.000,-0.060,0.000,0.015,0.995,0.011,0.000,0.000,0.010,0.000,0.000,0.000,0.000,0,2,0,1,7,255,960,250,0,0,-89.612,0.542,-31.066
EX0521-092111,3,C26,prep,2171,2171,0,380769.091,0.684,-0.678,0.192,0.187,0,0,0,0,0,0,0,0,0,0.000,0,0,0.085,0.004,0.000,-0.060,-0.060,0.015,0.994,0.011,0.004,0.000,0.010,0.000,0.000,0.000,0.000,0,2,0,1,7,255,960,250,0,0,-89.613,0.543,-31.066
EX0521-092111,3,C26,prep,2171,2171,0,380774.092,0.684,-0.678,0.192,0.187,0,0,0,0,0,0,0,0,0,0.000,0,0,0.120,0.002,0.000,-0.120,0.000,0.015,0.995,0.011,0.000,0.002,0.006,0.000,0.000,0.000,0.000,0,2,0,1,7,255,960,250,0,0,-89.613,0.544,-31.066
EX0521-092111,3,C26,prep,2182,2182,0,380779.091,0.684,-0.678,0.192,0.187,0,0,0,0,0,0,0,0,0,0.000,0,0,0.060,0.002,0.000,-0.060,0.000,0.014,0.994,0.011,0.000,0.002,0.000,0.000,0.000,0.000,0.000,0,2,0,1,7,255,960,250,0,0,-89.614,0.543,-31.066
EX0521-092111,3,C26,prep,2182,2182,0,380784.092,0.684,-0.678,0.192,0.187,0,0,0,0,0,0,0,0,0,0.000,0,0,0.085,0.002,0.000,-0.060,-0.060,0.015,0.994,0.011,0.000,0.002,0.000,0.000,0.000,0.000,0.000,0,2,0,1,7,255,960,250,0,0,-89.614,0.543,-31.066
EX0521-092111,3,C26,prep,2182,2182,0,380789.091,0.684,-0.678,0.192,0.187,0,0,0,0,0,0,0,0,0,0.000,0,0,0.060,0.004,0.000,-0.060,0.000,0.015,0.995,0.010,0.002,0.004,0.000,0.000,0.000,0.000,0.000,0,2,0,1,7,255,960,250,0,0,-89.615,0.544,-31.066
EX0521-092111,3,C26,prep,2182,2182,0,380794.092,0.684,-0.678,0.192,0.187,0,0,0,0,0,0,0,0,0,0.000,0,0,0.060,0.002,0.000,-0.060,0.000,0.016,0.994,0.010,0.002,0.000,-0.004,0.000,0.000,0.000,0.000,0,2,0,1,7,255,960,250,0,0,-89.615,0.545,-31.066
EX0521-092111,3,C26,prep,2182,2182,0,380799.091,0.684,-0.678,0.192,0.187,0,0,0,0,0,0,0,0,0,0.000,0,0,0.134,0.002,0.000,-0.120,-0.060,0.013,0.994,0.012,0.002,0.000,-0.004,0.000,0.000,0.000,0.000,0,2,0,1,7,255,960,250,0,0,-89.611,0.544,-31.066
EX0521-092111,3,C26,prep,2182,2182,0,380804.092,0.684,-0.678,0.192,0.187,0,0,0,0,0,0,0,0,0,0.000,0,0,0.085,0.000,-0.060,-0.060,0.000,0.015,0.994,0.011,0.000,0.000,-0.004,0.000,0.000,0.000,0.000,0,2,0,1,7,255,960,250,0,0,-89.612,0.544,-31.066
EX0521-092111,3,C26,prep,2237,2237,0,380809.091,0.684,-0.678,0.192,0.187,0,0,0,0,0,0,0,0,0,0.000,0,0,0.085,0.006,0.060,-0.060,0.000,0.014,0.993,0.011,-0.006,0.000,-0.004,0.000,0.000,0.000,0.000,0,2,0,1,7,255,960,250,0,0,-89.612,0.543,-31.066
EX0521-092111,3,C26,prep,2237,2237,0,380814.092,0.684,-0.678,0.192,0.187,0,0,0,0,0,0,0,0,0,0.000,0,0,0.000,0.004,0.000,0.000,0.000,0.014,0.993,0.011,-0.004,0.002,-0.008,0.000,0.000,0.000,0.000,0,2,0,1,7,255,960,250,0,0,-89.613,0.542,-31.066
EX0521-092111,3,C26,prep,2247,2247,0,380819.091,0.684,-0.678,0.192,0.187,0,0,0,0,0,0,0,0,0,0.000,0,0,0.060,0.006,0.000,-0.060,0.000,0.014,0.995,0.011,-0.006,0.002,-0.008,0.000,0.000,0.000,0.000,0,2,0,1,7,255,960,250,0,0,-89.613,0.541,-31.066
EX0521-092111,3,C26,prep,2247,2247,0,380824.093,0.684,-0.678,0.192,0.187,0,0,0,0,0,0,0,0,0,0.000,0,0,0.000,0.006,0.000,0.000,0.000,0.014,0.994,0.011,-0.006,0.002,0.002,0.000,0.000,0.000,0.000,0,2,0,1,7,255,960,250,0,0,-89.614,0.541,-31.066
EX0521-092111,3,C26,prep,2247,2247,0,380829.091,0.684,-0.678,0.192,0.187,0,0,0,0,0,0,0,0,0,0.000,0,0,0.085,0.006,0.000,-0.060,-0.060,0.015,0.993,0.011,-0.006,0.000,0.002,0.000,0.000,0.000,0.000,0,2,0,1,7,255,960,250,0,0,-89.614,0.541,-31.066
EX0521-092111,3,C26,prep,2247,2247,0,380834.093,0.684,-0.678,0.192,0.187,0,0,0,0,0,0,0,0,0,0.000,0,0,0.134,0.006,0.000,-0.120,-0.060,0.014,0.993,0.011,-0.006,0.000,-0.008,0.000,0.000,0.000,0.000,0,2,0,1,7,255,960,250,0,0,-89.615,0.540,-31.066
EX0521-092111,3,C26,prep,2272,2272,0,380839.091,0.684,-0.678,0.192,0.187,0,0,0,0,0,0,0,0,0,0.000,0,0,0.085,0.004,0.000,-0.060,-0.060,0.015,0.994,0.011,-0.002,-0.004,-0.008,0.000,0.000,0.000,0.000,0,2,0,1,7,255,960,250,0,0,-89.615,0.541,-31.066
EX0521-092111,3,C26,prep,2272,2272,0,380844.092,0.684,-0.678,0.192,0.187,0,0,0,0,0,0,0,0,0,0.000,0,0,0.134,0.006,-0.060,-0.120,0.000,0.014,0.994,0.011,-0.004,0.004,0.002,0.000,0.000,0.000,0.000,0,2,0,1,7,255,960,250,0,0,-89.616,0.540,-31.066
EX0521-092111,3,C26,prep,2272,2272,0,380849.091,0.684,-0.678,0.192,0.187,0,0,0,0,0,0,0,0,0,0.000,0,0,0.060,0.007,0.000,-0.060,0.000,0.015,0.994,0.012,-0.004,-0.006,0.002,0.000,0.000,0.000,0.000,0,2,0,1,7,255,960,250,0,0,-89.612,0.540,-31.066
EX0521-092111,3,C26,prep,2272,2272,0,380854.092,0.684,-0.678,0.192,0.187,0,0,0,0,0,0,0,0,0,0.000,0,0,0.085,0.007,0.000,-0.060,-0.060,0.015,0.995,0.012,-0.004,-0.006,0.002,0.000,0.000,0.000,0.000,0,2,0,1,7,255,960,250,0,0,-89.607,0.541,-31.066
EX0521-092111,3,C26,prep,2272,2272,0,380859.091,0.684,-0.678,0.192,0.187,0,0,0,0,0,0,0,0,0,0.000,0,0,0.147,0.008,-0.060,-0.120,-0.060,0.014,0.994,0.012,-0.006,-0.006,0.002,0.000,0.000,0.000,0.000,0,2,0,1,7,255,960,250,0,0,-89.608,0.540,-31.066
EX0521-092111,3,C26,prep,2272,2272,0,380864.092,0.684,-0.678,0.192,0.187,0,0,0,0,0,0,0,0,0,0.000,0,0,0.085,0.007,0.000,-0.060,-0.060,0.014,0.995,0.010,-0.006,-0.004,0.010,0.000,0.000,0.000,0.000,0,2,0,1,7,255,960,250,0,0,-89.608,0.539,-31.066
EX0521-092111,3,C26,prep,2273,2273,0,380869.091,0.684,-0.678,0.192,0.187,0,0,0,0,0,0,0,0,0,0.000,0,0,0.085,0.004,0.000,-0.060,-0.060,0.015,0.995,0.011,0.000,-0.004,0.006,0.000,0.000,0.000,0.000,0,2,0,1,7,255,960,250,0,0,-89.609,0.540,-31.066
EX0521-092111,3,C26,prep,2273,2273,0,380874.092,0.684,-0.678,0.192,0.187,0,0,0,0,0,0,0,0,0,0.000,0,0,0.060,0.002,0.000,-0.060,0.000,0.014,0.995,0.012,0.000,-0.002,0.010,0.000,0.000,0.000,0.000,0,2,0,1,7,255,960,250,0,0,-89.609,0.539,-31.066
EX0521-092111,3,C26,prep,2274,2274,0,380879.091,0.684,-0.678,0.192,0.187,0,0,0,0,0,0,0,0,0,0.000,0,0,0.120,0.004,0.000,-0.120,0.000,0.014,0.994,0.011,-0.004,-0.002,0.006,0.000,0.000,0.000,0.000,0,2,0,1,7,255,960,250,0,0,-89.610,0.538,-31.066
EX0521-092111,3,C26,prep,2274,2274,0,380884.092,0.684,-0.678,0.192,0.187,0,0,0,0,0,0,0,0,0,0.000,0,0,0.000,0.004,0.000,0.000,0.000,0.014,0.994,0.010,-0.004,0.000,0.000,0.000,0.000,0.000,0.000,0,2,0,1,7,255,960,250,0,0,-89.610,0.537,-31.066
EX0521-092111,3,C26,prep,2274,2274,0,380889.091,0.684,-0.678,0.192,0.187,0,0,0,0,0,0,0,0,0,0.000,0,0,0.104,0.004,0.060,-0.060,-0.060,0.014,0.995,0.011,-0.002,0.004,0.000,0.000,0.000,0.000,0.000,0,2,0,1,7,255,960,250,0,0,-89.611,0.536,-31.066
EX0521-092111,3,C26,prep,2274,2274,0,380894.092,0.684,-0.678,0.192,0.187,0,0,0,0,0,0,0,0,0,0.000,0,0,0.060,0.004,0.000,-0.060,0.000,0.014,0.994,0.012,-0.002,0.004,0.000,0.000,0.000,0.000,0.000,0,2,0,1,7,255,960,250,0,0,-89.611,0.535,-31.066
EX0521-092111,3,C26,prep,2301,2301,0,380899.091,0.684,-0.678,0.192,0.187,0,0,0,0,0,0,0,0,0,0.000,0,0,0.134,0.004,-0.120,-0.060,0.000,0.014,0.994,0.010,-0.002,0.004,-0.004,0.000,0.000,0.000,0.000,0,2,0,1,7,255,960,250,0,0,-89.612,0.534,-31.066
EX0521-092111,3,C26,prep,2301,2301,0,380904.092,0.684,-0.678,0.192,0.187,0,0,0,0,0,0,0,0,0,0.000,0,0,0.085,0.006,0.060,0.000,-0.060,0.014,0.996,0.011,-0.006,0.002,-0.004,0.000,0.000,0.000,0.000,0,2,0,1,7,255,960,250,0,0,-89.612,0.533,-31.066
EX0521-092111,3,C26,prep,2328,2328,0,380909.091,0.684,-0.678,0.192,0.187,0,0,0,0,0,0,0,0,0,0.000,0,0,0.060,0.002,0.000,-0.060,0.000,0.015,0.994,0.011,0.000,0.002,0.000,0.000,0.000,0.000,0.000,0,2,0,1,7,255,960,250,0,0,-89.613,0.534,-31.066
EX0521-092111,3,C26,prep,2328,2328,0,380914.092,0.684,-0.678,0.192,0.187,0,0,0,0,0,0,0,0,0,0.000,0,0,0.085,0.003,-0.060,-0.060,0.000,0.014,0.994,0.011,-0.002,0.002,0.000,0.000,0.000,0.000,0.000,0,2,0,1,7,255,960,250,0,0,-89.613,0.533,-31.066
EX0521-092111,3,C26,prep,2328,2328,0,380919.091,0.684,-0.678,0.192,0.187,0,0,0,0,0,0,0,0,0,0.000,0,0,0.085,0.003,0.060,-0.060,0.000,0.014,0.994,0.011,-0.002,0.002,0.000,0.000,0.000,0.000,0.000,0,2,0,1,7,255,960,250,0,0,-89.614,0.532,-31.066
EX0521-092111,3,C26,prep,2328,2328,0,380924.092,0.684,-0.678,0.192,0.187,0,0,0,0,0,0,0,0,0,0.000,0,0,0.104,0.003,-0.060,-0.060,-0.060,0.015,0.994,0.011,-0.002,0.002,0.000,0.000,0.000,0.000,0.000,0,2,0,1,7,255,960,250,0,0,-89.614,0.533,-31.066
EX0521-092111,3,C26,prep,2329,2329,0,380929.091,0.684,-0.678,0.192,0.187,0,0,0,0,0,0,0,0,0,0.000,0,0,0.085,0.002,0.000,-0.060,-0.060,0.015,0.995,0.011,0.002,0.000,0.000,0.000,0.000,0.000,0.000,0,2,0,1,7,255,960,250,0,0,-89.615,0.533,-31.066
EX0521-092111,3,C26,prep,2329,2329,0,380934.093,0.684,-0.678,0.192,0.187,0,0,0,0,0,0,0,0,0,0.000,0,0,0.104,0.002,0.060,-0.060,-0.060,0.016,0.995,0.011,0.002,0.000,0.010,0.000,0.000,0.000,0.000,0,2,0,1,7,255,960,250,0,0,-89.615,0.534,-31.066
EX0521-092111,3,C26,prep,2343,2343,0,380939.091,0.684,-0.678,0.192,0.187,0,0,0,0,0,0,0,0,0,0.000,0,0,0.060,0.002,0.000,-0.060,0.000,0.015,0.995,0.011,0.002,0.000,0.010,0.000,0.000,0.000,0.000,0,2,0,1,7,255,960,250,0,0,-89.616,0.535,-31.066
EX0521-092111,3,C26,prep,2343,2343,0,380944.092,0.684,-0.678,0.192,0.187,0,0,0,0,0,0,0,0,0,0.000,0,0,0.060,0.004,0.000,-0.060,0.000,0.015,0.993,0.010,0.004,0.000,0.006,0.000,0.000,0.000,0.000,0,2,0,1,7,255,960,250,0,0,-89.616,0.535,-31.066
EX0521-092111,3,C26,prep,2343,2343,0,380949.091,0.684,-0.678,0.192,0.187,0,0,0,0,0,0,0,0,0,0.000,0,0,0.000,0.004,0.000,0.000,0.000,0.015,0.995,0.011,0.004,0.000,0.006,0.000,0.000,0.000,0.000,0,2,0,1,7,255,960,250,0,0,-89.617,0.536,-31.066
EX0521-092111,3,C26,prep,2343,2343,0,380954.092,0.684,-0.678,0.192,0.187,0,0,0,0,0,0,0,0,0,0.000,0,0,0.060,0.004,0.000,-0.060,0.000,0.015,0.994,0.011,0.004,0.000,-0.004,0.000,0.000,0.000,0.000,0,2,0,1,7,255,960,250,0,0,-89.617,0.537,-31.066
EX0521-092111,3,C26,prep,2343,2343,0,380959.091,0.684,-0.678,0.192,0.187,0,0,0,0,0,0,0,0,0,0.000,0,0,0.060,0.004,0.000,-0.060,0.000,0.015,0.994,0.011,0.002,-0.004,-0.004,0.000,0.000,0.000,0.000,0,2,0,1,7,255,960,250,0,0,-89.618,0.537,-31.066
EX0521-092111,3,C26,prep,2343,2343,0,380964.093,0.684,-0.678,0.192,0.187,0,0,0,0,0,0,0,0,0,0.000,0,0,0.104,0.000,-0.060,-0.060,-0.060,0.014,0.994,0.010,0.000,0.000,-0.004,0.000,0.000,0.000,0.000,0,2,0,1,7,255,960,250,0,0,-89.618,0.536,-31.066
EX0521-092111,3,C26,prep,2375,2375,0,380969.091,0.684,-0.678,0.192,0.187,0,0,0,0,0,0,0,0,0,0.000,0,0,0.085,0.006,0.000,-0.060,-0.060,0.014,0.994,0.011,-0.004,0.004,0.000,0.000,0.000,0.000,0.000,0,2,0,1,7,255,960,250,0,0,-89.619,0.535,-31.066
EX0521-092111,3,C26,prep,2375,2375,0,380974.092,0.684,-0.678,0.192,0.187,0,0,0,0,0,0,0,0,0,0.000,0,0,0.104,0.007,-0.060,-0.060,-0.060,0.014,0.995,0.012,-0.006,0.004,0.000,0.000,0.000,0.000,0.000,0,2,0,1,7,255,960,250,0,0,-89.614,0.534,-31.066
EX0521-092111,3,C26,prep,2377,2377,0,380979.091,0.684,-0.678,0.192,0.187,0,0,0,0,0,0,0,0,0,0.000,0,0,0.060,0.012,0.000,-0.060,0.000,0.014,0.994,0.012,-0.010,-0.006,0.000,0.000,0.000,0.000,0.000,0,2,0,1,7,255,960,250,0,0,-89.610,0.534,-31.066
EX0521-092111,3,C26,prep,2377,2377,0,380984.092,0.684,-0.678,0.192,0.187,0,0,0,0,0,0,0,0,0,0.000,0,0,0.060,0.012,0.000,-0.060,0.000,0.015,0.995,0.010,-0.010,-0.006,0.006,0.000,0.000,0.000,0.000,0,2,0,1,7,255,960,250,0,0,-89.610,0.534,-31.066
EX0521-092111,3,C26,prep,2404,2404,0,380989.091,0.684,-0.678,0.192,0.187,0,0,0,0,0,0,0,0,0,0.000,0,0,0.085,0.006,-0.060,-0.060,0.000,0.014,0.994,0.010,-0.002,0.006,0.000,0.000,0.000,0.000,0.000,0,2,0,1,7,255,960,250,0,0,-89.611,0.533,-31.066
EX0521-092111,3,C26,prep,2404,2404,0,380994.092,0.684,-0.678,0.192,0.187,0,0,0,0,0,0,0,0,0,0.000,0,0,0.085,0.007,0.000,-0.060,-0.060,0.015,0.994,0.011,0.004,0.006,0.000,0.000,0.000,0.000,0.000,0,2,0,1,7,255,960,250,0,0,-89.611,0.534,-31.066
EX0521-092111,3,C26,prep,2404,2404,0,380999.091,0.684,-0.678,0.192,0.187,0,0,0,0,0,0,0,0,0,0.000,0,0,0.085,0.007,-0.060,-0.060,0.000,0.016,0.995,0.012,0.004,-0.006,0.000,0.000,0.000,0.000,0.000,0,2,0,1,7,255,960,250,0,0,-89.612,0.535,-31.066
EX0521-092111,3,C26,prep,2404,2404,0,381004.092,0.684,-0.678,0.192,0.187,0,0,0,0,0,0,0,0,0,0.000,0,0,0.120,0.007,0.000,-0.120,0.000,0.014,0.994,0.011,0.004,-0.006,0.000,0.000,0.000,0.000,0.000,0,2,0,1,7,255,960,250,0,0,-89.612,0.534,-31.066
EX0521-092111,3,C26,prep,2406,2406,0,381009.091,0.684,-0.678,0.192,0.187,0,0,0,0,0,0,0,0,0,0.000,0,0,0.060,0.004,0.000,-0.060,0.000,0.014,0.994,0.011,-0.002,0.004,0.000,0.000,0.000,0.000,0.000,0,2,0,1,7,255,960,250,0,0,-89.613,0.533,-31.066
EX0521-092111,3,C26,prep,2406,2406,0,381014.092,0.684,-0.678,0.192,0.187,0,0,0,0,0,0,0,0,0,0.000,0,0,0.060,0.008,0.000,-0.060,0.000,0.014,0.996,0.011,-0.006,0.006,0.000,0.000,0.000,0.000,0.000,0,2,0,1,7,255,960,250,0,0,-89.613,0.532,-31.066
EX0521-092111,3,C26,prep,2438,2438,0,381019.091,0.684,-0.678,0.192,0.187,0,0,0,0,0,0,0,0,0,0.000,0,0,0.134,0.008,0.000,-0.120,-0.060,0.015,0.995,0.011,-0.006,0.006,0.010,0.000,0.000,0.000,0.000,0,2,0,1,7,255,960,250,0,0,-89.614,0.533,-31.066
EX0521-092111,3,C26,prep,2438,2438,0,381024.092,0.684,-0.678,0.192,0.187,0,0,0,0,0,0,0,0,0,0.000,0,0,0.085,0.006,0.000,-0.060,-0.060,0.014,0.995,0.012,-0.006,0.000,0.010,0.000,0.000,0.000,0.000,0,2,0,1,7,255,960,250,0,0,-89.610,0.532,-31.066
EX0521-092111,3,C26,prep,2438,2438,0,381029.092,0.684,-0.678,0.192,0.187,0,0,0,0,0,0,0,0,0,0.000,0,0,0.104,0.004,-0.060,-0.060,-0.060,0.014,0.995,0.011,-0.004,0.000,0.010,0.000,0.000,0.000,0.000,0,2,0,1,7,255,960,250,0,0,-89.610,0.531,-31.066
EX0521-092111,3,C26,prep,2438,2438,0,381034.093,0.684,-0.678,0.192,0.187,0,0,0,0,0,0,0,0,0,0.000,0,0,0.085,0.004,0.000,-0.060,-0.060,0.015,0.995,0.011,-0.004,-0.002,0.004,0.000,0.000,0.000,0.000,0,2,0,1,7,255,960,250,0,0,-89.611,0.531,-31.066
EX0521-092111,3,C26,prep,2438,2438,0,381039.091,0.684,-0.678,0.192,0.187,0,0,0,0,0,0,0,0,0,0.000,0,0,0.085,0.000,0.000,-0.060,-0.060,0.015,0.995,0.011,0.000,0.000,0.004,0.000,0.000,0.000,0.000,0,2,0,1,7,255,960,250,0,0,-89.611,0.532,-31.066
EX0521-092111,3,C26,prep,2438,2438,0,381044.092,0.684,-0.678,0.192,0.187,0,0,0,0,0,0,0,0,0,0.000,0,0,0.060,0.002,0.000,-0.060,0.000,0.014,0.995,0.011,0.000,-0.002,0.010,0.000,0.000,0.000,0.000,0,2,0,1,7,255,960,250,0,0,-89.612,0.531,-31.066
EX0521-092111,3,C26,prep,2438,2438,0,381049.091,0.684,-0.678,0.192,0.187,0,0,0,0,0,0,0,0,0,0.000,0,0,0.085,0.004,-0.060,-0.060,0.000,0.014,0.994,0.011,-0.004,-0.002,0.010,0.000,0.000,0.000,0.000,0,2,0,1,7,255,960,250,0,0,-89.612,0.530,-31.066
EX0521-092111,3,C26,prep,2438,2438,0,381054.092,0.684,-0.678,0.192,0.187,0,0,0,0,0,0,0,0,0,0.000,0,0,0.085,0.004,0.000,-0.060,-0.060,0.015,0.995,0.011,-0.004,-0.002,0.010,0.000,0.000,0.000,0.000,0,2,0,1,7,255,960,250,0,0,-89.613,0.531,-31.066
EX0521-092111,3,C26,prep,2467,2467,0,381059.091,0.684,-0.678,0.192,0.187,0,0,0,0,0,0,0,0,0,0.000,0,0,0.085,0.004,0.000,-0.060,0.060,0.014,0.995,0.011,-0.004,-0.002,0.010,0.000,0.000,0.000,0.000,0,2,0,1,7,255,960,250,0,0,-89.613,0.530,-31.066
EX0521-092111,3,C26,prep,2467,2467,0,381064.092,0.684,-0.678,0.192,0.187,0,0,0,0,0,0,0,0,0,0.000,0,0,0.134,0.004,0.000,-0.120,-0.060,0.015,0.994,0.012,0.000,-0.004,0.010,0.000,0.000,0.000,0.000,0,2,0,1,7,255,960,250,0,0,-89.609,0.531,-31.066
EX0521-092111,3,C26,prep,2478,2478,0,381069.092,0.684,-0.678,0.192,0.187,0,0,0,0,0,0,0,0,0,0.000,0,0,0.060,0.004,0.000,-0.060,0.000,0.014,0.994,0.011,-0.004,-0.002,0.000,0.000,0.000,0.000,0.000,0,2,0,1,7,255,960,250,0,0,-89.610,0.530,-31.066
EX0521-092111,3,C26,prep,2478,2478,0,381074.093,0.684,-0.678,0.192,0.187,0,0,0,0,0,0,0,0,0,0.000,0,0,0.000,0.002,0.000,0.000,0.000,0.015,0.995,0.011,0.002,0.000,0.000,0.000,0.000,0.000,0.000,0,2,0,1,7,255,960,250,0,0,-89.610,0.530,-31.066
EX0521-092111,3,C26,prep,2478,2478,0,381079.091,0.684,-0.678,0.192,0.187,0,0,0,0,0,0,0,0,0,0.000,0,0,0.085,0.000,0.000,-0.060,-0.060,0.015,0.994,0.011,0.000,0.000,0.000,0.000,0.000,0.000,0.000,0,2,0,1,7,255,960,250,0,0,-89.611,0.531,-31.066
EX0521-092111,3,C26,prep,2478,2478,0,381084.092,0.684,-0.678,0.192,0.187,0,0,0,0,0,0,0,0,0,0.000,0,0,0.104,0.000,-0.060,-0.060,-0.060,0.014,0.996,0.011,0.000,0.000,0.004,0.000,0.000,0.000,0.000,0,2,0,1,7,255,960,250,0,0,-89.611,0.530,-31.066
