experiment_id,condition_order_index,condition_id,condition_phase,condition_phase_elapsed_ms,condition_elapsed_ms,is_stimulation_on,t_ms,R_q0,R_q1,R_q2,R_q3,R_heel1,R_mid1,R_fore1,R_heel2,R_fore3,R_mid2,R_fore4,R_fore2,R_cadence,R_speed,R_steps,R_zupt,R_gyroNorm,R_accH,R_gyro_x,R_gyro_y,R_gyro_z,R_acc_x,R_acc_y,R_acc_z,R_nav_ax,R_nav_ay,R_nav_az,R_stepVel,R_stepVelj,R_stepDispRaw,R_stepDispZUPT,R_gaitEvent,R_motorMode,R_motorActive,R_motorAlignment,R_motorRegionMask,R_motorAmplitude,R_motorIntervalMs,R_motorDurationMs,R_motorPhaseMs,R_motorCycleMs,R_roll,R_pitch,R_yaw
EX0521-092111,4,C06,prep,79,79,0,425049.092,0.685,-0.678,0.192,0.187,0,0,0,0,0,0,0,0,0,0.000,0,0,0.170,0.006,0.120,0.000,-0.120,0.015,0.995,0.010,-0.004,0.004,0.006,0.000,0.000,0.000,0.000,0,2,0,2,7,255,960,300,0,0,-89.570,0.558,-31.104
EX0521-092111,4,C06,prep,79,79,0,425054.093,0.685,-0.678,0.192,0.187,0,0,0,0,0,0,0,0,0,0.000,0,0,0.323,0.012,0.300,0.000,-0.120,0.014,0.996,0.010,0.006,0.010,0.010,0.000,0.000,0.000,0.000,0,2,0,2,7,255,960,300,0,0,-89.570,0.557,-31.104
EX0521-092111,4,C06,prep,80,80,0,425059.092,0.685,-0.678,0.192,0.187,0,0,0,0,0,0,0,0,0,0.000,0,0,0.134,0.012,0.120,-0.060,0.000,0.016,0.993,0.014,0.006,0.010,0.006,0.000,0.000,0.000,0.000,0,2,0,2,7,255,960,300,0,0,-89.565,0.559,-31.104
EX0521-092111,4,C06,prep,80,80,0,425064.092,0.685,-0.678,0.192,0.187,0,0,0,0,0,0,0,0,0,0.000,0,0,0.255,0.010,-0.240,-0.060,0.060,0.015,0.993,0.012,-0.002,-0.010,-0.018,0.000,0.000,0.000,0.000,0,2,0,2,7,255,960,300,0,0,-89.565,0.560,-31.104
EX0521-092111,4,C06,prep,80,80,0,425069.093,0.685,-0.678,0.192,0.187,0,0,0,0,0,0,0,0,0,0.000,0,0,0.181,0.010,-0.180,0.020,0.000,0.014,1.000,0.010,-0.002,-0.010,-0.018,0.000,0.000,0.000,0.000,0,2,0,2,7,255,960,300,0,0,-89.566,0.559,-31.104
EX0521-092111,4,C06,prep,80,80,0,425074.092,0.685,-0.678,0.192,0.187,0,0,0,0,0,0,0,0,0,0.000,0,0,0.199,0.010,0.180,-0.060,-0.060,0.015,0.993,0.010,0.002,0.010,-0.014,0.000,0.000,0.000,0.000,0,2,0,2,7,255,960,300,0,0,-89.566,0.559,-31.104
EX0521-092111,4,C06,prep,80,80,0,425079.092,0.685,-0.678,0.192,0.187,0,0,0,0,0,0,0,0,0,0.000,0,0,0.104,0.014,-0.060,-0.060,0.060,0.016,0.990,0.011,0.010,0.010,-0.014,0.000,0.000,0.000,0.000,0,2,0,2,7,255,960,300,0,0,-89.567,0.560,-31.104
EX0521-092111,4,C06,prep,80,80,0,425084.091,0.685,-0.678,0.192,0.187,0,0,0,0,0,0,0,0,0,0.000,0,0,0.134,0.013,-0.120,-0.060,0.000,0.012,1.002,0.012,0.010,0.008,-0.014,0.000,0.000,0.000,0.000,0,2,0,2,7,255,960,300,0,0,-89.567,0.559,-31.104
EX0521-092111,4,C06,prep,81,81,0,425089.092,0.685,-0.678,0.192,0.187,0,0,0,0,0,0,0,0,0,0.000,0,0,0.693,0.008,0.620,0.080,-0.300,0.014,0.991,0.010,0.002,0.008,-0.038,0.000,0.000,0.000,0.000,0,2,0,2,7,255,960,300,0,0,-89.570,0.559,-31.104
EX0521-092111,4,C06,prep,81,81,0,425094.091,0.685,-0.678,0.192,0.187,0,0,0,0,0,0,0,0,0,0.000,0,0,0.933,0.008,-0.780,-0.180,0.480,0.015,0.991,0.011,0.002,0.008,-0.032,0.000,0.000,0.000,0.000,0,2,0,2,7,255,960,300,0,0,-89.567,0.559,-31.104
EX0521-092111,4,C06,prep,95,95,0,425099.092,0.685,-0.678,0.192,0.187,0,0,0,0,0,0,0,0,0,0.000,0,0,0.814,0.004,0.680,0.080,-0.440,0.013,1.004,0.012,0.002,0.004,-0.032,0.000,0.000,0.000,0.000,0,2,0,2,7,255,960,300,0,0,-89.571,0.558,-31.104
EX0521-092111,4,C06,prep,95,95,0,425104.091,0.685,-0.678,0.192,0.187,0,0,0,0,0,0,0,0,0,0.000,0,0,0.147,0.008,0.120,-0.060,0.060,0.016,0.981,0.011,0.008,0.000,-0.032,0.000,0.000,0.000,0.000,0,2,0,2,7,255,960,300,0,0,-89.571,0.560,-31.103
EX0521-092111,4,C06,prep,95,95,0,425109.093,0.685,-0.678,0.192,0.187,0,0,0,0,0,0,0,0,0,0.000,0,0,0.789,0.018,-0.720,-0.120,0.300,0.012,1.009,0.011,-0.018,0.004,0.096,0.000,0.000,0.000,0.000,0,2,0,2,7,255,960,300,0,0,-89.568,0.559,-31.104
EX0521-092111,4,C06,prep,95,95,0,425114.092,0.685,-0.678,0.192,0.187,0,0,0,0,0,0,0,0,0,0.000,0,0,1.369,0.015,1.220,0.000,-0.620,0.017,0.985,0.012,0.014,-0.006,-0.090,0.000,0.000,0.000,0.000,0,2,0,2,7,255,960,300,0,0,-89.574,0.556,-31.104
EX0521-092111,4,C06,prep,95,95,0,425119.091,0.685,-0.678,0.192,0.187,0,0,0,0,0,0,0,0,0,0.000,0,0,1.722,0.010,-1.580,-0.180,0.660,0.015,0.998,0.010,0.006,0.008,0.030,0.000,0.000,0.000,0.000,0,2,0,2,7,255,960,300,0,0,-89.567,0.559,-31.104
EX0521-092111,4,C06,prep,95,95,0,425124.092,0.685,-0.678,0.192,0.187,0,0,0,0,0,0,0,0,0,0.000,0,0,1.187,0.008,1.040,-0.120,-0.560,0.014,0.997,0.012,0.006,-0.006,0.024,0.000,0.000,0.000,0.000,0,2,0,2,7,255,960,300,0,0,-89.572,0.559,-31.104
EX0521-092111,4,C06,prep,95,95,0,425129.091,0.685,-0.678,0.192,0.187,0,0,0,0,0,0,0,0,0,0.000,0,0,0.705,0.008,-0.660,0.060,0.240,0.016,0.988,0.011,0.006,-0.006,0.024,0.000,0.000,0.000,0.000,0,2,0,2,7,255,960,300,0,0,-89.569,0.560,-31.103
EX0521-092111,4,C06,prep,95,95,0,425134.092,0.685,-0.678,0.192,0.187,0,0,0,0,0,0,0,0,0,0.000,0,0,0.247,0.013,0.000,-0.240,0.060,0.013,1.002,0.013,-0.012,-0.006,0.024,0.000,0.000,0.000,0.000,0,2,0,2,7,255,960,300,0,0,-89.565,0.560,-31.103
EX0521-092111,4,C06,prep,95,95,0,425139.092,0.685,-0.678,0.192,0.187,0,0,0,0,0,0,0,0,0,0.000,0,0,0.791,0.010,0.680,0.140,-0.380,0.017,0.991,0.010,0.010,-0.002,-0.032,0.000,0.000,0.000,0.000,0,2,0,2,7,255,960,300,0,0,-89.569,0.561,-31.103
EX0521-092111,4,C06,prep,95,95,0,425144.091,0.685,-0.678,0.192,0.187,0,0,0,0,0,0,0,0,0,0.000,0,0,1.159,0.002,-1.040,-0.180,0.480,0.014,0.996,0.011,-0.002,0.000,0.016,0.000,0.000,0.000,0.000,0,2,0,2,7,255,960,300,0,0,-89.564,0.561,-31.103
EX0521-092111,4,C06,prep,127,127,0,425149.092,0.685,-0.678,0.192,0.187,0,0,0,0,0,0,0,0,0,0.000,0,0,0.815,0.004,0.740,-0.120,-0.320,0.015,0.997,0.012,0.004,0.000,0.016,0.000,0.000,0.000,0.000,0,2,0,2,7,255,960,300,0,0,-89.568,0.561,-31.103
EX0521-092111,4,C06,prep,127,127,0,425154.091,0.685,-0.678,0.192,0.187,0,0,0,0,0,0,0,0,0,0.000,0,0,0.228,0.004,-0.180,0.140,0.000,0.014,0.988,0.009,0.004,0.002,0.016,0.000,0.000,0.000,0.000,0,2,0,2,7,255,960,300,0,0,-89.568,0.560,-31.103
EX0521-092111,4,C06,prep,127,127,0,425159.095,0.685,-0.678,0.192,0.187,0,0,0,0,0,0,0,0,0,0.000,0,0,0.420,0.007,-0.360,-0.180,0.120,0.012,1.003,0.012,0.004,0.006,0.020,0.000,0.000,0.000,0.000,0,2,0,2,7,255,960,300,0,0,-89.569,0.560,-31.103
EX0521-092111,4,C06,prep,127,127,0,425164.091,0.685,-0.678,0.192,0.187,0,0,0,0,0,0,0,0,0,0.000,0,0,0.545,0.007,0.500,-0.120,-0.180,0.016,0.986,0.013,0.004,0.006,-0.062,0.000,0.000,0.000,0.000,0,2,0,2,7,255,960,300,0,0,-89.564,0.561,-31.103
EX0521-092111,4,C06,prep,127,127,0,425169.091,0.685,-0.678,0.192,0.187,0,0,0,0,0,0,0,0,0,0.000,0,0,0.104,0.007,-0.060,0.060,0.060,0.014,0.998,0.009,0.004,0.006,0.034,0.000,0.000,0.000,0.000,0,2,0,2,7,255,960,300,0,0,-89.564,0.561,-31.103
EX0521-092111,4,C06,prep,127,127,0,425174.092,0.685,-0.678,0.192,0.187,0,0,0,0,0,0,0,0,0,0.000,0,0,0.379,0.004,-0.360,-0.120,0.000,0.014,0.998,0.011,0.004,0.002,0.034,0.000,0.000,0.000,0.000,0,2,0,2,7,255,960,300,0,0,-89.565,0.560,-31.103
EX0521-092111,4,C06,prep,143,143,0,425179.091,0.685,-0.678,0.192,0.187,0,0,0,0,0,0,0,0,0,0.000,0,0,0.216,0.003,0.000,-0.180,0.120,0.016,0.987,0.015,-0.002,0.002,0.034,0.000,0.000,0.000,0.000,0,2,0,2,7,255,960,300,0,0,-89.559,0.561,-31.103
EX0521-092111,4,C06,prep,143,143,0,425184.092,0.685,-0.678,0.192,0.187,0,0,0,0,0,0,0,0,0,0.000,0,0,1.606,0.003,1.520,0.140,-0.500,0.014,1.000,0.009,-0.002,0.002,0.034,0.000,0.000,0.000,0.000,0,2,0,2,7,255,960,300,0,0,-89.567,0.561,-31.103
EX0521-092111,4,C06,prep,143,143,0,425189.091,0.685,-0.678,0.192,0.187,0,0,0,0,0,0,0,0,0,0.000,0,0,1.562,0.022,-1.520,0.000,0.360,0.016,0.993,0.008,0.010,0.020,-0.018,0.000,0.000,0.000,0.000,0,2,0,2,7,255,960,300,0,0,-89.559,0.561,-31.103
EX0521-092111,4,C06,prep,143,143,0,425194.092,0.685,-0.678,0.192,0.187,0,0,0,0,0,0,0,0,0,0.000,0,0,0.550,0.022,-0.480,-0.240,0.120,0.015,0.992,0.016,0.010,0.020,-0.018,0.000,0.000,0.000,0.000,0,2,0,2,7,255,960,300,0,0,-89.552,0.562,-31.103
EX0521-092111,4,C06,prep,144,144,0,425199.092,0.685,-0.678,0.192,0.187,0,0,0,0,0,0,0,0,0,0.000,0,0,2.097,0.008,2.020,-0.060,-0.560,0.014,0.994,0.012,-0.006,-0.006,-0.018,0.000,0.000,0.000,0.000,0,2,0,2,7,255,960,300,0,0,-89.563,0.562,-31.103
EX0521-092111,4,C06,prep,144,144,0,425204.091,0.685,-0.678,0.192,0.187,0,0,0,0,0,0,0,0,0,0.000,0,0,0.484,0.008,-0.480,0.000,0.060,0.013,1.002,0.004,-0.006,-0.006,-0.008,0.000,0.000,0.000,0.000,0,2,0,2,7,255,960,300,0,0,-89.563,0.561,-31.103
EX0521-092111,4,C06,prep,159,159,0,425209.092,0.685,-0.678,0.192,0.187,0,0,0,0,0,0,0,0,0,0.000,0,0,1.883,0.008,-1.820,-0.060,0.480,0.015,0.988,0.014,-0.006,-0.006,-0.008,0.000,0.000,0.000,0.000,0,2,0,2,7,255,960,300,0,0,-89.552,0.561,-31.103
EX0521-092111,4,C06,prep,159,159,0,425214.091,0.685,-0.678,0.192,0.187,0,0,0,0,0,0,0,0,0,0.000,0,0,1.072,0.022,1.040,0.000,-0.260,0.014,0.995,0.014,-0.012,-0.018,0.006,0.000,0.000,0.000,0.000,0,2,0,2,7,255,960,300,0,0,-89.556,0.561,-31.103
EX0521-092111,4,C06,prep,175,175,0,425219.092,0.685,-0.678,0.192,0.187,0,0,0,0,0,0,0,0,0,0.000,0,0,1.365,0.022,1.280,-0.180,-0.440,0.014,0.995,0.006,-0.012,-0.018,0.004,0.000,0.000,0.000,0.000,0,2,0,2,7,255,960,300,0,0,-89.563,0.560,-31.103
EX0521-092111,4,C06,prep,175,175,0,425224.091,0.685,-0.678,0.192,0.187,0,0,0,0,0,0,0,0,0,0.000,0,0,1.960,0.007,-1.880,-0.120,0.540,0.015,0.997,0.012,0.004,-0.006,0.006,0.000,0.000,0.000,0.000,0,2,0,2,7,255,960,300,0,0,-89.554,0.560,-31.103
EX0521-092111,4,C06,prep,175,175,0,425229.092,0.685,-0.678,0.192,0.187,0,0,0,0,0,0,0,0,0,0.000,0,0,0.498,0.007,0.420,0.060,-0.260,0.014,0.992,0.015,0.004,-0.006,0.004,0.000,0.000,0.000,0.000,0,2,0,2,7,255,960,300,0,0,-89.548,0.560,-31.103
EX0521-092111,4,C06,prep,175,175,0,425234.092,0.685,-0.678,0.192,0.187,0,0,0,0,0,0,0,0,0,0.000,0,0,0.566,0.007,0.560,0.060,-0.060,0.015,0.993,0.008,0.004,-0.006,-0.018,0.000,0.000,0.000,0.000,0,2,0,2,7,255,960,300,0,0,-89.548,0.561,-31.103
EX0521-092111,4,C06,prep,232,232,0,425239.091,0.685,-0.678,0.192,0.187,0,0,0,0,0,0,0,0,0,0.000,0,0,0.732,0.013,-0.720,-0.060,0.120,0.015,0.998,0.010,0.008,0.010,-0.018,0.000,0.000,0.000,0.000,0,2,0,2,7,255,960,300,0,0,-89.545,0.560,-31.103
EX0521-092111,4,C06,prep,232,232,0,425244.092,0.685,-0.678,0.192,0.187,0,0,0,0,0,0,0,0,0,0.000,0,0,0.216,0.013,-0.120,-0.180,0.000,0.016,0.991,0.015,0.008,0.010,-0.018,0.000,0.000,0.000,0.000,0,2,0,2,7,255,960,300,0,0,-89.539,0.562,-31.103
EX0521-092111,4,C06,prep,234,234,0,425249.091,0.685,-0.678,0.192,0.187,0,0,0,0,0,0,0,0,0,0.000,0,0,0.634,0.009,0.620,-0.120,-0.060,0.015,0.995,0.011,0.008,0.004,0.002,0.000,0.000,0.000,0.000,0,2,0,2,7,255,960,300,0,0,-89.542,0.563,-31.103
EX0521-092111,4,C06,prep,234,234,0,425254.092,0.685,-0.678,0.192,0.187,0,0,0,0,0,0,0,0,0,0.000,0,0,0.147,0.011,0.060,-0.060,-0.120,0.015,0.997,0.007,0.010,0.004,0.002,0.000,0.000,0.000,0.000,0,2,0,2,7,255,960,300,0,0,-89.542,0.562,-31.103
EX0521-092111,4,C06,prep,235,235,0,425259.095,0.685,-0.678,0.192,0.187,0,0,0,0,0,0,0,0,0,0.000,0,0,0.913,0.011,-0.860,-0.060,0.300,0.014,0.990,0.014,0.010,0.004,0.002,0.000,0.000,0.000,0.000,0,2,0,2,7,255,960,300,0,0,-89.537,0.562,-31.103
EX0521-092111,4,C06,prep,235,235,0,425264.091,0.685,-0.678,0.192,0.187,0,0,0,0,0,0,0,0,0,0.000,0,0,0.646,0.004,0.620,0.020,-0.180,0.015,0.997,0.011,0.004,0.002,0.024,0.000,0.000,0.000,0.000,0,2,0,2,7,255,960,300,0,0,-89.540,0.561,-31.103
EX0521-092111,4,C06,prep,239,239,0,425269.092,0.685,-0.678,0.192,0.187,0,0,0,0,0,0,0,0,0,0.000,0,0,0.136,0.004,0.120,0.020,-0.060,0.014,0.995,0.008,0.004,0.002,0.000,0.000,0.000,0.000,0.000,0,2,0,2,7,255,960,300,0,0,-89.541,0.561,-31.103
EX0521-092111,4,C06,prep,239,239,0,425274.091,0.685,-0.678,0.192,0.187,0,0,0,0,0,0,0,0,0,0.000,0,0,0.825,0.004,-0.780,-0.120,0.240,0.015,0.996,0.012,0.004,0.002,0.010,0.000,0.000,0.000,0.000,0,2,0,2,7,255,960,300,0,0,-89.537,0.560,-31.103
EX0521-092111,4,C06,prep,239,239,0,425279.092,0.685,-0.678,0.192,0.187,0,0,0,0,0,0,0,0,0,0.000,0,0,0.535,0.004,0.500,-0.060,-0.180,0.014,0.994,0.012,-0.002,-0.004,0.000,0.000,0.000,0.000,0.000,0,2,0,2,7,255,960,300,0,0,-89.537,0.560,-31.103
EX0521-092111,4,C06,prep,239,239,0,425284.091,0.685,-0.678,0.192,0.187,0,0,0,0,0,0,0,0,0,0.000,0,0,0.241,0.004,0.240,0.020,0.000,0.015,0.993,0.008,-0.002,-0.004,-0.008,0.000,0.000,0.000,0.000,0,2,0,2,7,255,960,300,0,0,-89.538,0.561,-31.103
EX0521-092111,4,C06,prep,239,239,0,425289.092,0.685,-0.678,0.192,0.187,0,0,0,0,0,0,0,0,0,0.000,0,0,0.547,0.015,-0.540,-0.060,0.060,0.014,0.997,0.010,0.004,0.014,-0.008,0.000,0.000,0.000,0.000,0,2,0,2,7,255,960,300,0,0,-89.538,0.561,-31.103
EX0521-092111,4,C06,prep,239,239,0,425294.092,0.685,-0.678,0.192,0.187,0,0,0,0,0,0,0,0,0,0.000,0,0,0.147,0.015,0.120,-0.060,-0.060,0.015,0.992,0.013,0.004,0.014,-0.014,0.000,0.000,0.000,0.000,0,2,0,2,7,255,960,300,0,0,-89.534,0.562,-31.103
EX0521-092111,4,C06,prep,264,264,0,425299.092,0.685,-0.678,0.192,0.187,0,0,0,0,0,0,0,0,0,0.000,0,0,0.306,0.006,0.300,-0.060,0.000,0.015,0.996,0.011,0.004,0.004,0.010,0.000,0.000,0.000,0.000,0,2,0,2,7,255,960,300,0,0,-89.534,0.563,-31.103
EX0521-092111,4,C06,prep,264,264,0,425304.092,0.685,-0.678,0.192,0.187,0,0,0,0,0,0,0,0,0,0.000,0,0,0.307,0.011,-0.300,0.020,-0.060,0.015,0.995,0.011,0.010,0.004,0.002,0.000,0.000,0.000,0.000,0,2,0,2,7,255,960,300,0,0,-89.535,0.564,-31.103
EX0521-092111,4,C06,prep,265,265,0,425309.091,0.685,-0.677,0.192,0.187,0,0,0,0,0,0,0,0,0,0.000,0,0,0.255,0.011,-0.240,-0.060,0.060,0.015,0.993,0.013,0.010,0.004,0.002,0.000,0.000,0.000,0.000,0,2,0,2,7,255,960,300,0,0,-89.530,0.565,-31.103
EX0521-092111,4,C06,prep,265,265,0,425314.092,0.685,-0.677,0.192,0.187,0,0,0,0,0,0,0,0,0,0.000,0,0,0.507,0.004,0.500,-0.060,-0.060,0.014,0.996,0.012,-0.002,0.004,0.002,0.000,0.000,0.000,0.000,0,2,0,2,7,255,960,300,0,0,-89.531,0.564,-31.103
EX0521-092111,4,C06,prep,266,266,0,425319.092,0.685,-0.677,0.192,0.187,0,0,0,0,0,0,0,0,0,0.000,0,0,0.060,0.004,-0.060,0.000,0.000,0.014,0.994,0.009,-0.002,0.004,-0.008,0.000,0.000,0.000,0.000,0,2,0,2,7,255,960,300,0,0,-89.531,0.564,-31.103
EX0521-092111,4,C06,prep,266,266,0,425324.091,0.685,-0.677,0.192,0.187,0,0,0,0,0,0,0,0,0,0.000,0,0,0.441,0.004,-0.420,-0.060,0.120,0.015,0.993,0.013,0.000,0.004,-0.008,0.000,0.000,0.000,0.000,0,2,0,2,7,255,960,300,0,0,-89.531,0.565,-31.103
EX0521-092111,4,C06,prep,303,303,0,425329.092,0.685,-0.677,0.192,0.187,0,0,0,0,0,0,0,0,0,0.000,0,0,0.456,0.008,0.440,0.000,-0.120,0.015,0.994,0.013,0.000,-0.008,-0.008,0.000,0.000,0.000,0.000,0,2,0,2,7,255,960,300,0,0,-89.532,0.564,-31.103
EX0521-092111,4,C06,prep,303,303,0,425334.091,0.685,-0.677,0.192,0.187,0,0,0,0,0,0,0,0,0,0.000,0,0,0.085,0.008,0.060,-0.060,0.000,0.014,0.994,0.009,0.000,-0.008,-0.004,0.000,0.000,0.000,0.000,0,2,0,2,7,255,960,300,0,0,-89.532,0.564,-31.103
EX0521-092111,4,C06,prep,303,303,0,425339.092,0.685,-0.677,0.192,0.187,0,0,0,0,0,0,0,0,0,0.000,0,0,0.329,0.000,-0.300,-0.120,0.060,0.015,0.995,0.012,0.000,0.000,-0.004,0.000,0.000,0.000,0.000,0,2,0,2,7,255,960,300,0,0,-89.533,0.563,-31.103
EX0521-092111,4,C06,prep,303,303,0,425344.091,0.685,-0.677,0.192,0.187,0,0,0,0,0,0,0,0,0,0.000,0,0,0.255,0.000,0.240,-0.060,-0.060,0.015,0.994,0.013,0.000,0.000,-0.004,0.000,0.000,0.000,0.000,0,2,0,2,7,255,960,300,0,0,-89.533,0.565,-31.103
EX0521-092111,4,C06,prep,329,329,0,425349.092,0.685,-0.677,0.192,0.187,0,0,0,0,0,0,0,0,0,0.000,0,0,0.180,0.000,0.180,0.000,0.000,0.014,0.996,0.010,0.000,0.000,0.006,0.000,0.000,0.000,0.000,0,2,0,2,7,255,960,300,0,0,-89.533,0.564,-31.103
EX0521-092111,4,C06,prep,329,329,0,425354.092,0.685,-0.677,0.192,0.187,0,0,0,0,0,0,0,0,0,0.000,0,0,0.306,0.006,-0.300,-0.060,0.000,0.015,0.996,0.011,0.006,0.000,0.010,0.000,0.000,0.000,0.000,0,2,0,2,7,255,960,300,0,0,-89.534,0.565,-31.103
EX0521-092111,4,C06,prep,332,332,0,425359.095,0.685,-0.677,0.192,0.187,0,0,0,0,0,0,0,0,0,0.000,0,0,0.104,0.006,0.060,-0.060,0.060,0.014,0.994,0.012,0.006,0.000,0.010,0.000,0.000,0.000,0.000,0,2,0,2,7,255,960,300,0,0,-89.534,0.565,-31.103
EX0521-092111,4,C06,prep,332,332,0,425364.092,0.685,-0.677,0.192,0.187,0,0,0,0,0,0,0,0,0,0.000,0,0,0.306,0.006,0.300,0.000,-0.060,0.014,0.996,0.011,-0.006,0.000,0.010,0.000,0.000,0.000,0.000,0,2,0,2,7,255,960,300,0,0,-89.534,0.564,-31.103
EX0521-092111,4,C06,prep,332,332,0,425369.091,0.685,-0.678,0.192,0.187,0,0,0,0,0,0,0,0,0,0.000,0,0,0.190,0.010,-0.180,-0.060,0.000,0.014,0.996,0.010,-0.006,0.008,0.010,0.000,0.000,0.000,0.000,0,2,0,2,7,255,960,300,0,0,-89.535,0.564,-31.103
EX0521-092111,4,C06,prep,332,332,0,425374.092,0.685,-0.678,0.192,0.187,0,0,0,0,0,0,0,0,0,0.000,0,0,0.190,0.008,-0.180,-0.060,0.000,0.016,0.994,0.013,0.000,0.008,0.010,0.000,0.000,0.000,0.000,0,2,0,2,7,255,960,300,0,0,-89.535,0.565,-31.103
EX0521-092111,4,C06,prep,333,333,0,425379.092,0.685,-0.678,0.192,0.187,0,0,0,0,0,0,0,0,0,0.000,0,0,0.336,0.006,0.300,-0.060,-0.140,0.013,0.996,0.012,0.000,0.006,0.010,0.000,0.000,0.000,0.000,0,2,0,2,7,255,960,300,0,0,-89.535,0.564,-31.103
EX0521-092111,4,C06,prep,333,333,0,425384.091,0.685,-0.678,0.192,0.187,0,0,0,0,0,0,0,0,0,0.000,0,0,0.147,0.007,-0.120,-0.060,0.060,0.015,0.994,0.010,0.004,0.006,-0.004,0.000,0.000,0.000,0.000,0,2,0,2,7,255,960,300,0,0,-89.536,0.564,-31.103
EX0521-092111,4,C06,prep,334,334,0,425389.092,0.685,-0.677,0.192,0.187,0,0,0,0,0,0,0,0,0,0.000,0,0,0.323,0.006,-0.300,-0.120,0.000,0.015,0.994,0.013,-0.002,0.006,-0.004,0.000,0.000,0.000,0.000,0,2,0,2,7,255,960,300,0,0,-89.532,0.565,-31.103
EX0521-092111,4,C06,prep,334,334,0,425394.091,0.685,-0.677,0.192,0.187,0,0,0,0,0,0,0,0,0,0.000,0,0,0.180,0.006,0.180,0.000,0.000,0.015,0.994,0.012,0.004,-0.004,-0.004,0.000,0.000,0.000,0.000,0,2,0,2,7,255,960,300,0,0,-89.532,0.566,-31.103
EX0521-092111,4,C06,prep,367,367,0,425399.092,0.685,-0.677,0.192,0.187,0,0,0,0,0,0,0,0,0,0.000,0,0,0.060,0.004,0.000,-0.060,0.000,0.014,0.994,0.010,0.000,-0.004,-0.004,0.000,0.000,0.000,0.000,0,2,0,2,7,255,960,300,0,0,-89.532,0.566,-31.103
EX0521-092111,4,C06,prep,367,367,0,425404.091,0.685,-0.677,0.192,0.187,0,0,0,0,0,0,0,0,0,0.000,0,0,0.255,0.008,-0.240,-0.060,0.060,0.014,0.996,0.011,0.000,0.008,-0.004,0.000,0.000,0.000,0.000,0,2,0,2,7,255,960,300,0,0,-89.533,0.565,-31.103
EX0521-092111,4,C06,prep,367,367,0,425409.092,0.685,-0.677,0.192,0.187,0,0,0,0,0,0,0,0,0,0.000,0,0,0.180,0.008,0.120,-0.120,-0.060,0.015,0.995,0.011,0.000,0.008,0.000,0.000,0.000,0.000,0.000,0,2,0,2,7,255,960,300,0,0,-89.533,0.565,-31.103
EX0521-092111,4,C06,prep,367,367,0,425414.092,0.685,-0.677,0.192,0.187,0,0,0,0,0,0,0,0,0,0.000,0,0,0.147,0.009,0.120,-0.060,-0.060,0.014,0.995,0.010,0.004,0.008,0.006,0.000,0.000,0.000,0.000,0,2,0,2,7,255,960,300,0,0,-89.533,0.564,-31.103
EX0521-092111,4,C06,prep,395,395,0,425419.091,0.685,-0.677,0.192,0.187,0,0,0,0,0,0,0,0,0,0.000,0,0,0.312,0.013,-0.300,-0.060,0.060,0.014,0.995,0.010,0.004,0.012,0.000,0.000,0.000,0.000,0.000,0,2,0,2,7,255,960,300,0,0,-89.534,0.564,-31.103
EX0521-092111,4,C06,prep,395,395,0,425424.092,0.685,-0.677,0.192,0.187,0,0,0,0,0,0,0,0,0,0.000,0,0,0.085,0.013,-0.060,-0.060,0.000,0.015,0.994,0.012,0.004,0.012,0.000,0.000,0.000,0.000,0.000,0,2,0,2,7,255,960,300,0,0,-89.534,0.563,-31.103
EX0521-092111,4,C06,prep,395,395,0,425429.091,0.685,-0.678,0.192,0.187,0,0,0,0,0,0,0,0,0,0.000,0,0,0.247,0.013,0.240,0.000,-0.060,0.014,0.996,0.010,0.004,0.012,0.000,0.000,0.000,0.000,0.000,0,2,0,2,7,255,960,300,0,0,-89.535,0.563,-31.103
EX0521-092111,4,C06,prep,395,395,0,425434.092,0.685,-0.678,0.192,0.187,0,0,0,0,0,0,0,0,0,0.000,0,0,0.199,0.013,-0.180,-0.060,-0.060,0.015,0.995,0.010,0.004,0.012,0.006,0.000,0.000,0.000,0.000,0,2,0,2,7,255,960,300,0,0,-89.535,0.564,-31.103
EX0521-092111,4,C06,prep,395,395,0,425439.092,0.685,-0.678,0.192,0.187,0,0,0,0,0,0,0,0,0,0.000,0,0,0.170,0.013,-0.120,-0.120,0.000,0.015,0.995,0.012,0.004,0.012,0.006,0.000,0.000,0.000,0.000,0,2,0,2,7,255,960,300,0,0,-89.535,0.565,-31.103
EX0521-092111,4,C06,prep,395,395,0,425444.091,0.685,-0.678,0.192,0.187,0,0,0,0,0,0,0,0,0,0.000,0,0,0.199,0.004,0.180,-0.060,-0.060,0.014,0.996,0.012,0.002,-0.004,0.006,0.000,0.000,0.000,0.000,0,2,0,2,7,255,960,300,0,0,-89.536,0.565,-31.103
EX0521-092111,4,C06,prep,431,431,0,425449.092,0.685,-0.678,0.192,0.187,0,0,0,0,0,0,0,0,0,0.000,0,0,0.134,0.004,-0.120,-0.060,0.000,0.015,0.995,0.011,0.002,-0.004,0.006,0.000,0.000,0.000,0.000,0,2,0,2,7,255,960,300,0,0,-89.536,0.564,-31.103
EX0521-092111,4,C06,prep,431,431,0,425454.091,0.685,-0.678,0.192,0.187,0,0,0,0,0,0,0,0,0,0.000,0,0,0.247,0.004,-0.240,-0.060,0.000,0.015,0.995,0.012,0.002,-0.004,0.000,0.000,0.000,0.000,0.000,0,2,0,2,7,255,960,300,0,0,-89.536,0.565,-31.103
EX0521-092111,4,C06,prep,431,431,0,425459.093,0.685,-0.678,0.192,0.187,0,0,0,0,0,0,0,0,0,0.000,0,0,0.190,0.003,0.180,-0.060,0.000,0.015,0.995,0.011,0.002,0.002,0.000,0.000,0.000,0.000,0.000,0,2,0,2,7,255,960,300,0,0,-89.537,0.566,-31.103
EX0521-092111,4,C06,prep,431,431,0,425464.091,0.685,-0.678,0.192,0.187,0,0,0,0,0,0,0,0,0,0.000,0,0,0.085,0.009,0.000,-0.060,-0.060,0.016,0.996,0.009,0.008,0.004,0.006,0.000,0.000,0.000,0.000,0,2,0,2,7,255,960,300,0,0,-89.537,0.567,-31.103
EX0521-092111,4,C06,prep,431,431,0,425469.092,0.685,-0.678,0.192,0.187,0,0,0,0,0,0,0,0,0,0.000,0,0,0.247,0.009,-0.240,-0.060,0.000,0.014,0.995,0.012,0.008,0.004,0.006,0.000,0.000,0.000,0.000,0,2,0,2,7,255,960,300,0,0,-89.537,0.567,-31.103
EX0521-092111,4,C06,prep,431,431,0,425474.092,0.685,-0.678,0.192,0.187,0,0,0,0,0,0,0,0,0,0.000,0,0,0.085,0.013,0.060,-0.060,0.000,0.013,0.994,0.012,-0.012,0.004,0.006,0.000,0.000,0.000,0.000,0,2,0,2,7,255,960,300,0,0,-89.538,0.566,-31.103
EX0521-092111,4,C06,prep,431,431,0,425479.091,0.685,-0.678,0.192,0.187,0,0,0,0,0,0,0,0,0,0.000,0,0,0.147,0.013,0.120,-0.060,-0.060,0.015,0.995,0.011,-0.012,0.004,0.000,0.000,0.000,0.000,0.000,0,2,0,2,7,255,960,300,0,0,-89.538,0.567,-31.103
EX0521-092111,4,C06,prep,431,431,0,425484.092,0.685,-0.678,0.192,0.187,0,0,0,0,0,0,0,0,0,0.000,0,0,0.190,0.006,-0.180,-0.060,0.000,0.015,0.995,0.011,0.004,0.004,0.000,0.000,0.000,0.000,0.000,0,2,0,2,7,255,960,300,0,0,-89.539,0.567,-31.103
EX0521-092111,4,C06,prep,452,452,0,425489.091,0.685,-0.678,0.192,0.187,0,0,0,0,0,0,0,0,0,0.000,0,0,0.104,0.006,-0.060,-0.060,-0.060,0.015,0.996,0.012,0.004,0.004,0.000,0.000,0.000,0.000,0.000,0,2,0,2,7,255,960,300,0,0,-89.539,0.568,-31.103
EX0521-092111,4,C06,prep,452,452,0,425494.092,0.685,-0.678,0.192,0.187,0,0,0,0,0,0,0,0,0,0.000,0,0,0.120,0.007,0.120,0.000,0.000,0.015,0.995,0.011,0.004,0.006,0.006,0.000,0.000,0.000,0.000,0,2,0,2,7,255,960,300,0,0,-89.539,0.568,-31.103
EX0521-092111,4,C06,prep,452,452,0,425499.092,0.685,-0.678,0.192,0.187,0,0,0,0,0,0,0,0,0,0.000,0,0,0.134,0.006,-0.120,-0.060,0.000,0.013,0.995,0.011,0.000,0.006,0.006,0.000,0.000,0.000,0.000,0,2,0,2,7,255,960,300,0,0,-89.540,0.567,-31.103
EX0521-092111,4,C06,prep,452,452,0,425504.091,0.685,-0.678,0.192,0.187,0,0,0,0,0,0,0,0,0,0.000,0,0,0.134,0.006,-0.120,-0.060,0.000,0.015,0.995,0.012,0.000,0.006,0.004,0.000,0.000,0.000,0.000,0,2,0,2,7,255,960,300,0,0,-89.540,0.567,-31.103
EX0521-092111,4,C06,prep,463,463,0,425509.092,0.685,-0.678,0.192,0.187,0,0,0,0,0,0,0,0,0,0.000,0,0,0.147,0.004,0.120,-0.060,-0.060,0.014,0.994,0.011,-0.002,0.004,0.000,0.000,0.000,0.000,0.000,0,2,0,2,7,255,960,300,0,0,-89.540,0.566,-31.103
EX0521-092111,4,C06,prep,463,463,0,425514.091,0.685,-0.678,0.192,0.187,0,0,0,0,0,0,0,0,0,0.000,0,0,0.104,0.004,-0.060,-0.060,-0.060,0.014,0.995,0.009,0.000,0.004,0.000,0.000,0.000,0.000,0.000,0,2,0,2,7,255,960,300,0,0,-89.541,0.566,-31.103
EX0521-092111,4,C06,prep,489,489,0,425519.092,0.685,-0.678,0.192,0.187,0,0,0,0,0,0,0,0,0,0.000,0,0,0.134,0.004,-0.120,-0.060,0.000,0.014,0.994,0.011,-0.002,0.004,-0.004,0.000,0.000,0.000,0.000,0,2,0,2,7,255,960,300,0,0,-89.541,0.565,-31.103
EX0521-092111,4,C06,prep,489,489,0,425524.091,0.685,-0.678,0.192,0.187,0,0,0,0,0,0,0,0,0,0.000,0,0,0.134,0.004,0.120,-0.060,0.000,0.014,0.994,0.011,-0.002,0.004,-0.004,0.000,0.000,0.000,0.000,0,2,0,2,7,255,960,300,0,0,-89.542,0.565,-31.103
EX0521-092111,4,C06,prep,489,489,0,425529.092,0.685,-0.678,0.192,0.187,0,0,0,0,0,0,0,0,0,0.000,0,0,0.104,0.004,0.060,-0.060,-0.060,0.014,0.995,0.010,-0.002,0.004,-0.004,0.000,0.000,0.000,0.000,0,2,0,2,7,255,960,300,0,0,-89.542,0.564,-31.103
EX0521-092111,4,C06,prep,489,489,0,425534.092,0.685,-0.678,0.192,0.187,0,0,0,0,0,0,0,0,0,0.000,0,0,0.134,0.004,-0.120,-0.060,0.000,0.015,0.995,0.011,-0.002,0.004,0.000,0.000,0.000,0.000,0.000,0,2,0,2,7,255,960,300,0,0,-89.542,0.564,-31.103
EX0521-092111,4,C06,prep,528,528,0,425539.091,0.685,-0.678,0.192,0.187,0,0,0,0,0,0,0,0,0,0.000,0,0,0.085,0.006,0.060,-0.060,0.000,0.015,0.993,0.011,0.004,0.004,0.000,0.000,0.000,0.000,0.000,0,2,0,2,7,255,960,300,0,0,-89.543,0.565,-31.103
EX0521-092111,4,C06,prep,528,528,0,425544.092,0.685,-0.678,0.192,0.187,0,0,0,0,0,0,0,0,0,0.000,0,0,0.170,0.006,0.120,-0.120,0.000,0.014,0.996,0.010,0.004,0.004,0.006,0.000,0.000,0.000,0.000,0,2,0,2,7,255,960,300,0,0,-89.543,0.565,-31.103
EX0521-092111,4,C06,prep,529,529,0,425549.091,0.685,-0.678,0.192,0.187,0,0,0,0,0,0,0,0,0,0.000,0,0,0.190,0.014,-0.180,-0.060,0.000,0.013,0.995,0.010,-0.002,0.014,0.004,0.000,0.000,0.000,0.000,0,2,0,2,7,255,960,300,0,0,-89.543,0.564,-31.103
EX0521-092111,4,C06,prep,529,529,0,425554.092,0.685,-0.678,0.192,0.187,0,0,0,0,0,0,0,0,0,0.000,0,0,0.085,0.014,-0.060,-0.060,0.000,0.015,0.995,0.012,-0.002,0.014,0.006,0.000,0.000,0.000,0.000,0,2,0,2,7,255,960,300,0,0,-89.544,0.565,-31.103
EX0521-092111,4,C06,prep,529,529,0,425559.095,0.685,-0.678,0.192,0.187,0,0,0,0,0,0,0,0,0,0.000,0,0,0.134,0.006,0.120,-0.060,0.000,0.014,0.996,0.011,0.000,0.006,0.006,0.000,0.000,0.000,0.000,0,2,0,2,7,255,960,300,0,0,-89.544,0.565,-31.103
EX0521-092111,4,C06,prep,529,529,0,425564.091,0.685,-0.678,0.192,0.187,0,0,0,0,0,0,0,0,0,0.000,0,0,0.085,0.007,-0.060,-0.060,0.000,0.015,0.995,0.010,0.004,0.006,0.006,0.000,0.000,0.000,0.000,0,2,0,2,7,255,960,300,0,0,-89.544,0.564,-31.103
EX0521-092111,4,C06,prep,543,543,0,425569.092,0.685,-0.678,0.192,0.187,0,0,0,0,0,0,0,0,0,0.000,0,0,0.085,0.007,-0.060,-0.060,0.000,0.015,0.995,0.011,0.004,0.006,0.000,0.000,0.000,0.000,0.000,0,2,0,2,7,255,960,300,0,0,-89.545,0.564,-31.103
EX0521-092111,4,C06,prep,543,543,0,425574.091,0.685,-0.678,0.192,0.187,0,0,0,0,0,0,0,0,0,0.000,0,0,0.085,0.009,0.060,-0.060,0.000,0.014,0.995,0.011,0.004,0.008,0.000,0.000,0.000,0.000,0.000,0,2,0,2,7,255,960,300,0,0,-89.545,0.563,-31.103
EX0521-092111,4,C06,prep,543,543,0,425579.092,0.685,-0.678,0.192,0.187,0,0,0,0,0,0,0,0,0,0.000,0,0,0.085,0.009,-0.060,-0.060,0.000,0.014,0.994,0.011,-0.004,0.008,0.000,0.000,0.000,0.000,0.000,0,2,0,2,7,255,960,300,0,0,-89.546,0.563,-31.103
EX0521-092111,4,C06,prep,543,543,0,425584.091,0.685,-0.678,0.192,0.187,0,0,0,0,0,0,0,0,0,0.000,0,0,0.134,0.009,-0.120,-0.060,0.000,0.015,0.994,0.012,-0.004,0.008,-0.004,0.000,0.000,0.000,0.000,0,2,0,2,7,255,960,300,0,0,-89.546,0.564,-31.103
EX0521-092111,4,C06,prep,543,543,0,425589.092,0.685,-0.678,0.192,0.187,0,0,0,0,0,0,0,0,0,0.000,0,0,0.085,0.009,0.060,-0.060,0.000,0.016,0.994,0.011,0.004,-0.008,-0.004,0.000,0.000,0.000,0.000,0,2,0,2,7,255,960,300,0,0,-89.546,0.565,-31.103
EX0521-092111,4,C06,prep,543,543,0,425594.092,0.685,-0.678,0.192,0.187,0,0,0,0,0,0,0,0,0,0.000,0,0,0.190,0.009,0.180,-0.060,0.000,0.014,0.994,0.010,0.004,-0.008,-0.004,0.000,0.000,0.000,0.000,0,2,0,2,7,255,960,300,0,0,-89.547,0.565,-31.103
EX0521-092111,4,C06,prep,559,559,0,425599.092,0.685,-0.678,0.192,0.187,0,0,0,0,0,0,0,0,0,0.000,0,0,0.120,0.006,-0.120,0.000,0.000,0.014,0.995,0.011,0.002,0.006,-0.004,0.000,0.000,0.000,0.000,0,2,0,2,7,255,960,300,0,0,-89.547,0.564,-31.103
EX0521-092111,4,C06,prep,559,559,0,425604.092,0.685,-0.678,0.192,0.187,0,0,0,0,0,0,0,0,0,0.000,0,0,0.060,0.006,0.000,-0.060,0.000,0.014,0.994,0.011,0.000,0.006,-0.004,0.000,0.000,0.000,0.000,0,2,0,2,7,255,960,300,0,0,-89.547,0.564,-31.103
EX0521-092111,4,C06,prep,559,559,0,425609.091,0.685,-0.678,0.192,0.187,0,0,0,0,0,0,0,0,0,0.000,0,0,0.134,0.006,0.120,-0.060,0.000,0.015,0.996,0.010,0.000,0.006,0.004,0.000,0.000,0.000,0.000,0,2,0,2,7,255,960,300,0,0,-89.548,0.563,-31.103
EX0521-092111,4,C06,prep,559,559,0,425614.092,0.685,-0.678,0.192,0.187,0,0,0,0,0,0,0,0,0,0.000,0,0,0.134,0.008,-0.120,-0.060,0.000,0.015,0.996,0.011,0.008,0.002,0.014,0.000,0.000,0.000,0.000,0,2,0,2,7,255,960,300,0,0,-89.548,0.564,-31.103
EX0521-092111,4,C06,prep,575,575,0,425619.091,0.685,-0.678,0.192,0.187,0,0,0,0,0,0,0,0,0,0.000,0,0,0.060,0.008,0.000,-0.060,0.000,0.015,0.994,0.011,0.008,0.000,0.014,0.000,0.000,0.000,0.000,0,2,0,2,7,255,960,300,0,0,-89.549,0.564,-31.103
EX0521-092111,4,C06,prep,575,575,0,425624.091,0.685,-0.678,0.192,0.187,0,0,0,0,0,0,0,0,0,0.000,0,0,0.136,0.004,0.120,0.020,-0.060,0.015,0.995,0.011,0.004,-0.002,0.004,0.000,0.000,0.000,0.000,0,2,0,2,7,255,960,300,0,0,-89.549,0.565,-31.103
EX0521-092111,4,C06,prep,592,592,0,425629.092,0.685,-0.678,0.192,0.187,0,0,0,0,0,0,0,0,0,0.000,0,0,0.085,0.003,-0.060,-0.060,0.000,0.013,0.993,0.011,0.002,-0.002,-0.004,0.000,0.000,0.000,0.000,0,2,0,2,7,255,960,300,0,0,-89.549,0.565,-31.103
EX0521-092111,4,C06,prep,592,592,0,425634.091,0.685,-0.678,0.192,0.187,0,0,0,0,0,0,0,0,0,0.000,0,0,0.134,0.004,-0.060,-0.120,0.000,0.015,0.995,0.011,0.004,0.002,0.000,0.000,0.000,0.000,0.000,0,2,0,2,7,255,960,300,0,0,-89.550,0.564,-31.103
EX0521-092111,4,C06,prep,592,592,0,425639.092,0.685,-0.678,0.192,0.187,0,0,0,0,0,0,0,0,0,0.000,0,0,0.147,0.004,0.120,-0.060,-0.060,0.015,0.994,0.011,0.004,0.002,-0.004,0.000,0.000,0.000,0.000,0,2,0,2,7,255,960,300,0,0,-89.550,0.565,-31.103
EX0521-092111,4,C06,prep,592,592,0,425644.091,0.685,-0.678,0.192,0.187,0,0,0,0,0,0,0,0,0,0.000,0,0,0.060,0.004,0.000,-0.060,0.000,0.015,0.993,0.011,0.004,-0.002,-0.004,0.000,0.000,0.000,0.000,0,2,0,2,7,255,960,300,0,0,-89.550,0.565,-31.103
EX0521-092111,4,C06,prep,630,630,0,425649.092,0.685,-0.678,0.192,0.187,0,0,0,0,0,0,0,0,0,0.000,0,0,0.147,0.004,-0.120,-0.060,-0.060,0.015,0.996,0.012,0.000,-0.004,-0.004,0.000,0.000,0.000,0.000,0,2,0,2,7,255,960,300,0,0,-89.551,0.564,-31.103
EX0521-092111,4,C06,prep,630,630,0,425654.092,0.685,-0.678,0.192,0.187,0,0,0,0,0,0,0,0,0,0.000,0,0,0.087,0.003,0.060,0.020,-0.060,0.014,0.994,0.012,-0.002,-0.002,-0.010,0.000,0.000,0.000,0.000,0,2,0,2,7,255,960,300,0,0,-89.551,0.564,-31.103
EX0521-092111,4,C06,prep,632,632,0,425659.093,0.685,-0.678,0.192,0.187,0,0,0,0,0,0,0,0,0,0.000,0,0,0.085,0.003,0.060,-0.060,0.000,0.014,0.995,0.011,-0.002,-0.002,0.000,0.000,0.000,0.000,0.000,0,2,0,2,7,255,960,300,0,0,-89.551,0.563,-31.103
EX0521-092111,4,C06,prep,632,632,0,425664.092,0.685,-0.678,0.192,0.187,0,0,0,0,0,0,0,0,0,0.000,0,0,0.134,0.004,-0.120,-0.060,0.000,0.015,0.995,0.010,0.000,0.004,0.000,0.000,0.000,0.000,0.000,0,2,0,2,7,255,960,300,0,0,-89.552,0.564,-31.103
EX0521-092111,4,C06,prep,633,633,0,425669.091,0.685,-0.678,0.192,0.187,0,0,0,0,0,0,0,0,0,0.000,0,0,0.085,0.004,-0.060,-0.060,0.000,0.014,0.994,0.011,0.000,0.004,0.000,0.000,0.000,0.000,0.000,0,2,0,2,7,255,960,300,0,0,-89.552,0.564,-31.103
EX0521-092111,4,C06,prep,633,633,0,425674.092,0.685,-0.678,0.192,0.187,0,0,0,0,0,0,0,0,0,0.000,0,0,0.104,0.004,0.060,-0.060,-0.060,0.014,0.996,0.011,0.000,0.004,0.000,0.000,0.000,0.000,0.000,0,2,0,2,7,255,960,300,0,0,-89.553,0.563,-31.103
EX0521-092111,4,C06,prep,633,633,0,425679.092,0.685,-0.678,0.192,0.187,0,0,0,0,0,0,0,0,0,0.000,0,0,0.063,0.006,-0.060,0.020,0.000,0.014,0.994,0.010,0.000,0.006,-0.004,0.000,0.000,0.000,0.000,0,2,0,2,7,255,960,300,0,0,-89.553,0.563,-31.103
EX0521-092111,4,C06,prep,633,633,0,425684.091,0.685,-0.678,0.192,0.187,0,0,0,0,0,0,0,0,0,0.000,0,0,0.104,0.006,-0.060,-0.060,-0.060,0.015,0.994,0.011,0.002,0.006,-0.004,0.000,0.000,0.000,0.000,0,2,0,2,7,255,960,300,0,0,-89.553,0.564,-31.103
EX0521-092111,4,C06,prep,633,633,0,425689.092,0.685,-0.678,0.192,0.187,0,0,0,0,0,0,0,0,0,0.000,0,0,0.085,0.004,0.060,-0.060,0.000,0.015,0.994,0.012,0.002,-0.004,-0.008,0.000,0.000,0.000,0.000,0,2,0,2,7,255,960,300,0,0,-89.554,0.565,-31.103
EX0521-092111,4,C06,prep,633,633,0,425694.091,0.685,-0.678,0.192,0.187,0,0,0,0,0,0,0,0,0,0.000,0,0,0.104,0.006,-0.060,-0.060,-0.060,0.015,0.994,0.011,0.004,-0.004,-0.004,0.000,0.000,0.000,0.000,0,2,0,2,7,255,960,300,0,0,-89.554,0.566,-31.103
EX0521-092111,4,C06,prep,671,671,0,425699.092,0.685,-0.678,0.192,0.187,0,0,0,0,0,0,0,0,0,0.000,0,0,0.134,0.006,-0.060,-0.120,0.000,0.015,0.994,0.011,0.006,0.000,-0.004,0.000,0.000,0.000,0.000,0,2,0,2,7,255,960,300,0,0,-89.554,0.567,-31.103
EX0521-092111,4,C06,prep,671,671,0,425704.091,0.685,-0.678,0.192,0.187,0,0,0,0,0,0,0,0,0,0.000,0,0,0.085,0.006,0.060,-0.060,0.000,0.013,0.994,0.012,0.006,0.000,-0.004,0.000,0.000,0.000,0.000,0,2,0,2,7,255,960,300,0,0,-89.555,0.567,-31.103
EX0521-092111,4,C06,prep,671,671,0,425709.092,0.685,-0.678,0.192,0.187,0,0,0,0,0,0,0,0,0,0.000,0,0,0.060,0.006,0.000,-0.060,0.000,0.014,0.994,0.011,-0.006,0.002,-0.004,0.000,0.000,0.000,0.000,0,2,0,2,7,255,960,300,0,0,-89.555,0.566,-31.103
EX0521-092111,4,C06,prep,671,671,0,425714.092,0.685,-0.678,0.192,0.187,0,0,0,0,0,0,0,0,0,0.000,0,0,0.170,0.006,-0.120,-0.120,0.000,0.015,0.994,0.011,-0.006,0.002,-0.008,0.000,0.000,0.000,0.000,0,2,0,2,7,255,960,300,0,0,-89.556,0.567,-31.103
EX0521-092111,4,C06,prep,671,671,0,425719.091,0.685,-0.678,0.192,0.187,0,0,0,0,0,0,0,0,0,0.000,0,0,0.104,0.004,0.060,-0.060,-0.060,0.014,0.994,0.011,-0.004,0.000,-0.008,0.000,0.000,0.000,0.000,0,2,0,2,7,255,960,300,0,0,-89.556,0.567,-31.103
EX0521-092111,4,C06,prep,671,671,0,425724.092,0.685,-0.678,0.192,0.187,0,0,0,0,0,0,0,0,0,0.000,0,0,0.063,0.002,0.000,0.020,-0.060,0.014,0.994,0.011,-0.002,0.000,-0.008,0.000,0.000,0.000,0.000,0,2,0,2,7,255,960,300,0,0,-89.556,0.566,-31.103
EX0521-092111,4,C06,prep,696,696,0,425729.091,0.685,-0.678,0.192,0.187,0,0,0,0,0,0,0,0,0,0.000,0,0,0.134,0.004,-0.120,-0.060,0.000,0.014,0.995,0.011,-0.004,0.002,-0.008,0.000,0.000,0.000,0.000,0,2,0,2,7,255,960,300,0,0,-89.557,0.566,-31.103
EX0521-092111,4,C06,prep,696,696,0,425734.092,0.685,-0.678,0.192,0.187,0,0,0,0,0,0,0,0,0,0.000,0,0,0.085,0.008,0.060,-0.060,0.000,0.014,0.995,0.012,-0.008,0.002,0.000,0.000,0.000,0.000,0.000,0,2,0,2,7,255,960,300,0,0,-89.557,0.565,-31.103
EX0521-092111,4,C06,prep,697,697,0,425739.092,0.685,-0.678,0.192,0.187,0,0,0,0,0,0,0,0,0,0.000,0,0,0.104,0.008,0.060,-0.060,-0.060,0.015,0.995,0.012,-0.008,-0.002,0.000,0.000,0.000,0.000,0.000,0,2,0,2,7,255,960,300,0,0,-89.557,0.565,-31.103
EX0521-092111,4,C06,prep,697,697,0,425744.091,0.685,-0.678,0.192,0.187,0,0,0,0,0,0,0,0,0,0.000,0,0,0.085,0.003,-0.060,-0.060,0.000,0.015,0.994,0.011,-0.002,-0.002,0.000,0.000,0.000,0.000,0.000,0,2,0,2,7,255,960,300,0,0,-89.558,0.565,-31.103
EX0521-092111,4,C06,prep,737,737,0,425749.092,0.685,-0.678,0.192,0.187,0,0,0,0,0,0,0,0,0,0.000,0,0,0.104,0.003,-0.060,-0.060,-0.060,0.014,0.996,0.011,-0.002,-0.002,0.002,0.000,0.000,0.000,0.000,0,2,0,2,7,255,960,300,0,0,-89.558,0.564,-31.103
EX0521-092111,4,C06,prep,737,737,0,425754.091,0.685,-0.678,0.192,0.187,0,0,0,0,0,0,0,0,0,0.000,0,0,0.085,0.003,0.000,-0.060,-0.060,0.015,0.995,0.012,-0.002,-0.002,0.000,0.000,0.000,0.000,0.000,0,2,0,2,7,255,960,300,0,0,-89.558,0.564,-31.103
EX0521-092111,4,C06,prep,737,737,0,425759.094,0.685,-0.678,0.192,0.187,0,0,0,0,0,0,0,0,0,0.000,0,0,0.104,0.003,-0.060,-0.060,-0.060,0.015,0.995,0.011,-0.002,0.002,0.000,0.000,0.000,0.000,0.000,0,2,0,2,7,255,960,300,0,0,-89.559,0.563,-31.103
EX0521-092111,4,C06,prep,737,737,0,425764.091,0.685,-0.678,0.192,0.187,0,0,0,0,0,0,0,0,0,0.000,0,0,0.134,0.013,-0.120,-0.060,0.000,0.016,0.994,0.012,0.004,-0.012,0.000,0.000,0.000,0.000,0.000,0,2,0,2,7,255,960,300,0,0,-89.559,0.564,-31.103
EX0521-092111,4,C06,prep,737,737,0,425769.092,0.685,-0.678,0.192,0.187,0,0,0,0,0,0,0,0,0,0.000,0,0,0.104,0.013,0.060,-0.060,-0.060,0.015,0.994,0.012,0.004,-0.012,-0.004,0.000,0.000,0.000,0.000,0,2,0,2,7,255,960,300,0,0,-89.560,0.564,-31.103
EX0521-092111,4,C06,prep,737,737,0,425774.092,0.685,-0.678,0.192,0.187,0,0,0,0,0,0,0,0,0,0.000,0,0,0.104,0.012,0.060,-0.060,-0.060,0.015,0.994,0.011,0.000,-0.012,-0.004,0.000,0.000,0.000,0.000,0,2,0,2,7,255,960,300,0,0,-89.560,0.563,-31.103
EX0521-092111,4,C06,prep,737,737,0,425779.091,0.685,-0.678,0.192,0.187,0,0,0,0,0,0,0,0,0,0.000,0,0,0.085,0.004,-0.060,-0.060,0.000,0.014,0.995,0.011,-0.004,-0.002,-0.004,0.000,0.000,0.000,0.000,0,2,0,2,7,255,960,300,0,0,-89.560,0.563,-31.103
EX0521-092111,4,C06,prep,737,737,0,425784.092,0.685,-0.678,0.192,0.187,0,0,0,0,0,0,0,0,0,0.000,0,0,0.104,0.004,-0.060,-0.060,-0.060,0.014,0.994,0.012,-0.004,-0.002,-0.004,0.000,0.000,0.000,0.000,0,2,0,2,7,255,960,300,0,0,-89.561,0.563,-31.103
EX0521-092111,4,C06,prep,738,738,0,425789.091,0.685,-0.678,0.192,0.187,0,0,0,0,0,0,0,0,0,0.000,0,0,0.060,0.004,0.000,-0.060,0.000,0.015,0.994,0.010,-0.004,0.000,-0.004,0.000,0.000,0.000,0.000,0,2,0,2,7,255,960,300,0,0,-89.561,0.562,-31.103
EX0521-092111,4,C06,prep,738,738,0,425794.092,0.685,-0.678,0.192,0.187,0,0,0,0,0,0,0,0,0,0.000,0,0,0.060,0.007,0.000,-0.060,0.000,0.015,0.994,0.010,0.006,0.004,-0.008,0.000,0.000,0.000,0.000,0,2,0,2,7,255,960,300,0,0,-89.561,0.562,-31.103
EX0521-092111,4,C06,prep,753,753,0,425799.092,0.685,-0.678,0.192,0.187,0,0,0,0,0,0,0,0,0,0.000,0,0,0.060,0.007,0.000,-0.060,0.000,0.014,0.995,0.011,0.006,0.004,-0.008,0.000,0.000,0.000,0.000,0,2,0,2,7,255,960,300,0,0,-89.562,0.561,-31.103
EX0521-092111,4,C06,prep,753,753,0,425804.091,0.685,-0.678,0.192,0.187,0,0,0,0,0,0,0,0,0,0.000,0,0,0.104,0.004,0.060,-0.060,-0.060,0.014,0.994,0.012,-0.004,0.000,-0.008,0.000,0.000,0.000,0.000,0,2,0,2,7,255,960,300,0,0,-89.562,0.561,-31.103
EX0521-092111,4,C06,prep,767,767,0,425809.092,0.685,-0.678,0.192,0.187,0,0,0,0,0,0,0,0,0,0.000,0,0,0.085,0.006,0.000,-0.060,-0.060,0.015,0.994,0.011,-0.004,-0.004,-0.004,0.000,0.000,0.000,0.000,0,2,0,2,7,255,960,300,0,0,-89.563,0.560,-31.103
EX0521-092111,4,C06,prep,767,767,0,425814.091,0.685,-0.678,0.192,0.187,0,0,0,0,0,0,0,0,0,0.000,0,0,0.085,0.006,-0.060,-0.060,0.000,0.016,0.995,0.011,0.000,-0.006,-0.004,0.000,0.000,0.000,0.000,0,2,0,2,7,255,960,300,0,0,-89.563,0.561,-31.103
EX0521-092111,4,C06,prep,767,767,0,425819.092,0.685,-0.678,0.192,0.187,0,0,0,0,0,0,0,0,0,0.000,0,0,0.134,0.011,0.060,-0.120,0.000,0.016,0.993,0.011,0.008,-0.008,-0.004,0.000,0.000,0.000,0.000,0,2,0,2,7,255,960,300,0,0,-89.563,0.563,-31.103
EX0521-092111,4,C06,prep,767,767,0,425824.091,0.685,-0.678,0.192,0.187,0,0,0,0,0,0,0,0,0,0.000,0,0,0.120,0.011,0.000,-0.120,0.000,0.014,0.994,0.011,0.008,-0.008,-0.008,0.000,0.000,0.000,0.000,0,2,0,2,7,255,960,300,0,0,-89.564,0.562,-31.103
EX0521-092111,4,C06,prep,791,791,0,425829.092,0.685,-0.678,0.192,0.187,0,0,0,0,0,0,0,0,0,0.000,0,0,0.085,0.002,0.000,-0.060,-0.060,0.014,0.996,0.011,-0.002,0.000,-0.008,0.000,0.000,0.000,0.000,0,2,0,2,7,255,960,300,0,0,-89.564,0.562,-31.103
EX0521-092111,4,C06,prep,791,791,0,425834.092,0.685,-0.678,0.192,0.187,0,0,0,0,0,0,0,0,0,0.000,0,0,0.060,0.004,0.000,-0.060,0.000,0.014,0.994,0.010,-0.002,0.004,-0.004,0.000,0.000,0.000,0.000,0,2,0,2,7,255,960,300,0,0,-89.564,0.561,-31.103
EX0521-092111,4,C06,prep,816,816,0,425839.091,0.685,-0.678,0.192,0.187,0,0,0,0,0,0,0,0,0,0.000,0,0,0.000,0.004,0.000,0.000,0.000,0.014,0.994,0.012,-0.002,0.004,-0.004,0.000,0.000,0.000,0.000,0,2,0,2,7,255,960,300,0,0,-89.565,0.561,-31.103
EX0521-092111,4,C06,prep,816,816,0,425844.092,0.685,-0.678,0.192,0.187,0,0,0,0,0,0,0,0,0,0.000,0,0,0.085,0.003,-0.060,-0.060,0.000,0.014,0.994,0.011,-0.002,0.002,-0.004,0.000,0.000,0.000,0.000,0,2,0,2,7,255,960,300,0,0,-89.565,0.560,-31.103
EX0521-092111,4,C06,prep,818,818,0,425849.091,0.685,-0.678,0.192,0.187,0,0,0,0,0,0,0,0,0,0.000,0,0,0.104,0.004,0.060,-0.060,-0.060,0.015,0.994,0.011,-0.002,-0.004,-0.008,0.000,0.000,0.000,0.000,0,2,0,2,7,255,960,300,0,0,-89.565,0.560,-31.103
EX0521-092111,4,C06,prep,818,818,0,425854.092,0.685,-0.678,0.192,0.187,0,0,0,0,0,0,0,0,0,0.000,0,0,0.060,0.004,0.000,-0.060,0.000,0.014,0.994,0.012,-0.002,-0.004,-0.008,0.000,0.000,0.000,0.000,0,2,0,2,7,255,960,300,0,0,-89.566,0.559,-31.103
EX0521-092111,4,C06,prep,818,818,0,425859.095,0.685,-0.678,0.192,0.187,0,0,0,0,0,0,0,0,0,0.000,0,0,0.104,0.006,-0.060,-0.060,-0.060,0.015,0.995,0.012,-0.002,-0.006,-0.008,0.000,0.000,0.000,0.000,0,2,0,2,7,255,960,300,0,0,-89.566,0.559,-31.103
EX0521-092111,4,C06,prep,818,818,0,425864.091,0.685,-0.678,0.192,0.187,0,0,0,0,0,0,0,0,0,0.000,0,0,0.104,0.008,-0.060,-0.060,-0.060,0.014,0.994,0.011,-0.006,-0.006,-0.008,0.000,0.000,0.000,0.000,0,2,0,2,7,255,960,300,0,0,-89.567,0.559,-31.103
EX0521-092111,4,C06,prep,862,862,0,425869.092,0.685,-0.678,0.192,0.187,0,0,0,0,0,0,0,0,0,0.000,0,0,0.085,0.002,0.060,-0.060,0.000,0.015,0.994,0.011,-0.002,0.000,-0.008,0.000,0.000,0.000,0.000,0,2,0,2,7,255,960,300,0,0,-89.567,0.558,-31.103
EX0521-092111,4,C06,prep,862,862,0,425874.091,0.685,-0.678,0.192,0.187,0,0,0,0,0,0,0,0,0,0.000,0,0,0.104,0.000,-0.060,-0.060,-0.060,0.015,0.994,0.011,0.000,0.000,-0.008,0.000,0.000,0.000,0.000,0,2,0,2,7,255,960,300,0,0,-89.567,0.559,-31.103
EX0521-092111,4,C06,prep,862,862,0,425879.092,0.685,-0.678,0.192,0.187,0,0,0,0,0,0,0,0,0,0.000,0,0,0.085,0.002,-0.060,-0.060,0.000,0.014,0.995,0.011,0.000,-0.002,-0.008,0.000,0.000,0.000,0.000,0,2,0,2,7,255,960,300,0,0,-89.568,0.559,-31.103
EX0521-092111,4,C06,prep,862,862,0,425884.091,0.685,-0.678,0.192,0.187,0,0,0,0,0,0,0,0,0,0.000,0,0,0.063,0.004,0.060,0.020,0.000,0.014,0.994,0.011,-0.004,-0.002,-0.004,0.000,0.000,0.000,0.000,0,2,0,2,7,255,960,300,0,0,-89.568,0.558,-31.103
EX0521-092111,4,C06,prep,862,862,0,425889.093,0.685,-0.678,0.192,0.187,0,0,0,0,0,0,0,0,0,0.000,0,0,0.085,0.004,0.060,-0.060,0.000,0.014,0.994,0.011,-0.004,-0.002,-0.004,0.000,0.000,0.000,0.000,0,2,0,2,7,255,960,300,0,0,-89.568,0.558,-31.103
EX0521-092111,4,C06,prep,862,862,0,425894.092,0.685,-0.678,0.192,0.187,0,0,0,0,0,0,0,0,0,0.000,0,0,0.134,0.004,-0.060,-0.120,0.000,0.015,0.993,0.011,-0.004,-0.002,-0.008,0.000,0.000,0.000,0.000,0,2,0,2,7,255,960,300,0,0,-89.569,0.559,-31.103
EX0521-092111,4,C06,prep,862,862,0,425899.092,0.685,-0.678,0.192,0.187,0,0,0,0,0,0,0,0,0,0.000,0,0,0.085,0.007,0.060,-0.060,0.000,0.014,0.993,0.012,-0.004,-0.006,-0.012,0.000,0.000,0.000,0.000,0,2,0,2,7,255,960,300,0,0,-89.569,0.558,-31.103
EX0521-092111,4,C06,prep,862,862,0,425904.092,0.685,-0.678,0.192,0.187,0,0,0,0,0,0,0,0,0,0.000,0,0,0.060,0.008,0.000,-0.060,0.000,0.013,0.995,0.010,-0.006,-0.006,-0.012,0.000,0.000,0.000,0.000,0,2,0,2,7,255,960,300,0,0,-89.570,0.558,-31.103
EX0521-092111,4,C06,prep,864,864,0,425909.091,0.685,-0.678,0.192,0.187,0,0,0,0,0,0,0,0,0,0.000,0,0,0.085,0.007,-0.060,-0.060,0.000,0.015,0.994,0.010,-0.006,0.004,-0.008,0.000,0.000,0.000,0.000,0,2,0,2,7,255,960,300,0,0,-89.570,0.559,-31.103
EX0521-092111,4,C06,prep,864,864,0,425914.092,0.685,-0.678,0.192,0.187,0,0,0,0,0,0,0,0,0,0.000,0,0,0.060,0.004,0.000,-0.060,0.000,0.015,0.994,0.011,0.002,0.004,-0.002,0.000,0.000,0.000,0.000,0,2,0,2,7,255,960,300,0,0,-89.570,0.558,-31.103
EX0521-092111,4,C06,prep,865,865,0,425919.092,0.685,-0.678,0.192,0.187,0,0,0,0,0,0,0,0,0,0.000,0,0,0.000,0.006,0.000,0.000,0.000,0.015,0.995,0.011,0.006,0.000,-0.002,0.000,0.000,0.000,0.000,0,2,0,2,7,255,960,300,0,0,-89.571,0.559,-31.103
EX0521-092111,4,C06,prep,865,865,0,425924.091,0.685,-0.678,0.192,0.187,0,0,0,0,0,0,0,0,0,0.000,0,0,0.120,0.002,0.000,-0.120,0.000,0.015,0.995,0.011,0.002,0.000,0.002,0.000,0.000,0.000,0.000,0,2,0,2,7,255,960,300,0,0,-89.571,0.559,-31.103
EX0521-092111,4,C06,prep,927,927,0,425929.092,0.685,-0.678,0.192,0.187,0,0,0,0,0,0,0,0,0,0.000,0,0,0.104,0.002,0.060,-0.060,-0.060,0.014,0.994,0.011,0.002,0.000,0.002,0.000,0.000,0.000,0.000,0,2,0,2,7,255,960,300,0,0,-89.571,0.558,-31.103
EX0521-092111,4,C06,prep,927,927,0,425934.091,0.685,-0.678,0.192,0.187,0,0,0,0,0,0,0,0,0,0.000,0,0,0.085,0.000,0.000,-0.060,-0.060,0.015,0.994,0.011,0.000,0.000,-0.002,0.000,0.000,0.000,0.000,0,2,0,2,7,255,960,300,0,0,-89.572,0.558,-31.103
EX0521-092111,4,C06,prep,927,927,0,425939.092,0.685,-0.678,0.192,0.187,0,0,0,0,0,0,0,0,0,0.000,0,0,0.060,0.003,0.060,0.000,0.000,0.014,0.994,0.011,-0.002,-0.002,-0.002,0.000,0.000,0.000,0.000,0,2,0,2,7,255,960,300,0,0,-89.572,0.558,-31.103
EX0521-092111,4,C06,prep,927,927,0,425944.091,0.685,-0.678,0.192,0.187,0,0,0,0,0,0,0,0,0,0.000,0,0,0.085,0.006,-0.060,-0.060,0.000,0.015,0.994,0.012,-0.004,-0.004,-0.002,0.000,0.000,0.000,0.000,0,2,0,2,7,255,960,300,0,0,-89.572,0.558,-31.103
EX0521-092111,4,C06,prep,928,928,0,425949.091,0.685,-0.678,0.192,0.187,0,0,0,0,0,0,0,0,0,0.000,0,0,0.085,0.009,0.000,-0.060,-0.060,0.015,0.994,0.012,-0.004,-0.008,-0.002,0.000,0.000,0.000,0.000,0,2,0,2,7,255,960,300,0,0,-89.573,0.558,-31.103
EX0521-092111,4,C06,prep,928,928,0,425954.092,0.685,-0.678,0.192,0.187,0,0,0,0,0,0,0,0,0,0.000,0,0,0.060,0.008,0.060,0.000,0.000,0.014,0.993,0.011,-0.002,-0.008,-0.008,0.000,0.000,0.000,0.000,0,2,0,2,7,255,960,300,0,0,-89.573,0.558,-31.103
EX0521-092111,4,C06,prep,930,930,0,425959.095,0.685,-0.678,0.192,0.187,0,0,0,0,0,0,0,0,0,0.000,0,0,0.085,0.008,-0.060,-0.060,0.000,0.015,0.994,0.012,-0.002,-0.008,-0.008,0.000,0.000,0.000,0.000,0,2,0,2,7,255,960,300,0,0,-89.574,0.559,-31.103
EX0521-092111,4,C06,prep,930,930,0,425964.092,0.685,-0.678,0.192,0.187,0,0,0,0,0,0,0,0,0,0.000,0,0,0.085,0.010,0.000,-0.060,-0.060,0.016,0.994,0.011,0.002,-0.010,-0.002,0.000,0.000,0.000,0.000,0,2,0,2,7,255,960,300,0,0,-89.574,0.560,-31.103
EX0521-092111,4,C06,prep,931,931,0,425969.091,0.685,-0.678,0.192,0.187,0,0,0,0,0,0,0,0,0,0.000,0,0,0.060,0.010,0.000,-0.060,0.000,0.015,0.995,0.012,0.002,-0.010,-0.002,0.000,0.000,0.000,0.000,0,2,0,2,7,255,960,300,0,0,-89.574,0.559,-31.103
EX0521-092111,4,C06,prep,931,931,0,425974.092,0.685,-0.678,0.192,0.187,0,0,0,0,0,0,0,0,0,0.000,0,0,0.060,0.008,0.000,-0.060,0.000,0.015,0.994,0.011,0.002,-0.008,-0.002,0.000,0.000,0.000,0.000,0,2,0,2,7,255,960,300,0,0,-89.575,0.559,-31.103
EX0521-092111,4,C06,prep,943,943,0,425979.092,0.685,-0.678,0.192,0.187,0,0,0,0,0,0,0,0,0,0.000,0,0,0.060,0.006,0.000,0.000,-0.060,0.016,0.993,0.011,0.002,-0.006,-0.002,0.000,0.000,0.000,0.000,0,2,0,2,7,255,960,300,0,0,-89.575,0.560,-31.103
EX0521-092111,4,C06,prep,943,943,0,425984.091,0.685,-0.678,0.192,0.187,0,0,0,0,0,0,0,0,0,0.000,0,0,0.085,0.002,0.060,-0.060,0.000,0.014,0.994,0.011,0.002,0.000,-0.002,0.000,0.000,0.000,0.000,0,2,0,2,7,255,960,300,0,0,-89.575,0.560,-31.103
EX0521-092111,4,C06,prep,943,943,0,425989.092,0.685,-0.678,0.192,0.187,0,0,0,0,0,0,0,0,0,0.000,0,0,0.060,0.002,0.000,-0.060,0.000,0.014,0.995,0.010,0.000,0.002,-0.002,0.000,0.000,0.000,0.000,0,2,0,2,7,255,960,300,0,0,-89.576,0.559,-31.103
EX0521-092111,4,C06,prep,943,943,0,425994.091,0.685,-0.678,0.192,0.187,0,0,0,0,0,0,0,0,0,0.000,0,0,0.085,0.002,0.060,-0.060,0.000,0.015,0.994,0.011,0.000,0.002,-0.002,0.000,0.000,0.000,0.000,0,2,0,2,7,255,960,300,0,0,-89.576,0.560,-31.103
EX0521-092111,4,C06,prep,959,959,0,425999.092,0.685,-0.678,0.192,0.187,0,0,0,0,0,0,0,0,0,0.000,0,0,0.000,0.009,0.000,0.000,0.000,0.016,0.994,0.011,0.004,-0.008,-0.002,0.000,0.000,0.000,0.000,0,2,0,2,7,255,960,300,0,0,-89.577,0.562,-31.103
EX0521-092111,4,C06,prep,959,959,0,426004.091,0.685,-0.678,0.192,0.187,0,0,0,0,0,0,0,0,0,0.000,0,0,0.085,0.009,0.000,-0.060,-0.060,0.014,0.993,0.011,0.004,-0.008,-0.006,0.000,0.000,0.000,0.000,0,2,0,2,7,255,960,300,0,0,-89.577,0.561,-31.103
EX0521-092111,4,C06,prep,959,959,0,426009.091,0.685,-0.678,0.192,0.187,0,0,0,0,0,0,0,0,0,0.000,0,0,0.120,0.009,0.000,-0.120,0.000,0.015,0.994,0.012,-0.004,-0.008,-0.006,0.000,0.000,0.000,0.000,0,2,0,2,7,255,960,300,0,0,-89.577,0.561,-31.103
EX0521-092111,4,C06,prep,959,959,0,426014.092,0.685,-0.678,0.192,0.187,0,0,0,0,0,0,0,0,0,0.000,0,0,0.060,0.009,0.000,-0.060,0.000,0.016,0.994,0.011,-0.004,-0.008,-0.002,0.000,0.000,0.000,0.000,0,2,0,2,7,255,960,300,0,0,-89.578,0.562,-31.103
EX0521-092111,4,C06,prep,976,976,0,426019.091,0.685,-0.678,0.192,0.187,0,0,0,0,0,0,0,0,0,0.000,0,0,0.060,0.013,0.000,-0.060,0.000,0.015,0.993,0.010,0.010,-0.008,-0.002,0.000,0.000,0.000,0.000,0,2,0,2,7,255,960,300,0,0,-89.578,0.563,-31.103
EX0521-092111,4,C06,prep,976,976,0,426024.092,0.685,-0.678,0.192,0.187,0,0,0,0,0,0,0,0,0,0.000,0,0,0.060,0.013,0.000,-0.060,0.000,0.015,0.994,0.012,0.010,-0.008,-0.006,0.000,0.000,0.000,0.000,0,2,0,2,7,255,960,300,0,0,-89.578,0.563,-31.103
EX0521-092111,4,C06,prep,995,995,0,426029.091,0.685,-0.678,0.192,0.187,0,0,0,0,0,0,0,0,0,0.000,0,0,0.147,0.003,-0.060,-0.120,-0.060,0.014,0.995,0.011,-0.002,0.002,-0.006,0.000,0.000,0.000,0.000,0,2,0,2,7,255,960,300,0,0,-89.579,0.562,-31.103
EX0521-092111,4,C06,prep,995,995,0,426034.092,0.685,-0.678,0.192,0.187,0,0,0,0,0,0,0,0,0,0.000,0,0,0.085,0.003,0.000,-0.060,-0.060,0.014,0.994,0.011,-0.002,0.002,-0.002,0.000,0.000,0.000,0.000,0,2,0,2,7,255,960,300,0,0,-89.579,0.562,-31.103
EX0521-092111,4,C06,prep,995,995,0,426039.092,0.685,-0.678,0.192,0.187,0,0,0,0,0,0,0,0,0,0.000,0,0,0.134,0.003,0.000,-0.120,-0.060,0.014,0.994,0.011,-0.002,0.002,-0.002,0.000,0.000,0.000,0.000,0,2,0,2,7,255,960,300,0,0,-89.579,0.561,-31.103
EX0521-092111,4,C06,prep,995,995,0,426044.091,0.685,-0.678,0.192,0.187,0,0,0,0,0,0,0,0,0,0.000,0,0,0.085,0.008,0.060,-0.060,0.000,0.014,0.993,0.012,-0.008,0.000,-0.006,0.000,0.000,0.000,0.000,0,2,0,2,7,255,960,300,0,0,-89.580,0.561,-31.103
EX0521-092111,4,C06,prep,1043,1043,0,426049.092,0.685,-0.678,0.192,0.187,0,0,0,0,0,0,0,0,0,0.000,0,0,0.120,0.010,0.000,-0.120,0.000,0.016,0.993,0.012,-0.008,-0.006,-0.010,0.000,0.000,0.000,0.000,0,2,0,2,7,255,960,300,0,0,-89.580,0.562,-31.103
EX0521-092111,4,C06,prep,1043,1043,0,426054.091,0.685,-0.678,0.192,0.187,0,0,0,0,0,0,0,0,0,0.000,0,0,0.085,0.010,-0.060,-0.060,0.000,0.014,0.995,0.012,-0.008,-0.006,-0.010,0.000,0.000,0.000,0.000,0,2,0,2,7,255,960,300,0,0,-89.581,0.562,-31.103
EX0521-092111,4,C06,prep,1046,1046,0,426059.095,0.685,-0.678,0.192,0.187,0,0,0,0,0,0,0,0,0,0.000,0,0,0.060,0.006,0.000,-0.060,0.000,0.015,0.995,0.011,0.004,-0.004,0.004,0.000,0.000,0.000,0.000,0,2,0,2,7,255,960,300,0,0,-89.581,0.563,-31.103
EX0521-092111,4,C06,prep,1046,1046,0,426064.092,0.685,-0.678,0.192,0.187,0,0,0,0,0,0,0,0,0,0.000,0,0,0.060,0.004,0.000,-0.060,0.000,0.015,0.996,0.012,0.000,-0.004,0.004,0.000,0.000,0.000,0.000,0,2,0,2,7,255,960,300,0,0,-89.581,0.564,-31.103
EX0521-092111,4,C06,prep,1046,1046,0,426069.095,0.685,-0.678,0.192,0.187,0,0,0,0,0,0,0,0,0,0.000,0,0,0.085,0.003,-0.060,-0.060,0.000,0.015,0.995,0.011,0.002,-0.002,0.004,0.000,0.000,0.000,0.000,0,2,0,2,7,255,960,300,0,0,-89.582,0.563,-31.103
EX0521-092111,4,C06,prep,1046,1046,0,426074.092,0.685,-0.678,0.192,0.187,0,0,0,0,0,0,0,0,0,0.000,0,0,0.060,0.008,0.000,-0.060,0.000,0.015,0.995,0.012,0.000,-0.008,0.004,0.000,0.000,0.000,0.000,0,2,0,2,7,255,960,300,0,0,-89.582,0.563,-31.103
EX0521-092111,4,C06,prep,1062,1062,0,426079.091,0.685,-0.678,0.192,0.187,0,0,0,0,0,0,0,0,0,0.000,0,0,0.000,0.008,0.000,0.000,0.000,0.016,0.995,0.011,0.002,-0.008,0.004,0.000,0.000,0.000,0.000,0,2,0,2,7,255,960,300,0,0,-89.582,0.564,-31.103
EX0521-092111,4,C06,prep,1062,1062,0,426084.092,0.685,-0.678,0.192,0.187,0,0,0,0,0,0,0,0,0,0.000,0,0,0.120,0.008,0.000,-0.120,0.000,0.015,0.994,0.011,0.000,-0.008,0.004,0.000,0.000,0.000,0.000,0,2,0,2,7,255,960,300,0,0,-89.583,0.563,-31.103
EX0521-092111,4,C06,prep,1062,1062,0,426089.091,0.685,-0.678,0.192,0.187,0,0,0,0,0,0,0,0,0,0.000,0,0,0.060,0.004,0.060,0.000,0.000,0.015,0.995,0.010,0.004,0.000,0.004,0.000,0.000,0.000,0.000,0,2,0,2,7,255,960,300,0,0,-89.583,0.563,-31.103
EX0521-092111,4,C06,prep,1062,1062,0,426094.092,0.685,-0.678,0.192,0.187,0,0,0,0,0,0,0,0,0,0.000,0,0,0.085,0.000,-0.060,0.000,-0.060,0.015,0.993,0.011,0.000,0.000,-0.006,0.000,0.000,0.000,0.000,0,2,0,2,7,255,960,300,0,0,-89.584,0.563,-31.103
EX0521-092111,4,C06,prep,1062,1062,0,426099.092,0.685,-0.678,0.192,0.187,0,0,0,0,0,0,0,0,0,0.000,0,0,0.085,0.004,0.000,-0.060,-0.060,0.015,0.995,0.011,-0.002,-0.004,0.004,0.000,0.000,0.000,0.000,0,2,0,2,7,255,960,300,0,0,-89.584,0.562,-31.103
EX0521-092111,4,C06,prep,1062,1062,0,426104.091,0.685,-0.678,0.192,0.187,0,0,0,0,0,0,0,0,0,0.000,0,0,0.085,0.004,-0.060,-0.060,0.000,0.015,0.995,0.011,-0.002,-0.004,0.004,0.000,0.000,0.000,0.000,0,2,0,2,7,255,960,300,0,0,-89.584,0.562,-31.103
EX0521-092111,4,C06,prep,1071,1071,0,426109.092,0.685,-0.678,0.192,0.187,0,0,0,0,0,0,0,0,0,0.000,0,0,0.060,0.004,0.000,-0.060,0.000,0.014,0.994,0.011,-0.002,-0.004,0.004,0.000,0.000,0.000,0.000,0,2,0,2,7,255,960,300,0,0,-89.585,0.561,-31.103
EX0521-092111,4,C06,prep,1071,1071,0,426114.091,0.685,-0.678,0.192,0.187,0,0,0,0,0,0,0,0,0,0.000,0,0,0.085,0.009,0.000,-0.060,-0.060,0.014,0.996,0.012,-0.008,-0.004,0.004,0.000,0.000,0.000,0.000,0,2,0,2,7,255,960,300,0,0,-89.581,0.561,-31.103
EX0521-092111,4,C06,prep,1071,1071,0,426119.092,0.685,-0.678,0.192,0.187,0,0,0,0,0,0,0,0,0,0.000,0,0,0.060,0.008,0.000,-0.060,0.000,0.015,0.994,0.011,-0.008,0.000,-0.002,0.000,0.000,0.000,0.000,0,2,0,2,7,255,960,300,0,0,-89.581,0.560,-31.103
EX0521-092111,4,C06,prep,1071,1071,0,426124.092,0.685,-0.678,0.192,0.187,0,0,0,0,0,0,0,0,0,0.000,0,0,0.060,0.009,0.000,-0.060,0.000,0.015,0.995,0.012,-0.004,-0.008,0.004,0.000,0.000,0.000,0.000,0,2,0,2,7,255,960,300,0,0,-89.581,0.560,-31.103
EX0521-092111,4,C06,prep,1087,1087,0,426129.091,0.685,-0.678,0.192,0.187,0,0,0,0,0,0,0,0,0,0.000,0,0,0.060,0.009,0.000,-0.060,0.000,0.015,0.994,0.012,-0.004,-0.008,-0.006,0.000,0.000,0.000,0.000,0,2,0,2,7,255,960,300,0,0,-89.582,0.559,-31.103
EX0521-092111,4,C06,prep,1087,1087,0,426134.092,0.685,-0.678,0.192,0.187,0,0,0,0,0,0,0,0,0,0.000,0,0,0.104,0.009,0.060,-0.060,-0.060,0.013,0.996,0.011,-0.004,-0.008,0.004,0.000,0.000,0.000,0.000,0,2,0,2,7,255,960,300,0,0,-89.582,0.559,-31.103
EX0521-092111,4,C06,prep,1136,1136,0,426139.091,0.685,-0.678,0.192,0.187,0,0,0,0,0,0,0,0,0,0.000,0,0,0.085,0.006,0.000,-0.060,-0.060,0.015,0.995,0.010,-0.004,0.004,0.002,0.000,0.000,0.000,0.000,0,2,0,2,7,255,960,300,0,0,-89.582,0.558,-31.103
EX0521-092111,4,C06,prep,1136,1136,0,426144.092,0.685,-0.678,0.192,0.187,0,0,0,0,0,0,0,0,0,0.000,0,0,0.060,0.004,0.000,-0.060,0.000,0.015,0.994,0.011,0.002,0.004,0.002,0.000,0.000,0.000,0.000,0,2,0,2,7,255,960,300,0,0,-89.583,0.558,-31.103
EX0521-092111,4,C06,prep,1137,1137,0,426149.091,0.685,-0.678,0.192,0.187,0,0,0,0,0,0,0,0,0,0.000,0,0,0.060,0.003,0.000,0.000,-0.060,0.014,0.995,0.011,0.002,0.002,0.002,0.000,0.000,0.000,0.000,0,2,0,2,7,255,960,300,0,0,-89.583,0.558,-31.103
EX0521-092111,4,C06,prep,1137,1137,0,426154.092,0.685,-0.678,0.192,0.187,0,0,0,0,0,0,0,0,0,0.000,0,0,0.104,0.002,-0.060,-0.060,-0.060,0.014,0.995,0.011,-0.002,0.000,0.002,0.000,0.000,0.000,0.000,0,2,0,2,7,255,960,300,0,0,-89.583,0.557,-31.103
EX0521-092111,4,C06,prep,1137,1137,0,426159.095,0.685,-0.678,0.192,0.187,0,0,0,0,0,0,0,0,0,0.000,0,0,0.060,0.002,-0.060,0.000,0.000,0.016,0.995,0.012,-0.002,0.000,0.002,0.000,0.000,0.000,0.000,0,2,0,2,7,255,960,300,0,0,-89.584,0.558,-31.103
EX0521-092111,4,C06,prep,1137,1137,0,426164.091,0.685,-0.678,0.192,0.187,0,0,0,0,0,0,0,0,0,0.000,0,0,0.060,0.012,0.000,-0.060,0.000,0.015,0.995,0.012,0.000,-0.012,0.004,0.000,0.000,0.000,0.000,0,2,0,2,7,255,960,300,0,0,-89.584,0.559,-31.103
EX0521-092111,4,C06,prep,1137,1137,0,426169.092,0.685,-0.678,0.192,0.187,0,0,0,0,0,0,0,0,0,0.000,0,0,0.060,0.012,0.000,-0.060,0.000,0.015,0.994,0.011,0.002,-0.012,0.004,0.000,0.000,0.000,0.000,0,2,0,2,7,255,960,300,0,0,-89.585,0.559,-31.103
EX0521-092111,4,C06,prep,1137,1137,0,426174.091,0.685,-0.678,0.192,0.187,0,0,0,0,0,0,0,0,0,0.000,0,0,0.000,0.000,0.000,0.000,0.000,0.014,0.995,0.011,0.000,0.000,0.002,0.000,0.000,0.000,0.000,0,2,0,2,7,255,960,300,0,0,-89.585,0.558,-31.103
EX0521-092111,4,C06,prep,1138,1138,0,426179.092,0.685,-0.678,0.192,0.187,0,0,0,0,0,0,0,0,0,0.000,0,0,0.000,0.008,0.000,0.000,0.000,0.014,0.993,0.012,-0.008,0.000,-0.002,0.000,0.000,0.000,0.000,0,2,0,2,7,255,960,300,0,0,-89.585,0.558,-31.103
EX0521-092111,4,C06,prep,1138,1138,0,426184.092,0.685,-0.678,0.192,0.187,0,0,0,0,0,0,0,0,0,0.000,0,0,0.085,0.008,0.000,-0.060,-0.060,0.014,0.994,0.011,-0.008,0.000,-0.002,0.000,0.000,0.000,0.000,0,2,0,2,7,255,960,300,0,0,-89.586,0.558,-31.103
EX0521-092111,4,C06,prep,1138,1138,0,426189.091,0.685,-0.678,0.192,0.187,0,0,0,0,0,0,0,0,0,0.000,0,0,0.120,0.006,0.000,-0.120,0.000,0.014,0.994,0.011,-0.006,0.002,-0.002,0.000,0.000,0.000,0.000,0,2,0,2,7,255,960,300,0,0,-89.586,0.557,-31.103
EX0521-092111,4,C06,prep,1138,1138,0,426194.092,0.685,-0.678,0.192,0.187,0,0,0,0,0,0,0,0,0,0.000,0,0,0.134,0.006,0.060,-0.120,0.000,0.014,0.994,0.012,-0.006,0.002,-0.002,0.000,0.000,0.000,0.000,0,2,0,2,7,255,960,300,0,0,-89.582,0.557,-31.103
EX0521-092111,4,C06,prep,1163,1163,0,426199.092,0.685,-0.678,0.192,0.187,0,0,0,0,0,0,0,0,0,0.000,0,0,0.085,0.006,0.000,-0.060,-0.060,0.014,0.995,0.011,-0.006,0.002,-0.002,0.000,0.000,0.000,0.000,0,2,0,2,7,255,960,300,0,0,-89.582,0.556,-31.103
EX0521-092111,4,C06,prep,1163,1163,0,426204.092,0.685,-0.678,0.192,0.187,0,0,0,0,0,0,0,0,0,0.000,0,0,0.085,0.003,-0.060,-0.060,0.000,0.014,0.995,0.010,-0.002,0.002,0.002,0.000,0.000,0.000,0.000,0,2,0,2,7,255,960,300,0,0,-89.583,0.556,-31.103
EX0521-092111,4,C06,prep,1164,1164,0,426209.092,0.685,-0.678,0.192,0.187,0,0,0,0,0,0,0,0,0,0.000,0,0,0.060,0.002,0.000,0.000,-0.060,0.015,0.995,0.011,0.000,0.002,0.002,0.000,0.000,0.000,0.000,0,2,0,2,7,255,960,300,0,0,-89.583,0.557,-31.103
EX0521-092111,4,C06,prep,1164,1164,0,426214.091,0.685,-0.678,0.192,0.187,0,0,0,0,0,0,0,0,0,0.000,0,0,0.085,0.004,-0.060,-0.060,0.000,0.015,0.993,0.012,0.002,-0.004,0.002,0.000,0.000,0.000,0.000,0,2,0,2,7,255,960,300,0,0,-89.583,0.558,-31.103
EX0521-092111,4,C06,prep,1165,1165,0,426219.092,0.685,-0.678,0.192,0.187,0,0,0,0,0,0,0,0,0,0.000,0,0,0.060,0.006,0.000,-0.060,0.000,0.015,0.995,0.011,0.002,-0.006,0.002,0.000,0.000,0.000,0.000,0,2,0,2,7,255,960,300,0,0,-89.584,0.559,-31.103
EX0521-092111,4,C06,prep,1165,1165,0,426224.091,0.685,-0.678,0.192,0.187,0,0,0,0,0,0,0,0,0,0.000,0,0,0.085,0.006,-0.060,-0.060,0.000,0.014,0.993,0.011,0.002,-0.006,-0.012,0.000,0.000,0.000,0.000,0,2,0,2,7,255,960,300,0,0,-89.584,0.558,-31.103
EX0521-092111,4,C06,prep,1199,1199,0,426229.092,0.685,-0.678,0.192,0.187,0,0,0,0,0,0,0,0,0,0.000,0,0,0.104,0.007,-0.060,-0.060,-0.060,0.015,0.995,0.011,0.004,-0.006,0.004,0.000,0.000,0.000,0.000,0,2,0,2,7,255,960,300,0,0,-89.584,0.560,-31.103
EX0521-092111,4,C06,prep,1199,1199,0,426234.091,0.685,-0.678,0.192,0.187,0,0,0,0,0,0,0,0,0,0.000,0,0,0.060,0.004,0.000,-0.060,0.000,0.015,0.995,0.011,0.000,-0.004,0.004,0.000,0.000,0.000,0.000,0,2,0,2,7,255,960,300,0,0,-89.585,0.559,-31.103
EX0521-092111,4,C06,prep,1199,1199,0,426239.092,0.685,-0.678,0.192,0.187,0,0,0,0,0,0,0,0,0,0.000,0,0,0.060,0.004,0.000,-0.060,0.000,0.014,0.995,0.011,0.000,-0.004,0.004,0.000,0.000,0.000,0.000,0,2,0,2,7,255,960,300,0,0,-89.585,0.559,-31.103
EX0521-092111,4,C06,prep,1199,1199,0,426244.092,0.685,-0.678,0.192,0.187,0,0,0,0,0,0,0,0,0,0.000,0,0,0.060,0.004,0.000,-0.060,0.000,0.014,0.995,0.012,-0.002,-0.004,0.002,0.000,0.000,0.000,0.000,0,2,0,2,7,255,960,300,0,0,-89.586,0.558,-31.103
EX0521-092111,4,C06,prep,1232,1232,0,426249.091,0.685,-0.678,0.192,0.187,0,0,0,0,0,0,0,0,0,0.000,0,0,0.060,0.004,0.000,0.000,-0.060,0.015,0.996,0.011,-0.002,-0.004,0.002,0.000,0.000,0.000,0.000,0,2,0,2,7,255,960,300,0,0,-89.586,0.559,-31.103
EX0521-092111,4,C06,prep,1232,1232,0,426254.092,0.685,-0.678,0.192,0.187,0,0,0,0,0,0,0,0,0,0.000,0,0,0.085,0.004,0.000,-0.060,-0.060,0.015,0.994,0.011,0.002,-0.004,0.002,0.000,0.000,0.000,0.000,0,2,0,2,7,255,960,300,0,0,-89.586,0.559,-31.103
EX0521-092111,4,C06,prep,1232,1232,0,426259.094,0.685,-0.678,0.192,0.187,0,0,0,0,0,0,0,0,0,0.000,0,0,0.063,0.006,0.000,0.020,-0.060,0.014,0.994,0.012,0.002,-0.006,-0.002,0.000,0.000,0.000,0.000,0,2,0,2,7,255,960,300,0,0,-89.587,0.558,-31.103
EX0521-092111,4,C06,prep,1232,1232,0,426264.092,0.685,-0.678,0.192,0.187,0,0,0,0,0,0,0,0,0,0.000,0,0,0.085,0.003,-0.060,-0.060,0.000,0.015,0.994,0.011,0.002,-0.002,-0.002,0.000,0.000,0.000,0.000,0,2,0,2,7,255,960,300,0,0,-89.587,0.559,-31.103
EX0521-092111,4,C06,prep,1232,1232,0,426269.092,0.685,-0.678,0.192,0.187,0,0,0,0,0,0,0,0,0,0.000,0,0,0.060,0.008,0.000,-0.060,0.000,0.016,0.994,0.011,0.006,-0.006,-0.002,0.000,0.000,0.000,0.000,0,2,0,2,7,255,960,300,0,0,-89.587,0.561,-31.103
EX0521-092111,4,C06,prep,1232,1232,0,426274.091,0.685,-0.678,0.192,0.187,0,0,0,0,0,0,0,0,0,0.000,0,0,0.020,0.010,0.000,0.020,0.000,0.015,0.995,0.012,0.006,-0.008,-0.002,0.000,0.000,0.000,0.000,0,2,0,2,7,255,960,300,0,0,-89.588,0.562,-31.103
EX0521-092111,4,C06,prep,1232,1232,0,426279.092,0.685,-0.678,0.192,0.187,0,0,0,0,0,0,0,0,0,0.000,0,0,0.063,0.010,-0.060,0.020,0.000,0.015,0.994,0.012,0.000,-0.010,-0.002,0.000,0.000,0.000,0.000,0,2,0,2,7,255,960,300,0,0,-89.584,0.563,-31.103
EX0521-092111,4,C06,prep,1232,1232,0,426284.091,0.685,-0.678,0.192,0.187,0,0,0,0,0,0,0,0,0,0.000,0,0,0.060,0.010,0.000,-0.060,0.000,0.015,0.994,0.011,0.000,-0.010,-0.002,0.000,0.000,0.000,0.000,0,2,0,2,7,255,960,300,0,0,-89.584,0.564,-31.103
EX0521-092111,4,C06,prep,1263,1263,0,426289.092,0.685,-0.678,0.192,0.187,0,0,0,0,0,0,0,0,0,0.000,0,0,0.085,0.006,-0.060,-0.060,0.000,0.013,0.995,0.010,-0.002,-0.006,-0.002,0.000,0.000,0.000,0.000,0,2,0,2,7,255,960,300,0,0,-89.584,0.564,-31.103
EX0521-092111,4,C06,prep,1263,1263,0,426294.091,0.685,-0.678,0.192,0.187,0,0,0,0,0,0,0,0,0,0.000,0,0,0.060,0.004,0.000,-0.060,0.000,0.014,0.994,0.011,-0.002,0.004,-0.002,0.000,0.000,0.000,0.000,0,2,0,2,7,255,960,300,0,0,-89.585,0.563,-31.103
EX0521-092111,4,C06,prep,1265,1265,0,426299.092,0.685,-0.678,0.192,0.187,0,0,0,0,0,0,0,0,0,0.000,0,0,0.085,0.004,0.000,-0.060,-0.060,0.016,0.995,0.012,-0.002,0.004,0.004,0.000,0.000,0.000,0.000,0,2,0,2,7,255,960,300,0,0,-89.585,0.564,-31.103
EX0521-092111,4,C06,prep,1265,1265,0,426304.092,0.685,-0.678,0.192,0.187,0,0,0,0,0,0,0,0,0,0.000,0,0,0.085,0.004,-0.060,-0.060,0.000,0.014,0.994,0.011,-0.002,0.004,-0.002,0.000,0.000,0.000,0.000,0,2,0,2,7,255,960,300,0,0,-89.585,0.564,-31.103
EX0521-092111,4,C06,prep,1266,1266,0,426309.091,0.685,-0.678,0.192,0.187,0,0,0,0,0,0,0,0,0,0.000,0,0,0.060,0.010,-0.060,0.000,0.000,0.015,0.994,0.012,0.000,-0.010,-0.002,0.000,0.000,0.000,0.000,0,2,0,2,7,255,960,300,0,0,-89.586,0.565,-31.103
EX0521-092111,4,C06,prep,1266,1266,0,426314.092,0.685,-0.678,0.192,0.187,0,0,0,0,0,0,0,0,0,0.000,0,0,0.085,0.006,0.000,-0.060,-0.060,0.014,0.994,0.012,-0.006,-0.002,-0.002,0.000,0.000,0.000,0.000,0,2,0,2,7,255,960,300,0,0,-89.586,0.564,-31.103
EX0521-092111,4,C06,prep,1292,1292,0,426319.091,0.685,-0.678,0.192,0.187,0,0,0,0,0,0,0,0,0,0.000,0,0,0.060,0.002,0.000,-0.060,0.000,0.015,0.995,0.010,0.000,-0.002,-0.002,0.000,0.000,0.000,0.000,0,2,0,2,7,255,960,300,0,0,-89.587,0.564,-31.103
EX0521-092111,4,C06,prep,1292,1292,0,426324.092,0.685,-0.678,0.192,0.187,0,0,0,0,0,0,0,0,0,0.000,0,0,0.060,0.007,0.000,-0.060,0.000,0.014,0.995,0.011,-0.006,0.004,0.008,0.000,0.000,0.000,0.000,0,2,0,2,7,255,960,300,0,0,-89.587,0.564,-31.103
EX0521-092111,4,C06,prep,1292,1292,0,426329.092,0.685,-0.678,0.192,0.187,0,0,0,0,0,0,0,0,0,0.000,0,0,0.060,0.007,0.000,-0.060,0.000,0.014,0.994,0.012,-0.006,0.004,0.008,0.000,0.000,0.000,0.000,0,2,0,2,7,255,960,300,0,0,-89.587,0.563,-31.103
EX0521-092111,4,C06,prep,1292,1292,0,426334.091,0.685,-0.678,0.192,0.187,0,0,0,0,0,0,0,0,0,0.000,0,0,0.060,0.007,0.000,-0.060,0.000,0.016,0.993,0.011,-0.006,-0.004,-0.002,0.000,0.000,0.000,0.000,0,2,0,2,7,255,960,300,0,0,-89.588,0.564,-31.103
EX0521-092111,4,C06,prep,1295,1295,0,426339.092,0.685,-0.678,0.192,0.187,0,0,0,0,0,0,0,0,0,0.000,0,0,0.134,0.007,-0.060,-0.120,0.000,0.013,0.994,0.010,-0.006,-0.004,-0.006,0.000,0.000,0.000,0.000,0,2,0,2,7,255,960,300,0,0,-89.588,0.564,-31.103
EX0521-092111,4,C06,prep,1295,1295,0,426344.091,0.685,-0.678,0.192,0.187,0,0,0,0,0,0,0,0,0,0.000,0,0,0.104,0.003,-0.060,-0.060,-0.060,0.014,0.994,0.011,-0.002,0.002,-0.006,0.000,0.000,0.000,0.000,0,2,0,2,7,255,960,300,0,0,-89.588,0.563,-31.103
EX0521-092111,4,C06,prep,1318,1318,0,426349.092,0.685,-0.678,0.192,0.187,0,0,0,0,0,0,0,0,0,0.000,0,0,0.104,0.006,-0.060,-0.060,-0.060,0.014,0.994,0.011,-0.006,0.002,-0.006,0.000,0.000,0.000,0.000,0,2,0,2,7,255,960,300,0,0,-89.589,0.563,-31.103
EX0521-092111,4,C06,prep,1318,1318,0,426354.092,0.685,-0.678,0.192,0.187,0,0,0,0,0,0,0,0,0,0.000,0,0,0.060,0.006,0.000,-0.060,0.000,0.014,0.995,0.011,-0.006,0.000,-0.006,0.000,0.000,0.000,0.000,0,2,0,2,7,255,960,300,0,0,-89.589,0.562,-31.103
EX0521-092111,4,C06,prep,1319,1319,0,426359.095,0.685,-0.678,0.192,0.187,0,0,0,0,0,0,0,0,0,0.000,0,0,0.085,0.006,-0.060,-0.060,0.000,0.014,0.994,0.010,-0.006,0.000,-0.002,0.000,0.000,0.000,0.000,0,2,0,2,7,255,960,300,0,0,-89.589,0.562,-31.103
EX0521-092111,4,C06,prep,1319,1319,0,426364.092,0.685,-0.678,0.192,0.187,0,0,0,0,0,0,0,0,0,0.000,0,0,0.060,0.008,0.000,-0.060,0.000,0.013,0.994,0.011,-0.006,0.006,-0.002,0.000,0.000,0.000,0.000,0,2,0,2,7,255,960,300,0,0,-89.590,0.562,-31.103
EX0521-092111,4,C06,prep,1319,1319,0,426369.091,0.685,-0.678,0.192,0.187,0,0,0,0,0,0,0,0,0,0.000,0,0,0.060,0.007,0.000,0.000,-0.060,0.015,0.993,0.011,-0.004,0.006,-0.006,0.000,0.000,0.000,0.000,0,2,0,2,7,255,960,300,0,0,-89.590,0.561,-31.103
EX0521-092111,4,C06,prep,1319,1319,0,426374.092,0.685,-0.678,0.192,0.187,0,0,0,0,0,0,0,0,0,0.000,0,0,0.147,0.006,-0.060,-0.120,-0.060,0.014,0.994,0.010,0.000,0.006,-0.006,0.000,0.000,0.000,0.000,0,2,0,2,7,255,960,300,0,0,-89.591,0.561,-31.103
EX0521-092111,4,C06,prep,1351,1351,0,426379.091,0.685,-0.678,0.192,0.187,0,0,0,0,0,0,0,0,0,0.000,0,0,0.120,0.000,0.000,-0.120,0.000,0.014,0.994,0.011,0.000,0.000,-0.006,0.000,0.000,0.000,0.000,0,2,0,2,7,255,960,300,0,0,-89.591,0.560,-31.103
EX0521-092111,4,C06,prep,1351,1351,0,426384.092,0.685,-0.678,0.192,0.187,0,0,0,0,0,0,0,0,0,0.000,0,0,0.085,0.002,-0.060,-0.060,0.000,0.015,0.995,0.011,0.000,-0.002,-0.002,0.000,0.000,0.000,0.000,0,2,0,2,7,255,960,300,0,0,-89.591,0.561,-31.103
EX0521-092111,4,C06,prep,1351,1351,0,426389.092,0.685,-0.678,0.192,0.187,0,0,0,0,0,0,0,0,0,0.000,0,0,0.000,0.006,0.000,0.000,0.000,0.015,0.994,0.012,-0.004,-0.004,-0.006,0.000,0.000,0.000,0.000,0,2,0,2,7,255,960,300,0,0,-89.592,0.561,-31.103
EX0521-092111,4,C06,prep,1351,1351,0,426394.091,0.685,-0.678,0.192,0.187,0,0,0,0,0,0,0,0,0,0.000,0,0,0.104,0.006,-0.060,-0.060,-0.060,0.014,0.997,0.011,-0.004,-0.004,0.004,0.000,0.000,0.000,0.000,0,2,0,2,7,255,960,300,0,0,-89.592,0.560,-31.103
EX0521-092111,4,C06,prep,1352,1352,0,426399.092,0.685,-0.678,0.192,0.187,0,0,0,0,0,0,0,0,0,0.000,0,0,0.060,0.004,0.000,0.000,-0.060,0.015,0.994,0.010,-0.004,0.000,-0.002,0.000,0.000,0.000,0.000,0,2,0,2,7,255,960,300,0,0,-89.592,0.560,-31.103
EX0521-092111,4,C06,prep,1352,1352,0,426404.091,0.685,-0.678,0.192,0.187,0,0,0,0,0,0,0,0,0,0.000,0,0,0.085,0.008,-0.060,-0.060,0.000,0.014,0.994,0.012,-0.008,0.000,-0.002,0.000,0.000,0.000,0.000,0,2,0,2,7,255,960,300,0,0,-89.588,0.559,-31.103
EX0521-092111,4,C06,prep,1360,1360,0,426409.092,0.685,-0.678,0.192,0.187,0,0,0,0,0,0,0,0,0,0.000,0,0,0.060,0.004,0.000,-0.060,0.000,0.014,0.995,0.011,-0.004,-0.002,-0.002,0.000,0.000,0.000,0.000,0,2,0,2,7,255,960,300,0,0,-89.589,0.559,-31.103
EX0521-092111,4,C06,prep,1360,1360,0,426414.092,0.685,-0.678,0.192,0.187,0,0,0,0,0,0,0,0,0,0.000,0,0,0.020,0.004,0.000,0.020,0.000,0.015,0.994,0.011,-0.004,-0.002,-0.002,0.000,0.000,0.000,0.000,0,2,0,2,7,255,960,300,0,0,-89.589,0.560,-31.103
EX0521-092111,4,C06,prep,1375,1375,0,426419.091,0.685,-0.678,0.192,0.187,0,0,0,0,0,0,0,0,0,0.000,0,0,0.060,0.003,0.000,-0.060,0.000,0.015,0.995,0.012,0.002,-0.002,0.004,0.000,0.000,0.000,0.000,0,2,0,2,7,255,960,300,0,0,-89.589,0.561,-31.103
EX0521-092111,4,C06,prep,1375,1375,0,426424.092,0.685,-0.678,0.192,0.187,0,0,0,0,0,0,0,0,0,0.000,0,0,0.020,0.006,0.000,0.020,0.000,0.015,0.994,0.011,0.006,-0.002,-0.002,0.000,0.000,0.000,0.000,0,2,0,2,7,255,960,300,0,0,-89.590,0.562,-31.103
EX0521-092111,4,C06,prep,1375,1375,0,426429.091,0.685,-0.678,0.192,0.187,0,0,0,0,0,0,0,0,0,0.000,0,0,0.060,0.003,0.000,-0.060,0.000,0.014,0.994,0.010,0.002,-0.002,-0.002,0.000,0.000,0.000,0.000,0,2,0,2,7,255,960,300,0,0,-89.590,0.562,-31.103
EX0521-092111,4,C06,prep,1375,1375,0,426434.092,0.685,-0.678,0.192,0.187,0,0,0,0,0,0,0,0,0,0.000,0,0,0.085,0.006,0.000,-0.060,-0.060,0.014,0.994,0.010,0.000,0.006,-0.006,0.000,0.000,0.000,0.000,0,2,0,2,7,255,960,300,0,0,-89.590,0.561,-31.103
EX0521-092111,4,C06,prep,1428,1428,0,426439.092,0.685,-0.678,0.192,0.187,0,0,0,0,0,0,0,0,0,0.000,0,0,0.060,0.006,0.000,-0.060,0.000,0.016,0.994,0.011,0.000,0.006,-0.006,0.000,0.000,0.000,0.000,0,2,0,2,7,255,960,300,0,0,-89.591,0.562,-31.103
EX0521-092111,4,C06,prep,1428,1428,0,426444.091,0.685,-0.678,0.192,0.187,0,0,0,0,0,0,0,0,0,0.000,0,0,0.060,0.006,0.000,-0.060,0.000,0.015,0.993,0.012,0.000,-0.006,-0.006,0.000,0.000,0.000,0.000,0,2,0,2,7,255,960,300,0,0,-89.591,0.564,-31.103
EX0521-092111,4,C06,prep,1429,1429,0,426449.092,0.685,-0.678,0.192,0.187,0,0,0,0,0,0,0,0,0,0.000,0,0,0.085,0.008,-0.060,-0.060,0.000,0.015,0.994,0.012,0.000,-0.008,-0.006,0.000,0.000,0.000,0.000,0,2,0,2,7,255,960,300,0,0,-89.591,0.563,-31.103
EX0521-092111,4,C06,prep,1429,1429,0,426454.091,0.685,-0.678,0.192,0.187,0,0,0,0,0,0,0,0,0,0.000,0,0,0.085,0.009,0.000,-0.060,-0.060,0.013,0.993,0.012,-0.004,-0.008,-0.010,0.000,0.000,0.000,0.000,0,2,0,2,7,255,960,300,0,0,-89.592,0.563,-31.103
EX0521-092111,4,C06,prep,1429,1429,0,426459.095,0.685,-0.678,0.192,0.187,0,0,0,0,0,0,0,0,0,0.000,0,0,0.104,0.006,-0.060,-0.060,-0.060,0.015,0.994,0.011,-0.004,-0.004,-0.006,0.000,0.000,0.000,0.000,0,2,0,2,7,255,960,300,0,0,-89.592,0.562,-31.103
EX0521-092111,4,C06,prep,1429,1429,0,426464.091,0.685,-0.678,0.192,0.187,0,0,0,0,0,0,0,0,0,0.000,0,0,0.085,0.004,0.000,-0.060,-0.060,0.015,0.994,0.011,0.000,-0.004,-0.006,0.000,0.000,0.000,0.000,0,2,0,2,7,255,960,300,0,0,-89.593,0.563,-31.103
EX0521-092111,4,C06,prep,1439,1439,0,426469.091,0.685,-0.678,0.192,0.187,0,0,0,0,0,0,0,0,0,0.000,0,0,0.060,0.004,0.000,-0.060,0.000,0.014,0.995,0.011,0.000,-0.004,-0.006,0.000,0.000,0.000,0.000,0,2,0,2,7,255,960,300,0,0,-89.593,0.563,-31.103
EX0521-092111,4,C06,prep,1439,1439,0,426474.092,0.685,-0.678,0.192,0.187,0,0,0,0,0,0,0,0,0,0.000,0,0,0.060,0.008,0.000,-0.060,0.000,0.014,0.995,0.012,-0.006,-0.006,0.004,0.000,0.000,0.000,0.000,0,2,0,2,7,255,960,300,0,0,-89.589,0.562,-31.103
EX0521-092111,4,C06,prep,1439,1439,0,426479.091,0.685,-0.678,0.192,0.187,0,0,0,0,0,0,0,0,0,0.000,0,0,0.060,0.006,0.000,-0.060,0.000,0.014,0.995,0.011,-0.006,-0.002,0.004,0.000,0.000,0.000,0.000,0,2,0,2,7,255,960,300,0,0,-89.589,0.562,-31.103
EX0521-092111,4,C06,prep,1439,1439,0,426484.092,0.685,-0.678,0.192,0.187,0,0,0,0,0,0,0,0,0,0.000,0,0,0.120,0.006,0.000,-0.120,0.000,0.014,0.994,0.011,-0.006,-0.002,0.004,0.000,0.000,0.000,0.000,0,2,0,2,7,255,960,300,0,0,-89.589,0.561,-31.103
EX0521-092111,4,C06,prep,1439,1439,0,426489.091,0.685,-0.678,0.192,0.187,0,0,0,0,0,0,0,0,0,0.000,0,0,0.060,0.004,0.000,-0.060,0.000,0.015,0.994,0.012,-0.004,-0.002,-0.002,0.000,0.000,0.000,0.000,0,2,0,2,7,255,960,300,0,0,-89.590,0.561,-31.103
EX0521-092111,4,C06,prep,1439,1439,0,426494.092,0.685,-0.678,0.192,0.187,0,0,0,0,0,0,0,0,0,0.000,0,0,0.104,0.007,-0.060,-0.060,-0.060,0.014,0.996,0.010,-0.004,0.006,-0.002,0.000,0.000,0.000,0.000,0,2,0,2,7,255,960,300,0,0,-89.590,0.561,-31.103
EX0521-092111,4,C06,prep,1455,1455,0,426499.092,0.685,-0.678,0.192,0.187,0,0,0,0,0,0,0,0,0,0.000,0,0,0.060,0.006,0.000,-0.060,0.000,0.014,0.995,0.010,-0.002,0.006,0.004,0.000,0.000,0.000,0.000,0,2,0,2,7,255,960,300,0,0,-89.591,0.560,-31.103
EX0521-092111,4,C06,prep,1455,1455,0,426504.091,0.685,-0.678,0.192,0.187,0,0,0,0,0,0,0,0,0,0.000,0,0,0.120,0.006,0.000,-0.120,0.000,0.015,0.994,0.011,0.000,0.006,0.004,0.000,0.000,0.000,0.000,0,2,0,2,7,255,960,300,0,0,-89.591,0.560,-31.103
EX0521-092111,4,C06,prep,1471,1471,0,426509.092,0.685,-0.678,0.192,0.187,0,0,0,0,0,0,0,0,0,0.000,0,0,0.060,0.002,0.000,-0.060,0.000,0.015,0.994,0.012,0.002,0.000,-0.006,0.000,0.000,0.000,0.000,0,2,0,2,7,255,960,300,0,0,-89.591,0.561,-31.103
EX0521-092111,4,C06,prep,1471,1471,0,426514.091,0.685,-0.678,0.192,0.187,0,0,0,0,0,0,0,0,0,0.000,0,0,0.060,0.002,0.000,-0.060,0.000,0.014,0.994,0.011,0.002,0.000,-0.006,0.000,0.000,0.000,0.000,0,2,0,2,7,255,960,300,0,0,-89.592,0.560,-31.103
EX0521-092111,4,C06,prep,1471,1471,0,426519.092,0.685,-0.678,0.192,0.187,0,0,0,0,0,0,0,0,0,0.000,0,0,0.000,0.008,0.000,0.000,0.000,0.015,0.994,0.012,-0.002,-0.008,-0.006,0.000,0.000,0.000,0.000,0,2,0,2,7,255,960,300,0,0,-89.592,0.560,-31.103
EX0521-092111,4,C06,prep,1471,1471,0,426524.092,0.685,-0.678,0.192,0.187,0,0,0,0,0,0,0,0,0,0.000,0,0,0.060,0.007,0.000,0.000,-0.060,0.013,0.993,0.012,-0.006,-0.004,-0.006,0.000,0.000,0.000,0.000,0,2,0,2,7,255,960,300,0,0,-89.588,0.559,-31.103
EX0521-092111,4,C06,prep,1488,1488,0,426529.091,0.685,-0.678,0.192,0.187,0,0,0,0,0,0,0,0,0,0.000,0,0,0.000,0.004,0.000,0.000,0.000,0.016,0.995,0.010,-0.002,-0.004,-0.006,0.000,0.000,0.000,0.000,0,2,0,2,7,255,960,300,0,0,-89.588,0.561,-31.103
EX0521-092111,4,C06,prep,1488,1488,0,426534.092,0.685,-0.678,0.192,0.187,0,0,0,0,0,0,0,0,0,0.000,0,0,0.104,0.004,-0.060,-0.060,-0.060,0.015,0.995,0.011,0.000,-0.004,0.004,0.000,0.000,0.000,0.000,0,2,0,2,7,255,960,300,0,0,-89.588,0.560,-31.103
EX0521-092111,4,C06,prep,1488,1488,0,426539.091,0.685,-0.678,0.192,0.187,0,0,0,0,0,0,0,0,0,0.000,0,0,0.120,0.002,0.000,-0.120,0.000,0.015,0.994,0.011,0.002,0.000,0.004,0.000,0.000,0.000,0.000,0,2,0,2,7,255,960,300,0,0,-89.589,0.560,-31.103
EX0521-092111,4,C06,prep,1488,1488,0,426544.092,0.685,-0.678,0.192,0.187,0,0,0,0,0,0,0,0,0,0.000,0,0,0.120,0.002,0.000,-0.120,0.000,0.014,0.994,0.011,0.000,-0.002,-0.002,0.000,0.000,0.000,0.000,0,2,0,2,7,255,960,300,0,0,-89.589,0.559,-31.103
EX0521-092111,4,C06,prep,1527,1527,0,426549.091,0.685,-0.678,0.192,0.187,0,0,0,0,0,0,0,0,0,0.000,0,0,0.085,0.003,-0.060,-0.060,0.000,0.015,0.996,0.012,-0.002,-0.002,-0.002,0.000,0.000,0.000,0.000,0,2,0,2,7,255,960,300,0,0,-89.590,0.559,-31.103
EX0521-092111,4,C06,prep,1527,1527,0,426554.091,0.685,-0.678,0.192,0.187,0,0,0,0,0,0,0,0,0,0.000,0,0,0.085,0.003,0.000,-0.060,-0.060,0.014,0.995,0.011,-0.002,-0.002,0.004,0.000,0.000,0.000,0.000,0,2,0,2,7,255,960,300,0,0,-89.590,0.558,-31.103
EX0521-092111,4,C06,prep,1529,1529,0,426559.095,0.685,-0.678,0.192,0.187,0,0,0,0,0,0,0,0,0,0.000,0,0,0.087,0.003,-0.060,0.020,-0.060,0.013,0.993,0.011,-0.002,0.002,0.004,0.000,0.000,0.000,0.000,0,2,0,2,7,255,960,300,0,0,-89.590,0.558,-31.103
EX0521-092111,4,C06,prep,1529,1529,0,426564.091,0.685,-0.678,0.192,0.187,0,0,0,0,0,0,0,0,0,0.000,0,0,0.087,0.003,-0.060,0.020,-0.060,0.015,0.994,0.012,-0.002,0.002,-0.006,0.000,0.000,0.000,0.000,0,2,0,2,7,255,960,300,0,0,-89.591,0.559,-31.103
EX0521-092111,4,C06,prep,1529,1529,0,426569.092,0.685,-0.678,0.192,0.187,0,0,0,0,0,0,0,0,0,0.000,0,0,0.060,0.008,0.000,-0.060,0.000,0.015,0.994,0.012,-0.002,-0.008,-0.006,0.000,0.000,0.000,0.000,0,2,0,2,7,255,960,300,0,0,-89.591,0.560,-31.103
EX0521-092111,4,C06,prep,1529,1529,0,426574.091,0.685,-0.678,0.192,0.187,0,0,0,0,0,0,0,0,0,0.000,0,0,0.060,0.010,0.000,-0.060,0.000,0.015,0.993,0.012,0.002,-0.010,-0.006,0.000,0.000,0.000,0.000,0,2,0,2,7,255,960,300,0,0,-89.591,0.561,-31.103
EX0521-092111,4,C06,prep,1535,1535,0,426579.092,0.685,-0.678,0.192,0.187,0,0,0,0,0,0,0,0,0,0.000,0,0,0.085,0.010,-0.060,-0.060,0.000,0.014,0.995,0.012,0.002,-0.010,-0.006,0.000,0.000,0.000,0.000,0,2,0,2,7,255,960,300,0,0,-89.587,0.560,-31.103
EX0521-092111,4,C06,prep,1535,1535,0,426584.092,0.685,-0.678,0.192,0.187,0,0,0,0,0,0,0,0,0,0.000,0,0,0.147,0.008,-0.060,-0.120,-0.060,0.015,0.994,0.012,-0.002,-0.008,-0.006,0.000,0.000,0.000,0.000,0,2,0,2,7,255,960,300,0,0,-89.588,0.560,-31.103
EX0521-092111,4,C06,prep,1535,1535,0,426589.091,0.685,-0.678,0.192,0.187,0,0,0,0,0,0,0,0,0,0.000,0,0,0.060,0.006,0.000,-0.060,0.000,0.015,0.994,0.010,-0.002,-0.006,0.000,0.000,0.000,0.000,0.000,0,2,0,2,7,255,960,300,0,0,-89.588,0.560,-31.103
EX0521-092111,4,C06,prep,1535,1535,0,426594.092,0.685,-0.678,0.192,0.187,0,0,0,0,0,0,0,0,0,0.000,0,0,0.085,0.004,-0.060,-0.060,0.000,0.015,0.996,0.011,0.000,-0.004,0.000,0.000,0.000,0.000,0.000,0,2,0,2,7,255,960,300,0,0,-89.588,0.559,-31.103
EX0521-092111,4,C06,prep,1574,1574,0,426599.092,0.685,-0.678,0.192,0.187,0,0,0,0,0,0,0,0,0,0.000,0,0,0.060,0.004,0.000,-0.060,0.000,0.013,0.994,0.011,0.000,0.004,0.000,0.000,0.000,0.000,0.000,0,2,0,2,7,255,960,300,0,0,-89.589,0.559,-31.103
EX0521-092111,4,C06,prep,1574,1574,0,426604.092,0.685,-0.678,0.192,0.187,0,0,0,0,0,0,0,0,0,0.000,0,0,0.104,0.004,-0.060,-0.060,-0.060,0.015,0.994,0.010,0.000,0.004,-0.002,0.000,0.000,0.000,0.000,0,2,0,2,7,255,960,300,0,0,-89.589,0.558,-31.103
EX0521-092111,4,C06,prep,1575,1575,0,426609.092,0.685,-0.678,0.192,0.187,0,0,0,0,0,0,0,0,0,0.000,0,0,0.085,0.006,0.000,-0.060,-0.060,0.015,0.994,0.012,-0.004,0.004,-0.002,0.000,0.000,0.000,0.000,0,2,0,2,7,255,960,300,0,0,-89.585,0.558,-31.103
EX0521-092111,4,C06,prep,1575,1575,0,426614.091,0.685,-0.678,0.192,0.187,0,0,0,0,0,0,0,0,0,0.000,0,0,0.060,0.004,0.000,-0.060,0.000,0.014,0.993,0.010,0.002,0.004,-0.002,0.000,0.000,0.000,0.000,0,2,0,2,7,255,960,300,0,0,-89.585,0.557,-31.103
EX0521-092111,4,C06,prep,1577,1577,0,426619.092,0.685,-0.678,0.192,0.187,0,0,0,0,0,0,0,0,0,0.000,0,0,0.060,0.008,0.000,-0.060,0.000,0.014,0.994,0.010,0.002,0.008,0.000,0.000,0.000,0.000,0.000,0,2,0,2,7,255,960,300,0,0,-89.586,0.557,-31.103
EX0521-092111,4,C06,prep,1577,1577,0,426624.091,0.685,-0.678,0.192,0.187,0,0,0,0,0,0,0,0,0,0.000,0,0,0.060,0.008,0.000,-0.060,0.000,0.014,0.994,0.011,0.002,0.008,0.000,0.000,0.000,0.000,0.000,0,2,0,2,7,255,960,300,0,0,-89.586,0.556,-31.103
EX0521-092111,4,C06,prep,1585,1585,0,426629.092,0.685,-0.678,0.192,0.187,0,0,0,0,0,0,0,0,0,0.000,0,0,0.000,0.003,0.000,0.000,0.000,0.015,0.993,0.011,0.002,0.002,0.000,0.000,0.000,0.000,0.000,0,2,0,2,7,255,960,300,0,0,-89.586,0.557,-31.103
EX0521-092111,4,C06,prep,1585,1585,0,426634.091,0.685,-0.678,0.192,0.187,0,0,0,0,0,0,0,0,0,0.000,0,0,0.085,0.004,0.000,-0.060,-0.060,0.016,0.994,0.011,0.002,-0.004,-0.006,0.000,0.000,0.000,0.000,0,2,0,2,7,255,960,300,0,0,-89.587,0.559,-31.103
EX0521-092111,4,C06,prep,1585,1585,0,426639.091,0.685,-0.678,0.192,0.187,0,0,0,0,0,0,0,0,0,0.000,0,0,0.085,0.004,0.060,-0.060,0.000,0.015,0.995,0.011,0.002,-0.004,-0.006,0.000,0.000,0.000,0.000,0,2,0,2,7,255,960,300,0,0,-89.587,0.558,-31.103
EX0521-092111,4,C06,prep,1585,1585,0,426644.092,0.685,-0.678,0.192,0.187,0,0,0,0,0,0,0,0,0,0.000,0,0,0.120,0.009,0.000,-0.120,0.000,0.016,0.994,0.011,0.008,-0.004,-0.006,0.000,0.000,0.000,0.000,0,2,0,2,7,255,960,300,0,0,-89.587,0.559,-31.103
EX0521-092111,4,C06,prep,1621,1621,0,426649.091,0.685,-0.678,0.192,0.187,0,0,0,0,0,0,0,0,0,0.000,0,0,0.134,0.004,0.000,-0.120,-0.060,0.014,0.994,0.012,0.000,-0.004,0.000,0.000,0.000,0.000,0.000,0,2,0,2,7,255,960,300,0,0,-89.588,0.559,-31.103
EX0521-092111,4,C06,prep,1621,1621,0,426654.092,0.685,-0.678,0.192,0.187,0,0,0,0,0,0,0,0,0,0.000,0,0,0.060,0.010,0.000,0.000,-0.060,0.014,0.994,0.012,-0.010,-0.002,0.000,0.000,0.000,0.000,0.000,0,2,0,2,7,255,960,300,0,0,-89.588,0.558,-31.103
EX0521-092111,4,C06,prep,1622,1622,0,426659.095,0.685,-0.678,0.192,0.187,0,0,0,0,0,0,0,0,0,0.000,0,0,0.060,0.010,0.000,-0.060,0.000,0.015,0.993,0.011,-0.010,-0.002,0.000,0.000,0.000,0.000,0.000,0,2,0,2,7,255,960,300,0,0,-89.588,0.559,-31.103
EX0521-092111,4,C06,prep,1622,1622,0,426664.092,0.685,-0.678,0.192,0.187,0,0,0,0,0,0,0,0,0,0.000,0,0,0.085,0.002,0.000,-0.060,-0.060,0.014,0.995,0.010,0.000,-0.002,0.000,0.000,0.000,0.000,0.000,0,2,0,2,7,255,960,300,0,0,-89.589,0.559,-31.103
EX0521-092111,4,C06,prep,1622,1622,0,426669.092,0.685,-0.678,0.192,0.187,0,0,0,0,0,0,0,0,0,0.000,0,0,0.060,0.004,0.000,-0.060,0.000,0.015,0.994,0.011,0.000,-0.004,-0.006,0.000,0.000,0.000,0.000,0,2,0,2,7,255,960,300,0,0,-89.589,0.559,-31.103
EX0521-092111,4,C06,prep,1622,1622,0,426674.091,0.685,-0.678,0.192,0.187,0,0,0,0,0,0,0,0,0,0.000,0,0,0.134,0.004,-0.060,-0.120,0.000,0.015,0.994,0.011,0.002,-0.004,-0.006,0.000,0.000,0.000,0.000,0,2,0,2,7,255,960,300,0,0,-89.590,0.560,-31.103
EX0521-092111,4,C06,prep,1631,1631,0,426679.092,0.685,-0.678,0.192,0.187,0,0,0,0,0,0,0,0,0,0.000,0,0,0.085,0.006,0.060,-0.060,0.000,0.016,0.994,0.011,0.004,-0.004,-0.006,0.000,0.000,0.000,0.000,0,2,0,2,7,255,960,300,0,0,-89.590,0.561,-31.103
EX0521-092111,4,C06,prep,1631,1631,0,426684.091,0.685,-0.678,0.192,0.187,0,0,0,0,0,0,0,0,0,0.000,0,0,0.000,0.007,0.000,0.000,0.000,0.014,0.994,0.012,0.004,-0.006,-0.006,0.000,0.000,0.000,0.000,0,2,0,2,7,255,960,300,0,0,-89.586,0.560,-31.103
EX0521-092111,4,C06,prep,1652,1652,0,426689.092,0.685,-0.678,0.192,0.187,0,0,0,0,0,0,0,0,0,0.000,0,0,0.000,0.007,0.000,0.000,0.000,0.014,0.994,0.012,-0.006,-0.004,-0.006,0.000,0.000,0.000,0.000,0,2,0,2,7,255,960,300,0,0,-89.586,0.560,-31.103
EX0521-092111,4,C06,prep,1652,1652,0,426694.092,0.685,-0.678,0.192,0.187,0,0,0,0,0,0,0,0,0,0.000,0,0,0.120,0.008,0.000,-0.120,0.000,0.015,0.993,0.011,-0.006,-0.006,-0.006,0.000,0.000,0.000,0.000,0,2,0,2,7,255,960,300,0,0,-89.586,0.561,-31.103
EX0521-092111,4,C06,prep,1652,1652,0,426699.092,0.685,-0.678,0.192,0.187,0,0,0,0,0,0,0,0,0,0.000,0,0,0.060,0.004,0.000,-0.060,0.000,0.015,0.994,0.011,0.000,-0.004,-0.006,0.000,0.000,0.000,0.000,0,2,0,2,7,255,960,300,0,0,-89.587,0.561,-31.103
EX0521-092111,4,C06,prep,1652,1652,0,426704.092,0.685,-0.678,0.192,0.187,0,0,0,0,0,0,0,0,0,0.000,0,0,0.085,0.003,0.000,-0.060,-0.060,0.015,0.994,0.011,0.002,-0.002,-0.004,0.000,0.000,0.000,0.000,0,2,0,2,7,255,960,300,0,0,-89.587,0.560,-31.103
EX0521-092111,4,C06,prep,1663,1663,0,426709.091,0.685,-0.678,0.192,0.187,0,0,0,0,0,0,0,0,0,0.000,0,0,0.060,0.000,-0.060,0.000,0.000,0.014,0.995,0.011,0.000,0.000,0.000,0.000,0.000,0.000,0.000,0,2,0,2,7,255,960,300,0,0,-89.588,0.560,-31.103
EX0521-092111,4,C06,prep,1663,1663,0,426714.092,0.685,-0.678,0.192,0.187,0,0,0,0,0,0,0,0,0,0.000,0,0,0.085,0.004,-0.060,-0.060,0.000,0.014,0.994,0.011,-0.004,0.000,0.000,0.000,0.000,0.000,0.000,0,2,0,2,7,255,960,300,0,0,-89.588,0.559,-31.103
EX0521-092111,4,C06,prep,1690,1690,0,426719.092,0.685,-0.678,0.192,0.187,0,0,0,0,0,0,0,0,0,0.000,0,0,0.085,0.004,-0.060,-0.060,0.000,0.015,0.994,0.010,-0.004,0.000,0.000,0.000,0.000,0.000,0.000,0,2,0,2,7,255,960,300,0,0,-89.588,0.559,-31.103
EX0521-092111,4,C06,prep,1690,1690,0,426724.091,0.685,-0.678,0.192,0.187,0,0,0,0,0,0,0,0,0,0.000,0,0,0.060,0.002,0.000,-0.060,0.000,0.015,0.994,0.012,-0.002,0.000,-0.004,0.000,0.000,0.000,0.000,0,2,0,2,7,255,960,300,0,0,-89.589,0.558,-31.103
EX0521-092111,4,C06,prep,1690,1690,0,426729.092,0.685,-0.678,0.192,0.187,0,0,0,0,0,0,0,0,0,0.000,0,0,0.060,0.006,0.000,-0.060,0.000,0.013,0.995,0.009,-0.002,0.006,-0.004,0.000,0.000,0.000,0.000,0,2,0,2,7,255,960,300,0,0,-89.589,0.558,-31.103
EX0521-092111,4,C06,prep,1690,1690,0,426734.091,0.685,-0.678,0.192,0.187,0,0,0,0,0,0,0,0,0,0.000,0,0,0.085,0.008,-0.060,-0.060,0.000,0.015,0.995,0.012,-0.002,-0.008,0.004,0.000,0.000,0.000,0.000,0,2,0,2,7,255,960,300,0,0,-89.589,0.559,-31.103
EX0521-092111,4,C06,prep,1728,1728,0,426739.092,0.685,-0.678,0.192,0.187,0,0,0,0,0,0,0,0,0,0.000,0,0,0.060,0.004,0.000,-0.060,0.000,0.014,0.994,0.012,-0.002,-0.004,0.004,0.000,0.000,0.000,0.000,0,2,0,2,7,255,960,300,0,0,-89.590,0.558,-31.103
EX0521-092111,4,C06,prep,1728,1728,0,426744.092,0.685,-0.678,0.192,0.187,0,0,0,0,0,0,0,0,0,0.000,0,0,0.085,0.004,-0.060,-0.060,0.000,0.015,0.995,0.011,0.002,-0.004,0.004,0.000,0.000,0.000,0.000,0,2,0,2,7,255,960,300,0,0,-89.590,0.558,-31.103
EX0521-092111,4,C06,prep,1759,1759,0,426749.091,0.685,-0.678,0.192,0.187,0,0,0,0,0,0,0,0,0,0.000,0,0,0.060,0.006,0.000,-0.060,0.000,0.013,0.994,0.011,-0.006,0.000,0.000,0.000,0.000,0.000,0.000,0,2,0,2,7,255,960,300,0,0,-89.591,0.558,-31.103
EX0521-092111,4,C06,prep,1759,1759,0,426754.092,0.685,-0.678,0.192,0.187,0,0,0,0,0,0,0,0,0,0.000,0,0,0.060,0.006,0.000,0.000,-0.060,0.015,0.994,0.010,0.004,0.004,0.000,0.000,0.000,0.000,0.000,0,2,0,2,7,255,960,300,0,0,-89.591,0.559,-31.103
EX0521-092111,4,C06,prep,1759,1759,0,426759.095,0.685,-0.678,0.192,0.187,0,0,0,0,0,0,0,0,0,0.000,0,0,0.085,0.004,-0.060,0.000,-0.060,0.015,0.995,0.012,0.002,0.004,0.000,0.000,0.000,0.000,0.000,0,2,0,2,7,255,960,300,0,0,-89.591,0.560,-31.103
EX0521-092111,4,C06,prep,1759,1759,0,426764.092,0.685,-0.678,0.192,0.187,0,0,0,0,0,0,0,0,0,0.000,0,0,0.060,0.002,0.000,0.000,-0.060,0.015,0.994,0.011,0.002,0.000,0.000,0.000,0.000,0.000,0.000,0,2,0,2,7,255,960,300,0,0,-89.592,0.559,-31.103
EX0521-092111,4,C06,prep,1759,1759,0,426769.091,0.685,-0.678,0.192,0.187,0,0,0,0,0,0,0,0,0,0.000,0,0,0.085,0.004,0.000,-0.060,-0.060,0.015,0.995,0.011,0.002,-0.004,0.004,0.000,0.000,0.000,0.000,0,2,0,2,7,255,960,300,0,0,-89.592,0.559,-31.103
EX0521-092111,4,C06,prep,1759,1759,0,426774.091,0.685,-0.678,0.192,0.187,0,0,0,0,0,0,0,0,0,0.000,0,0,0.060,0.004,0.000,-0.060,0.000,0.015,0.994,0.011,0.000,-0.004,0.000,0.000,0.000,0.000,0.000,0,2,0,2,7,255,960,300,0,0,-89.592,0.558,-31.103
EX0521-092111,4,C06,prep,1761,1761,0,426779.092,0.685,-0.678,0.192,0.187,0,0,0,0,0,0,0,0,0,0.000,0,0,0.104,0.004,-0.060,-0.060,-0.060,0.014,0.994,0.011,0.000,-0.004,-0.006,0.000,0.000,0.000,0.000,0,2,0,2,7,255,960,300,0,0,-89.593,0.558,-31.103
EX0521-092111,4,C06,prep,1761,1761,0,426784.091,0.685,-0.678,0.192,0.187,0,0,0,0,0,0,0,0,0,0.000,0,0,0.060,0.003,0.000,-0.060,0.000,0.014,0.994,0.010,-0.002,0.002,-0.006,0.000,0.000,0.000,0.000,0,2,0,2,7,255,960,300,0,0,-89.593,0.557,-31.103
EX0521-092111,4,C06,prep,1762,1762,0,426789.092,0.685,-0.678,0.192,0.187,0,0,0,0,0,0,0,0,0,0.000,0,0,0.085,0.003,0.000,-0.060,-0.060,0.015,0.995,0.011,-0.002,0.002,-0.006,0.000,0.000,0.000,0.000,0,2,0,2,7,255,960,300,0,0,-89.593,0.557,-31.103
EX0521-092111,4,C06,prep,1762,1762,0,426794.091,0.685,-0.678,0.192,0.187,0,0,0,0,0,0,0,0,0,0.000,0,0,0.060,0.004,0.000,-0.060,0.000,0.015,0.994,0.011,0.000,-0.004,0.000,0.000,0.000,0.000,0.000,0,2,0,2,7,255,960,300,0,0,-89.594,0.558,-31.103
EX0521-092111,4,C06,prep,1763,1763,0,426799.092,0.685,-0.678,0.192,0.187,0,0,0,0,0,0,0,0,0,0.000,0,0,0.134,0.006,0.000,-0.120,-0.060,0.015,0.994,0.012,0.000,-0.006,0.000,0.000,0.000,0.000,0.000,0,2,0,2,7,255,960,300,0,0,-89.594,0.559,-31.103
EX0521-092111,4,C06,prep,1763,1763,0,426804.092,0.685,-0.678,0.192,0.187,0,0,0,0,0,0,0,0,0,0.000,0,0,0.000,0.006,0.000,0.000,0.000,0.014,0.995,0.011,-0.002,-0.006,0.000,0.000,0.000,0.000,0.000,0,2,0,2,7,255,960,300,0,0,-89.595,0.558,-31.103
EX0521-092111,4,C06,prep,1764,1764,0,426809.091,0.685,-0.678,0.192,0.187,0,0,0,0,0,0,0,0,0,0.000,0,0,0.085,0.003,0.000,-0.060,-0.060,0.014,0.995,0.011,-0.002,0.002,0.004,0.000,0.000,0.000,0.000,0,2,0,2,7,255,960,300,0,0,-89.595,0.558,-31.103
EX0521-092111,4,C06,prep,1764,1764,0,426814.092,0.685,-0.678,0.192,0.187,0,0,0,0,0,0,0,0,0,0.000,0,0,0.060,0.003,0.000,-0.060,0.000,0.015,0.994,0.010,-0.002,0.002,0.004,0.000,0.000,0.000,0.000,0,2,0,2,7,255,960,300,0,0,-89.595,0.558,-31.103
EX0521-092111,4,C06,prep,1775,1775,0,426819.091,0.685,-0.678,0.192,0.187,0,0,0,0,0,0,0,0,0,0.000,0,0,0.060,0.004,0.000,-0.060,0.000,0.014,0.994,0.010,0.002,0.004,0.000,0.000,0.000,0.000,0.000,0,2,0,2,7,255,960,300,0,0,-89.596,0.557,-31.103
EX0521-092111,4,C06,prep,1775,1775,0,426824.092,0.685,-0.678,0.192,0.187,0,0,0,0,0,0,0,0,0,0.000,0,0,0.060,0.006,0.000,-0.060,0.000,0.014,0.994,0.010,0.002,0.006,0.000,0.000,0.000,0.000,0.000,0,2,0,2,7,255,960,300,0,0,-89.596,0.557,-31.103
EX0521-092111,4,C06,prep,1791,1791,0,426829.092,0.685,-0.678,0.192,0.187,0,0,0,0,0,0,0,0,0,0.000,0,0,0.060,0.006,0.000,-0.060,0.000,0.016,0.994,0.012,0.002,0.006,-0.004,0.000,0.000,0.000,0.000,0,2,0,2,7,255,960,300,0,0,-89.596,0.558,-31.103
EX0521-092111,4,C06,prep,1791,1791,0,426834.091,0.685,-0.678,0.192,0.187,0,0,0,0,0,0,0,0,0,0.000,0,0,0.060,0.006,0.000,-0.060,0.000,0.015,0.996,0.011,0.006,-0.002,-0.004,0.000,0.000,0.000,0.000,0,2,0,2,7,255,960,300,0,0,-89.597,0.559,-31.103
EX0521-092111,4,C06,prep,1791,1791,0,426839.092,0.685,-0.678,0.192,0.187,0,0,0,0,0,0,0,0,0,0.000,0,0,0.085,0.006,0.000,-0.060,-0.060,0.014,0.995,0.011,0.006,-0.002,0.010,0.000,0.000,0.000,0.000,0,2,0,2,7,255,960,300,0,0,-89.597,0.559,-31.103
EX0521-092111,4,C06,prep,1791,1791,0,426844.091,0.685,-0.678,0.192,0.187,0,0,0,0,0,0,0,0,0,0.000,0,0,0.060,0.004,0.000,-0.060,0.000,0.015,0.993,0.010,0.004,-0.002,0.010,0.000,0.000,0.000,0.000,0,2,0,2,7,255,960,300,0,0,-89.598,0.558,-31.103
EX0521-092111,4,C06,prep,1829,1829,0,426849.092,0.685,-0.678,0.192,0.187,0,0,0,0,0,0,0,0,0,0.000,0,0,0.085,0.004,0.000,-0.060,-0.060,0.014,0.994,0.011,-0.004,0.000,0.000,0.000,0.000,0.000,0.000,0,2,0,2,7,255,960,300,0,0,-89.598,0.558,-31.103
EX0521-092111,4,C06,prep,1829,1829,0,426854.092,0.685,-0.678,0.192,0.187,0,0,0,0,0,0,0,0,0,0.000,0,0,0.060,0.002,0.000,-0.060,0.000,0.015,0.994,0.012,0.002,0.000,0.000,0.000,0.000,0.000,0.000,0,2,0,2,7,255,960,300,0,0,-89.598,0.559,-31.103
EX0521-092111,4,C06,prep,1831,1831,0,426859.095,0.685,-0.678,0.192,0.187,0,0,0,0,0,0,0,0,0,0.000,0,0,0.085,0.004,0.060,-0.060,0.000,0.015,0.995,0.011,0.000,-0.004,0.000,0.000,0.000,0.000,0.000,0,2,0,2,7,255,960,300,0,0,-89.599,0.558,-31.103
EX0521-092111,4,C06,prep,1831,1831,0,426864.092,0.685,-0.678,0.192,0.187,0,0,0,0,0,0,0,0,0,0.000,0,0,0.060,0.010,0.000,-0.060,0.000,0.015,0.994,0.012,0.000,-0.010,0.000,0.000,0.000,0.000,0.000,0,2,0,2,7,255,960,300,0,0,-89.594,0.559,-31.103
EX0521-092111,4,C06,prep,1832,1832,0,426869.091,0.685,-0.678,0.192,0.187,0,0,0,0,0,0,0,0,0,0.000,0,0,0.060,0.004,0.000,-0.060,0.000,0.015,0.995,0.011,0.000,-0.004,0.004,0.000,0.000,0.000,0.000,0,2,0,2,7,255,960,300,0,0,-89.595,0.559,-31.103
EX0521-092111,4,C06,prep,1832,1832,0,426874.092,0.685,-0.678,0.192,0.187,0,0,0,0,0,0,0,0,0,0.000,0,0,0.085,0.004,-0.060,-0.060,0.000,0.014,0.995,0.011,0.000,-0.004,0.004,0.000,0.000,0.000,0.000,0,2,0,2,7,255,960,300,0,0,-89.595,0.558,-31.103
EX0521-092111,4,C06,prep,1839,1839,0,426879.092,0.685,-0.678,0.192,0.187,0,0,0,0,0,0,0,0,0,0.000,0,0,0.060,0.004,0.000,-0.060,0.000,0.015,0.995,0.011,0.000,-0.004,0.004,0.000,0.000,0.000,0.000,0,2,0,2,7,255,960,300,0,0,-89.595,0.558,-31.103
EX0521-092111,4,C06,prep,1839,1839,0,426884.091,0.685,-0.678,0.192,0.187,0,0,0,0,0,0,0,0,0,0.000,0,0,0.085,0.004,0.000,-0.060,0.060,0.015,0.994,0.011,0.000,-0.004,0.004,0.000,0.000,0.000,0.000,0,2,0,2,7,255,960,300,0,0,-89.596,0.558,-31.103
EX0521-092111,4,C06,prep,1839,1839,0,426889.092,0.685,-0.678,0.192,0.187,0,0,0,0,0,0,0,0,0,0.000,0,0,0.060,0.004,0.000,0.000,-0.060,0.014,0.995,0.012,0.000,-0.004,0.004,0.000,0.000,0.000,0.000,0,2,0,2,7,255,960,300,0,0,-89.596,0.557,-31.103
EX0521-092111,4,C06,prep,1839,1839,0,426894.091,0.685,-0.678,0.192,0.187,0,0,0,0,0,0,0,0,0,0.000,0,0,0.060,0.004,0.000,-0.060,0.000,0.015,0.995,0.010,0.000,-0.004,0.008,0.000,0.000,0.000,0.000,0,2,0,2,7,255,960,300,0,0,-89.596,0.557,-31.103
EX0521-092111,4,C06,prep,1862,1862,0,426899.092,0.685,-0.678,0.192,0.187,0,0,0,0,0,0,0,0,0,0.000,0,0,0.060,0.007,0.000,-0.060,0.000,0.014,0.994,0.011,-0.006,0.004,0.008,0.000,0.000,0.000,0.000,0,2,0,2,7,255,960,300,0,0,-89.597,0.556,-31.103
EX0521-092111,4,C06,prep,1862,1862,0,426904.092,0.685,-0.678,0.192,0.187,0,0,0,0,0,0,0,0,0,0.000,0,0,0.060,0.004,0.000,-0.060,0.000,0.015,0.993,0.011,0.002,0.004,0.000,0.000,0.000,0.000,0.000,0,2,0,2,7,255,960,300,0,0,-89.597,0.557,-31.103
EX0521-092111,4,C06,prep,1863,1863,0,426909.091,0.685,-0.678,0.192,0.187,0,0,0,0,0,0,0,0,0,0.000,0,0,0.080,0.002,0.000,0.000,-0.080,0.015,0.995,0.011,0.002,0.000,0.000,0.000,0.000,0.000,0.000,0,2,0,2,7,255,960,300,0,0,-89.598,0.558,-31.103
EX0521-092111,4,C06,prep,1863,1863,0,426914.092,0.685,-0.678,0.192,0.187,0,0,0,0,0,0,0,0,0,0.000,0,0,0.085,0.004,0.000,-0.060,0.060,0.014,0.995,0.012,0.002,-0.004,0.004,0.000,0.000,0.000,0.000,0,2,0,2,7,255,960,300,0,0,-89.598,0.558,-31.103
EX0521-092111,4,C06,prep,1871,1871,0,426919.091,0.685,-0.678,0.192,0.187,0,0,0,0,0,0,0,0,0,0.000,0,0,0.060,0.010,0.000,-0.060,0.000,0.014,0.995,0.012,-0.008,-0.006,0.004,0.000,0.000,0.000,0.000,0,2,0,2,7,255,960,300,0,0,-89.594,0.557,-31.103
EX0521-092111,4,C06,prep,1871,1871,0,426924.092,0.685,-0.678,0.192,0.187,0,0,0,0,0,0,0,0,0,0.000,0,0,0.144,0.013,0.000,-0.120,-0.080,0.016,0.995,0.011,-0.008,-0.010,0.004,0.000,0.000,0.000,0.000,0,2,0,2,7,255,960,300,0,0,-89.594,0.559,-31.103
EX0521-092111,4,C06,prep,1903,1903,0,426929.092,0.685,-0.678,0.192,0.187,0,0,0,0,0,0,0,0,0,0.000,0,0,0.000,0.010,0.000,0.000,0.000,0.015,0.994,0.011,0.002,-0.010,0.004,0.000,0.000,0.000,0.000,0,2,0,2,7,255,960,300,0,0,-89.594,0.558,-31.103
EX0521-092111,4,C06,prep,1903,1903,0,426934.091,0.685,-0.678,0.192,0.187,0,0,0,0,0,0,0,0,0,0.000,0,0,0.085,0.002,-0.060,-0.060,0.000,0.014,0.993,0.011,0.002,0.000,0.000,0.000,0.000,0.000,0.000,0,2,0,2,7,255,960,300,0,0,-89.595,0.558,-31.103
EX0521-092111,4,C06,prep,1903,1903,0,426939.092,0.685,-0.678,0.192,0.187,0,0,0,0,0,0,0,0,0,0.000,0,0,0.085,0.004,0.060,-0.060,0.000,0.014,0.993,0.011,-0.004,0.000,-0.010,0.000,0.000,0.000,0.000,0,2,0,2,7,255,960,300,0,0,-89.595,0.557,-31.103
EX0521-092111,4,C06,prep,1903,1903,0,426944.091,0.685,-0.678,0.192,0.187,0,0,0,0,0,0,0,0,0,0.000,0,0,0.085,0.008,-0.060,-0.060,0.000,0.014,0.995,0.011,-0.008,0.002,-0.010,0.000,0.000,0.000,0.000,0,2,0,2,7,255,960,300,0,0,-89.595,0.557,-31.103
EX0521-092111,4,C06,prep,1929,1929,0,426949.092,0.685,-0.678,0.192,0.187,0,0,0,0,0,0,0,0,0,0.000,0,0,0.060,0.004,0.000,-0.060,0.000,0.015,0.994,0.010,-0.004,0.002,0.000,0.000,0.000,0.000,0.000,0,2,0,2,7,255,960,300,0,0,-89.596,0.558,-31.103
EX0521-092111,4,C06,prep,1929,1929,0,426954.091,0.685,-0.678,0.192,0.187,0,0,0,0,0,0,0,0,0,0.000,0,0,0.120,0.003,0.000,-0.120,0.000,0.015,0.995,0.012,0.002,0.002,0.004,0.000,0.000,0.000,0.000,0,2,0,2,7,255,960,300,0,0,-89.596,0.559,-31.103
EX0521-092111,4,C06,prep,1930,1930,0,426959.095,0.685,-0.678,0.192,0.187,0,0,0,0,0,0,0,0,0,0.000,0,0,0.085,0.006,0.000,-0.060,0.060,0.014,0.993,0.012,0.002,-0.006,0.000,0.000,0.000,0.000,0.000,0,2,0,2,7,255,960,300,0,0,-89.597,0.559,-31.103
EX0521-092111,4,C06,prep,1930,1930,0,426964.092,0.685,-0.678,0.192,0.187,0,0,0,0,0,0,0,0,0,0.000,0,0,0.060,0.008,0.000,-0.060,0.000,0.014,0.994,0.011,-0.006,-0.006,-0.006,0.000,0.000,0.000,0.000,0,2,0,2,7,255,960,300,0,0,-89.597,0.558,-31.103
EX0521-092111,4,C06,prep,1931,1931,0,426969.091,0.685,-0.678,0.192,0.187,0,0,0,0,0,0,0,0,0,0.000,0,0,0.085,0.008,-0.060,-0.060,0.000,0.014,0.995,0.012,-0.006,-0.006,-0.006,0.000,0.000,0.000,0.000,0,2,0,2,7,255,960,300,0,0,-89.597,0.558,-31.103
EX0521-092111,4,C06,prep,1931,1931,0,426974.092,0.685,-0.678,0.192,0.187,0,0,0,0,0,0,0,0,0,0.000,0,0,0.060,0.008,0.000,0.000,-0.060,0.016,0.994,0.012,-0.006,-0.006,-0.006,0.000,0.000,0.000,0.000,0,2,0,2,7,255,960,300,0,0,-89.598,0.559,-31.103
EX0521-092111,4,C06,prep,1961,1961,0,426979.091,0.685,-0.678,0.192,0.187,0,0,0,0,0,0,0,0,0,0.000,0,0,0.104,0.007,0.060,-0.060,-0.060,0.014,0.994,0.011,-0.004,-0.006,-0.006,0.000,0.000,0.000,0.000,0,2,0,2,7,255,960,300,0,0,-89.598,0.558,-31.103
EX0521-092111,4,C06,prep,1961,1961,0,426984.092,0.685,-0.678,0.192,0.187,0,0,0,0,0,0,0,0,0,0.000,0,0,0.085,0.004,0.000,-0.060,-0.060,0.015,0.994,0.011,0.000,-0.004,-0.006,0.000,0.000,0.000,0.000,0,2,0,2,7,255,960,300,0,0,-89.598,0.558,-31.103
EX0521-092111,4,C06,prep,1961,1961,0,426989.092,0.685,-0.678,0.192,0.187,0,0,0,0,0,0,0,0,0,0.000,0,0,0.104,0.002,-0.060,-0.060,-0.060,0.015,0.993,0.011,0.000,-0.002,-0.006,0.000,0.000,0.000,0.000,0,2,0,2,7,255,960,300,0,0,-89.599,0.559,-31.103
EX0521-092111,4,C06,prep,1961,1961,0,426994.091,0.685,-0.678,0.192,0.187,0,0,0,0,0,0,0,0,0,0.000,0,0,0.060,0.004,-0.060,0.000,0.000,0.016,0.994,0.011,0.002,-0.004,-0.006,0.000,0.000,0.000,0.000,0,2,0,2,7,255,960,300,0,0,-89.599,0.560,-31.103
EX0521-092111,4,C06,prep,1961,1961,0,426999.092,0.685,-0.678,0.192,0.187,0,0,0,0,0,0,0,0,0,0.000,0,0,0.060,0.003,0.000,-0.060,0.000,0.014,0.995,0.011,0.002,-0.002,0.000,0.000,0.000,0.000,0.000,0,2,0,2,7,255,960,300,0,0,-89.599,0.560,-31.103
EX0521-092111,4,C06,prep,1961,1961,0,427004.091,0.685,-0.678,0.192,0.187,0,0,0,0,0,0,0,0,0,0.000,0,0,0.085,0.004,-0.060,-0.060,0.000,0.015,0.996,0.010,0.004,-0.002,0.010,0.000,0.000,0.000,0.000,0,2,0,2,7,255,960,300,0,0,-89.600,0.559,-31.103
EX0521-092111,4,C06,prep,1962,1962,0,427009.092,0.685,-0.678,0.192,0.187,0,0,0,0,0,0,0,0,0,0.000,0,0,0.085,0.004,0.000,-0.060,-0.060,0.014,0.993,0.012,-0.004,-0.002,0.010,0.000,0.000,0.000,0.000,0,2,0,2,7,255,960,300,0,0,-89.600,0.559,-31.103
EX0521-092111,4,C06,prep,1962,1962,0,427014.092,0.685,-0.678,0.192,0.187,0,0,0,0,0,0,0,0,0,0.000,0,0,0.060,0.007,0.000,-0.060,0.000,0.015,0.994,0.011,0.004,-0.006,0.000,0.000,0.000,0.000,0.000,0,2,0,2,7,255,960,300,0,0,-89.601,0.560,-31.103
EX0521-092111,4,C06,prep,1968,1968,0,427019.091,0.685,-0.678,0.192,0.187,0,0,0,0,0,0,0,0,0,0.000,0,0,0.060,0.007,0.000,-0.060,0.000,0.015,0.994,0.011,0.004,-0.006,-0.006,0.000,0.000,0.000,0.000,0,2,0,2,7,255,960,300,0,0,-89.601,0.561,-31.103
EX0521-092111,4,C06,prep,1968,1968,0,427024.092,0.685,-0.678,0.192,0.187,0,0,0,0,0,0,0,0,0,0.000,0,0,0.085,0.006,-0.060,-0.060,0.000,0.015,0.995,0.010,0.006,-0.002,0.000,0.000,0.000,0.000,0.000,0,2,0,2,7,255,960,300,0,0,-89.601,0.562,-31.103
EX0521-092111,4,C06,prep,1992,1992,0,427029.091,0.685,-0.678,0.192,0.187,0,0,0,0,0,0,0,0,0,0.000,0,0,0.060,0.006,0.000,-0.060,0.000,0.014,0.994,0.011,0.006,0.002,-0.006,0.000,0.000,0.000,0.000,0,2,0,2,7,255,960,300,0,0,-89.602,0.562,-31.103
EX0521-092111,4,C06,prep,1992,1992,0,427034.092,0.684,-0.678,0.192,0.187,0,0,0,0,0,0,0,0,0,0.000,0,0,0.000,0.002,0.000,0.000,0.000,0.015,0.995,0.011,0.000,0.002,0.004,0.000,0.000,0.000,0.000,0,2,0,2,7,255,960,300,0,0,-89.602,0.561,-31.103
EX0521-092111,4,C06,prep,2029,2029,0,427039.092,0.684,-0.678,0.192,0.187,0,0,0,0,0,0,0,0,0,0.000,0,0,0.134,0.002,0.060,-0.120,0.000,0.015,0.995,0.011,0.000,-0.002,0.004,0.000,0.000,0.000,0.000,0,2,0,2,7,255,960,300,0,0,-89.602,0.562,-31.103
EX0521-092111,4,C06,prep,2029,2029,0,427044.091,0.684,-0.678,0.192,0.187,0,0,0,0,0,0,0,0,0,0.000,0,0,0.060,0.007,0.000,-0.060,0.000,0.016,0.995,0.011,0.006,-0.004,0.004,0.000,0.000,0.000,0.000,0,2,0,2,7,255,960,300,0,0,-89.603,0.563,-31.103
EX0521-092111,4,C06,prep,2030,2030,0,427049.092,0.684,-0.678,0.192,0.187,0,0,0,0,0,0,0,0,0,0.000,0,0,0.085,0.006,0.000,-0.060,-0.060,0.015,0.994,0.010,0.006,-0.002,0.004,0.000,0.000,0.000,0.000,0,2,0,2,7,255,960,300,0,0,-89.603,0.563,-31.103
EX0521-092111,4,C06,prep,2030,2030,0,427054.091,0.684,-0.678,0.192,0.187,0,0,0,0,0,0,0,0,0,0.000,0,0,0.147,0.006,-0.060,-0.120,-0.060,0.015,0.995,0.012,0.004,-0.004,0.004,0.000,0.000,0.000,0.000,0,2,0,2,7,255,960,300,0,0,-89.603,0.563,-31.103
EX0521-092111,4,C06,prep,2030,2030,0,427059.095,0.684,-0.678,0.192,0.187,0,0,0,0,0,0,0,0,0,0.000,0,0,0.000,0.004,0.000,0.000,0.000,0.014,0.994,0.011,-0.004,-0.002,0.000,0.000,0.000,0.000,0.000,0,2,0,2,7,255,960,300,0,0,-89.604,0.562,-31.103
EX0521-092111,4,C06,prep,2030,2030,0,427064.092,0.685,-0.678,0.192,0.187,0,0,0,0,0,0,0,0,0,0.000,0,0,0.085,0.009,0.000,-0.060,-0.060,0.016,0.994,0.012,-0.004,-0.008,0.000,0.000,0.000,0.000,0.000,0,2,0,2,7,255,960,300,0,0,-89.599,0.563,-31.103
EX0521-092111,4,C06,prep,2063,2063,0,427069.094,0.685,-0.678,0.192,0.187,0,0,0,0,0,0,0,0,0,0.000,0,0,0.060,0.006,0.000,-0.060,0.000,0.014,0.994,0.011,-0.006,-0.002,0.000,0.000,0.000,0.000,0.000,0,2,0,2,7,255,960,300,0,0,-89.600,0.563,-31.103
EX0521-092111,4,C06,prep,2063,2063,0,427074.092,0.685,-0.678,0.192,0.187,0,0,0,0,0,0,0,0,0,0.000,0,0,0.085,0.003,0.000,-0.060,-0.060,0.015,0.995,0.010,0.002,0.002,0.000,0.000,0.000,0.000,0.000,0,2,0,2,7,255,960,300,0,0,-89.600,0.562,-31.103
EX0521-092111,4,C06,prep,2063,2063,0,427079.091,0.685,-0.678,0.192,0.187,0,0,0,0,0,0,0,0,0,0.000,0,0,0.085,0.004,0.000,-0.060,-0.060,0.015,0.995,0.011,0.004,0.002,0.004,0.000,0.000,0.000,0.000,0,2,0,2,7,255,960,300,0,0,-89.601,0.563,-31.103
EX0521-092111,4,C06,prep,2063,2063,0,427084.092,0.685,-0.678,0.192,0.187,0,0,0,0,0,0,0,0,0,0.000,0,0,0.085,0.004,0.000,-0.060,-0.060,0.014,0.996,0.011,0.004,0.002,0.008,0.000,0.000,0.000,0.000,0,2,0,2,7,255,960,300,0,0,-89.601,0.563,-31.103
EX0521-092111,4,C06,prep,2063,2063,0,427089.092,0.685,-0.678,0.192,0.187,0,0,0,0,0,0,0,0,0,0.000,0,0,0.104,0.006,-0.060,-0.060,-0.060,0.015,0.994,0.012,0.000,-0.006,0.004,0.000,0.000,0.000,0.000,0,2,0,2,7,255,960,300,0,0,-89.601,0.564,-31.103
EX0521-092111,4,C06,prep,2063,2063,0,427094.091,0.685,-0.678,0.192,0.187,0,0,0,0,0,0,0,0,0,0.000,0,0,0.104,0.013,-0.060,-0.060,-0.060,0.014,0.995,0.012,-0.010,-0.008,0.008,0.000,0.000,0.000,0.000,0,2,0,2,7,255,960,300,0,0,-89.597,0.564,-31.103
EX0521-092111,4,C06,prep,2063,2063,0,427099.092,0.685,-0.678,0.192,0.187,0,0,0,0,0,0,0,0,0,0.000,0,0,0.060,0.008,0.000,-0.060,0.000,0.015,0.993,0.011,0.000,-0.008,0.000,0.000,0.000,0.000,0.000,0,2,0,2,7,255,960,300,0,0,-89.597,0.565,-31.103
EX0521-092111,4,C06,prep,2063,2063,0,427104.091,0.685,-0.678,0.192,0.187,0,0,0,0,0,0,0,0,0,0.000,0,0,0.085,0.010,0.000,-0.060,-0.060,0.015,0.994,0.012,-0.006,-0.008,0.000,0.000,0.000,0.000,0.000,0,2,0,2,7,255,960,300,0,0,-89.593,0.564,-31.103
EX0521-092111,4,C06,prep,2064,2064,0,427109.092,0.685,-0.678,0.192,0.187,0,0,0,0,0,0,0,0,0,0.000,0,0,0.060,0.006,0.000,-0.060,0.000,0.015,0.995,0.011,0.006,0.000,0.000,0.000,0.000,0.000,0.000,0,2,0,2,7,255,960,300,0,0,-89.593,0.565,-31.103
EX0521-092111,4,C06,prep,2064,2064,0,427114.092,0.685,-0.678,0.192,0.187,0,0,0,0,0,0,0,0,0,0.000,0,0,0.085,0.006,0.000,-0.060,-0.060,0.015,0.996,0.011,0.004,-0.004,0.004,0.000,0.000,0.000,0.000,0,2,0,2,7,255,960,300,0,0,-89.594,0.566,-31.103
EX0521-092111,4,C06,prep,2083,2083,0,427119.091,0.685,-0.678,0.192,0.187,0,0,0,0,0,0,0,0,0,0.000,0,0,0.060,0.004,0.000,-0.060,0.000,0.014,0.994,0.011,0.004,0.000,0.004,0.000,0.000,0.000,0.000,0,2,0,2,7,255,960,300,0,0,-89.594,0.566,-31.103
EX0521-092111,4,C06,prep,2083,2083,0,427124.092,0.685,-0.678,0.192,0.187,0,0,0,0,0,0,0,0,0,0.000,0,0,0.060,0.003,0.000,-0.060,0.000,0.015,0.995,0.011,0.002,0.002,0.004,0.000,0.000,0.000,0.000,0,2,0,2,7,255,960,300,0,0,-89.594,0.565,-31.103
EX0521-092111,4,C06,prep,2083,2083,0,427129.091,0.685,-0.678,0.192,0.187,0,0,0,0,0,0,0,0,0,0.000,0,0,0.060,0.004,0.000,-0.060,0.000,0.014,0.994,0.011,-0.002,0.004,0.000,0.000,0.000,0.000,0.000,0,2,0,2,7,255,960,300,0,0,-89.595,0.565,-31.103
EX0521-092111,4,C06,prep,2083,2083,0,427134.092,0.685,-0.678,0.192,0.187,0,0,0,0,0,0,0,0,0,0.000,0,0,0.085,0.006,0.000,-0.060,-0.060,0.014,0.994,0.012,-0.006,0.002,0.000,0.000,0.000,0.000,0.000,0,2,0,2,7,255,960,300,0,0,-89.590,0.565,-31.103
EX0521-092111,4,C06,prep,2095,2095,0,427139.092,0.685,-0.678,0.192,0.187,0,0,0,0,0,0,0,0,0,0.000,0,0,0.085,0.010,0.000,-0.060,-0.060,0.014,0.994,0.011,-0.006,0.008,-0.002,0.000,0.000,0.000,0.000,0,2,0,2,7,255,960,300,0,0,-89.591,0.564,-31.103
EX0521-092111,4,C06,prep,2095,2095,0,427144.091,0.685,-0.678,0.192,0.187,0,0,0,0,0,0,0,0,0,0.000,0,0,0.060,0.006,0.000,-0.060,0.000,0.014,0.995,0.011,-0.006,0.000,0.000,0.000,0.000,0.000,0.000,0,2,0,2,7,255,960,300,0,0,-89.591,0.564,-31.103
EX0521-092111,4,C06,prep,2119,2119,0,427149.092,0.685,-0.678,0.192,0.187,0,0,0,0,0,0,0,0,0,0.000,0,0,0.060,0.004,0.000,-0.060,0.000,0.015,0.995,0.011,-0.004,0.000,0.004,0.000,0.000,0.000,0.000,0,2,0,2,7,255,960,300,0,0,-89.591,0.563,-31.103
EX0521-092111,4,C06,prep,2119,2119,0,427154.091,0.685,-0.678,0.192,0.187,0,0,0,0,0,0,0,0,0,0.000,0,0,0.085,0.004,0.000,-0.060,-0.060,0.015,0.994,0.012,-0.004,-0.002,0.004,0.000,0.000,0.000,0.000,0,2,0,2,7,255,960,300,0,0,-89.587,0.563,-31.103
EX0521-092111,4,C06,prep,2120,2120,0,427159.095,0.685,-0.678,0.192,0.187,0,0,0,0,0,0,0,0,0,0.000,0,0,0.085,0.002,-0.060,-0.060,0.000,0.015,0.994,0.010,0.000,-0.002,0.000,0.000,0.000,0.000,0.000,0,2,0,2,7,255,960,300,0,0,-89.588,0.562,-31.103
EX0521-092111,4,C06,prep,2120,2120,0,427164.092,0.685,-0.678,0.192,0.187,0,0,0,0,0,0,0,0,0,0.000,0,0,0.134,0.004,0.000,-0.120,-0.060,0.015,0.994,0.011,0.004,0.002,0.000,0.000,0.000,0.000,0.000,0,2,0,2,7,255,960,300,0,0,-89.588,0.562,-31.103
EX0521-092111,4,C06,prep,2120,2120,0,427169.091,0.685,-0.678,0.192,0.187,0,0,0,0,0,0,0,0,0,0.000,0,0,0.060,0.009,0.000,-0.060,0.000,0.014,0.996,0.011,0.004,0.008,0.000,0.000,0.000,0.000,0.000,0,2,0,2,7,255,960,300,0,0,-89.588,0.561,-31.103
EX0521-092111,4,C06,prep,2120,2120,0,427174.092,0.685,-0.678,0.192,0.187,0,0,0,0,0,0,0,0,0,0.000,0,0,0.060,0.004,0.000,-0.060,0.000,0.014,0.995,0.011,-0.004,0.002,0.004,0.000,0.000,0.000,0.000,0,2,0,2,7,255,960,300,0,0,-89.589,0.561,-31.103
EX0521-092111,4,C06,prep,2151,2151,0,427179.091,0.685,-0.678,0.192,0.187,0,0,0,0,0,0,0,0,0,0.000,0,0,0.085,0.004,0.000,-0.060,-0.060,0.015,0.995,0.011,-0.004,0.002,0.004,0.000,0.000,0.000,0.000,0,2,0,2,7,255,960,300,0,0,-89.589,0.561,-31.103
EX0521-092111,4,C06,prep,2151,2151,0,427184.092,0.685,-0.678,0.192,0.187,0,0,0,0,0,0,0,0,0,0.000,0,0,0.060,0.002,0.000,-0.060,0.000,0.015,0.994,0.011,0.000,-0.002,0.004,0.000,0.000,0.000,0.000,0,2,0,2,7,255,960,300,0,0,-89.589,0.562,-31.103
EX0521-092111,4,C06,prep,2151,2151,0,427189.092,0.685,-0.678,0.192,0.187,0,0,0,0,0,0,0,0,0,0.000,0,0,0.060,0.006,0.000,-0.060,0.000,0.015,0.993,0.011,0.004,-0.004,-0.006,0.000,0.000,0.000,0.000,0,2,0,2,7,255,960,300,0,0,-89.590,0.563,-31.103
EX0521-092111,4,C06,prep,2151,2151,0,427194.091,0.685,-0.678,0.192,0.187,0,0,0,0,0,0,0,0,0,0.000,0,0,0.060,0.006,0.000,-0.060,0.000,0.015,0.994,0.011,0.004,-0.004,-0.006,0.000,0.000,0.000,0.000,0,2,0,2,7,255,960,300,0,0,-89.590,0.564,-31.103
EX0521-092111,4,C06,prep,2151,2151,0,427199.092,0.685,-0.678,0.192,0.187,0,0,0,0,0,0,0,0,0,0.000,0,0,0.085,0.006,-0.060,0.000,-0.060,0.015,0.995,0.012,0.004,-0.004,0.000,0.000,0.000,0.000,0.000,0,2,0,2,7,255,960,300,0,0,-89.590,0.563,-31.103
EX0521-092111,4,C06,prep,2151,2151,0,427204.091,0.685,-0.678,0.192,0.187,0,0,0,0,0,0,0,0,0,0.000,0,0,0.060,0.004,0.000,-0.060,0.000,0.015,0.995,0.011,0.000,-0.004,0.004,0.000,0.000,0.000,0.000,0,2,0,2,7,255,960,300,0,0,-89.591,0.563,-31.103
EX0521-092111,4,C06,prep,2159,2159,0,427209.092,0.685,-0.678,0.192,0.187,0,0,0,0,0,0,0,0,0,0.000,0,0,0.085,0.003,0.000,-0.060,-0.060,0.014,0.994,0.011,-0.002,-0.002,0.004,0.000,0.000,0.000,0.000,0,2,0,2,7,255,960,300,0,0,-89.591,0.562,-31.103
EX0521-092111,4,C06,prep,2159,2159,0,427214.092,0.685,-0.678,0.192,0.187,0,0,0,0,0,0,0,0,0,0.000,0,0,0.134,0.004,0.000,-0.120,-0.060,0.015,0.995,0.010,0.000,0.004,0.004,0.000,0.000,0.000,0.000,0,2,0,2,7,255,960,300,0,0,-89.592,0.563,-31.103
EX0521-092111,4,C06,prep,2194,2194,0,427219.091,0.685,-0.678,0.192,0.187,0,0,0,0,0,0,0,0,0,0.000,0,0,0.085,0.004,0.000,-0.060,-0.060,0.015,0.995,0.011,0.000,0.004,0.004,0.000,0.000,0.000,0.000,0,2,0,2,7,255,960,300,0,0,-89.592,0.563,-31.103
EX0521-092111,4,C06,prep,2194,2194,0,427224.092,0.685,-0.678,0.192,0.187,0,0,0,0,0,0,0,0,0,0.000,0,0,0.060,0.002,0.000,-0.060,0.000,0.015,0.994,0.011,0.000,-0.002,0.004,0.000,0.000,0.000,0.000,0,2,0,2,7,255,960,300,0,0,-89.592,0.563,-31.103
EX0521-092111,4,C06,prep,2196,2196,0,427229.091,0.685,-0.678,0.192,0.187,0,0,0,0,0,0,0,0,0,0.000,0,0,0.085,0.002,-0.060,-0.060,0.000,0.015,0.995,0.011,0.000,-0.002,0.004,0.000,0.000,0.000,0.000,0,2,0,2,7,255,960,300,0,0,-89.593,0.564,-31.103
EX0521-092111,4,C06,prep,2196,2196,0,427234.092,0.685,-0.678,0.192,0.187,0,0,0,0,0,0,0,0,0,0.000,0,0,0.085,0.002,-0.060,-0.060,0.000,0.015,0.996,0.011,0.000,-0.002,0.004,0.000,0.000,0.000,0.000,0,2,0,2,7,255,960,300,0,0,-89.593,0.563,-31.103
EX0521-092111,4,C06,prep,2197,2197,0,427239.092,0.685,-0.678,0.192,0.187,0,0,0,0,0,0,0,0,0,0.000,0,0,0.060,0.004,0.000,-0.060,0.000,0.014,0.995,0.010,0.004,0.000,0.008,0.000,0.000,0.000,0.000,0,2,0,2,7,255,960,300,0,0,-89.593,0.563,-31.103
EX0521-092111,4,C06,prep,2197,2197,0,427244.091,0.685,-0.678,0.192,0.187,0,0,0,0,0,0,0,0,0,0.000,0,0,0.060,0.002,0.000,-0.060,0.000,0.014,0.996,0.012,0.000,-0.002,0.014,0.000,0.000,0.000,0.000,0,2,0,2,7,255,960,300,0,0,-89.594,0.562,-31.103
EX0521-092111,4,C06,prep,2239,2239,0,427249.092,0.685,-0.678,0.192,0.187,0,0,0,0,0,0,0,0,0,0.000,0,0,0.147,0.008,-0.060,-0.120,-0.060,0.014,0.996,0.010,0.000,0.008,0.012,0.000,0.000,0.000,0.000,0,2,0,2,7,255,960,300,0,0,-89.594,0.562,-31.103
EX0521-092111,4,C06,prep,2239,2239,0,427254.091,0.685,-0.678,0.192,0.187,0,0,0,0,0,0,0,0,0,0.000,0,0,0.085,0.002,-0.060,-0.060,0.000,0.015,0.994,0.011,0.000,0.002,0.012,0.000,0.000,0.000,0.000,0,2,0,2,7,255,960,300,0,0,-89.595,0.561,-31.103
EX0521-092111,4,C06,prep,2239,2239,0,427259.095,0.685,-0.678,0.192,0.187,0,0,0,0,0,0,0,0,0,0.000,0,0,0.000,0.003,0.000,0.000,0.000,0.015,0.995,0.011,0.002,0.002,0.004,0.000,0.000,0.000,0.000,0,2,0,2,7,255,960,300,0,0,-89.595,0.563,-31.103
EX0521-092111,4,C06,prep,2239,2239,0,427264.091,0.685,-0.678,0.192,0.187,0,0,0,0,0,0,0,0,0,0.000,0,0,0.100,0.004,0.000,-0.060,-0.080,0.015,0.996,0.010,0.004,0.002,0.004,0.000,0.000,0.000,0.000,0,2,0,2,7,255,960,300,0,0,-89.595,0.562,-31.103
EX0521-092111,4,C06,prep,2271,2271,0,427269.091,0.685,-0.678,0.192,0.187,0,0,0,0,0,0,0,0,0,0.000,0,0,0.060,0.004,0.000,-0.060,0.000,0.015,0.995,0.011,0.004,0.000,0.004,0.000,0.000,0.000,0.000,0,2,0,2,7,255,960,300,0,0,-89.596,0.563,-31.103
EX0521-092111,4,C06,prep,2271,2271,0,427274.092,0.685,-0.678,0.192,0.187,0,0,0,0,0,0,0,0,0,0.000,0,0,0.100,0.004,0.000,-0.060,-0.080,0.015,0.994,0.011,0.004,0.000,0.004,0.000,0.000,0.000,0.000,0,2,0,2,7,255,960,300,0,0,-89.596,0.564,-31.103
EX0521-092111,4,C06,prep,2271,2271,0,427279.091,0.685,-0.678,0.192,0.187,0,0,0,0,0,0,0,0,0,0.000,0,0,0.100,0.004,0.000,-0.060,-0.080,0.015,0.994,0.011,0.004,0.000,-0.002,0.000,0.000,0.000,0.000,0,2,0,2,7,255,960,300,0,0,-89.596,0.564,-31.103
EX0521-092111,4,C06,prep,2271,2271,0,427284.092,0.685,-0.678,0.192,0.187,0,0,0,0,0,0,0,0,0,0.000,0,0,0.156,0.003,-0.060,-0.120,-0.080,0.014,0.994,0.011,0.002,0.002,-0.006,0.000,0.000,0.000,0.000,0,2,0,2,7,255,960,300,0,0,-89.597,0.563,-31.103
EX0521-092111,4,C06,prep,2271,2271,0,427289.092,0.685,-0.678,0.192,0.187,0,0,0,0,0,0,0,0,0,0.000,0,0,0.060,0.004,0.000,-0.060,0.000,0.014,0.994,0.011,-0.004,0.002,-0.006,0.000,0.000,0.000,0.000,0,2,0,2,7,255,960,300,0,0,-89.597,0.563,-31.103
EX0521-092111,4,C06,prep,2271,2271,0,427294.091,0.685,-0.678,0.192,0.187,0,0,0,0,0,0,0,0,0,0.000,0,0,0.085,0.004,0.060,-0.060,0.000,0.014,0.994,0.011,-0.004,0.000,-0.006,0.000,0.000,0.000,0.000,0,2,0,2,7,255,960,300,0,0,-89.597,0.562,-31.103
EX0521-092111,4,C06,prep,2271,2271,0,427299.092,0.685,-0.678,0.192,0.187,0,0,0,0,0,0,0,0,0,0.000,0,0,0.100,0.004,0.000,-0.060,-0.080,0.015,0.994,0.012,-0.004,0.000,-0.006,0.000,0.000,0.000,0.000,0,2,0,2,7,255,960,300,0,0,-89.593,0.562,-31.103
EX0521-092111,4,C06,prep,2271,2271,0,427304.091,0.685,-0.678,0.192,0.187,0,0,0,0,0,0,0,0,0,0.000,0,0,0.100,0.004,0.000,-0.060,-0.080,0.014,0.995,0.011,-0.004,0.000,-0.006,0.000,0.000,0.000,0.000,0,2,0,2,7,255,960,300,0,0,-89.593,0.562,-31.103
EX0521-092111,4,C06,prep,2271,2271,0,427309.092,0.685,-0.678,0.192,0.187,0,0,0,0,0,0,0,0,0,0.000,0,0,0.060,0.007,-0.060,0.000,0.000,0.016,0.995,0.011,-0.004,-0.006,0.004,0.000,0.000,0.000,0.000,0,2,0,2,7,255,960,300,0,0,-89.594,0.563,-31.103
EX0521-092111,4,C06,prep,2271,2271,0,427314.092,0.685,-0.678,0.192,0.187,0,0,0,0,0,0,0,0,0,0.000,0,0,0.104,0.006,-0.060,-0.060,-0.060,0.014,0.994,0.010,0.000,0.006,0.004,0.000,0.000,0.000,0.000,0,2,0,2,7,255,960,300,0,0,-89.594,0.562,-31.103
EX0521-092111,4,C06,prep,2271,2271,0,427319.091,0.685,-0.678,0.192,0.187,0,0,0,0,0,0,0,0,0,0.000,0,0,0.060,0.011,0.000,-0.060,0.000,0.015,0.993,0.010,0.008,0.008,-0.006,0.000,0.000,0.000,0.000,0,2,0,2,7,255,960,300,0,0,-89.595,0.563,-31.103
EX0521-092111,4,C06,prep,2271,2271,0,427324.092,0.685,-0.678,0.192,0.187,0,0,0,0,0,0,0,0,0,0.000,0,0,0.085,0.008,-0.060,-0.060,0.000,0.014,0.994,0.012,0.000,0.008,-0.006,0.000,0.000,0.000,0.000,0,2,0,2,7,255,960,300,0,0,-89.595,0.563,-31.103
EX0521-092111,4,C06,prep,2287,2287,0,427329.091,0.685,-0.678,0.192,0.187,0,0,0,0,0,0,0,0,0,0.000,0,0,0.085,0.006,0.000,-0.060,0.060,0.014,0.994,0.012,-0.006,-0.002,-0.006,0.000,0.000,0.000,0.000,0,2,0,2,7,255,960,300,0,0,-89.595,0.562,-31.103
EX0521-092111,4,C06,prep,2287,2287,0,427334.092,0.685,-0.678,0.192,0.187,0,0,0,0,0,0,0,0,0,0.000,0,0,0.060,0.007,0.000,-0.060,0.000,0.014,0.995,0.012,-0.006,-0.004,-0.002,0.000,0.000,0.000,0.000,0,2,0,2,7,255,960,300,0,0,-89.596,0.562,-31.103
EX0521-092111,4,C06,prep,2322,2322,0,427339.092,0.685,-0.678,0.192,0.187,0,0,0,0,0,0,0,0,0,0.000,0,0,0.085,0.010,0.000,-0.060,-0.060,0.014,0.994,0.012,-0.010,-0.002,-0.002,0.000,0.000,0.000,0.000,0,2,0,2,7,255,960,300,0,0,-89.596,0.562,-31.103
EX0521-092111,4,C06,prep,2322,2322,0,427344.091,0.685,-0.678,0.192,0.187,0,0,0,0,0,0,0,0,0,0.000,0,0,0.060,0.006,0.000,-0.060,0.000,0.014,0.994,0.011,-0.006,-0.002,-0.002,0.000,0.000,0.000,0.000,0,2,0,2,7,255,960,300,0,0,-89.596,0.561,-31.103
EX0521-092111,4,C06,prep,2323,2323,0,427349.092,0.685,-0.678,0.192,0.187,0,0,0,0,0,0,0,0,0,0.000,0,0,0.104,0.008,-0.060,-0.060,-0.060,0.014,0.996,0.011,-0.008,0.002,-0.002,0.000,0.000,0.000,0.000,0,2,0,2,7,255,960,300,0,0,-89.597,0.561,-31.103
EX0521-092111,4,C06,prep,2323,2323,0,427354.091,0.685,-0.678,0.192,0.187,0,0,0,0,0,0,0,0,0,0.000,0,0,0.085,0.003,0.000,-0.060,-0.060,0.015,0.995,0.011,-0.002,0.002,0.004,0.000,0.000,0.000,0.000,0,2,0,2,7,255,960,300,0,0,-89.597,0.562,-31.103
EX0521-092111,4,C06,prep,2323,2323,0,427359.095,0.685,-0.678,0.192,0.187,0,0,0,0,0,0,0,0,0,0.000,0,0,0.000,0.003,0.000,0.000,0.000,0.015,0.994,0.011,0.002,0.002,0.004,0.000,0.000,0.000,0.000,0,2,0,2,7,255,960,300,0,0,-89.598,0.561,-31.103
EX0521-092111,4,C06,prep,2323,2323,0,427364.092,0.685,-0.678,0.192,0.187,0,0,0,0,0,0,0,0,0,0.000,0,0,0.060,0.006,0.000,-0.060,0.000,0.015,0.995,0.010,0.006,0.002,0.004,0.000,0.000,0.000,0.000,0,2,0,2,7,255,960,300,0,0,-89.598,0.562,-31.103
EX0521-092111,4,C06,prep,2336,2336,0,427369.091,0.685,-0.678,0.192,0.187,0,0,0,0,0,0,0,0,0,0.000,0,0,0.085,0.003,0.000,-0.060,-0.060,0.014,0.995,0.010,0.002,0.002,0.004,0.000,0.000,0.000,0.000,0,2,0,2,7,255,960,300,0,0,-89.598,0.562,-31.103
EX0521-092111,4,C06,prep,2336,2336,0,427374.092,0.685,-0.678,0.192,0.187,0,0,0,0,0,0,0,0,0,0.000,0,0,0.085,0.014,-0.060,-0.060,0.000,0.014,0.995,0.009,0.002,0.014,0.004,0.000,0.000,0.000,0.000,0,2,0,2,7,255,960,300,0,0,-89.599,0.561,-31.103
EX0521-092111,4,C06,prep,2336,2336,0,427379.091,0.685,-0.678,0.192,0.187,0,0,0,0,0,0,0,0,0,0.000,0,0,0.085,0.014,0.000,-0.060,-0.060,0.015,0.994,0.012,0.002,0.014,0.004,0.000,0.000,0.000,0.000,0,2,0,2,7,255,960,300,0,0,-89.599,0.563,-31.103
EX0521-092111,4,C06,prep,2336,2336,0,427384.092,0.685,-0.678,0.192,0.187,0,0,0,0,0,0,0,0,0,0.000,0,0,0.085,0.004,0.000,-0.060,0.060,0.014,0.995,0.011,0.002,0.004,0.004,0.000,0.000,0.000,0.000,0,2,0,2,7,255,960,300,0,0,-89.599,0.562,-31.103
EX0521-092111,4,C06,prep,2336,2336,0,427389.092,0.685,-0.678,0.192,0.187,0,0,0,0,0,0,0,0,0,0.000,0,0,0.134,0.004,0.000,-0.120,-0.060,0.015,0.994,0.011,0.000,-0.004,-0.002,0.000,0.000,0.000,0.000,0,2,0,2,7,255,960,300,0,0,-89.600,0.562,-31.103
EX0521-092111,4,C06,prep,2336,2336,0,427394.091,0.685,-0.678,0.192,0.187,0,0,0,0,0,0,0,0,0,0.000,0,0,0.085,0.004,0.000,-0.060,-0.060,0.015,0.994,0.011,0.000,-0.004,-0.006,0.000,0.000,0.000,0.000,0,2,0,2,7,255,960,300,0,0,-89.600,0.563,-31.103
EX0521-092111,4,C06,prep,2356,2356,0,427399.092,0.685,-0.678,0.192,0.187,0,0,0,0,0,0,0,0,0,0.000,0,0,0.085,0.004,0.000,-0.060,-0.060,0.014,0.995,0.011,0.000,-0.004,-0.006,0.000,0.000,0.000,0.000,0,2,0,2,7,255,960,300,0,0,-89.600,0.562,-31.103
EX0521-092111,4,C06,prep,2356,2356,0,427404.091,0.685,-0.678,0.192,0.187,0,0,0,0,0,0,0,0,0,0.000,0,0,0.085,0.006,0.000,-0.060,-0.060,0.014,0.994,0.012,-0.002,-0.006,-0.002,0.000,0.000,0.000,0.000,0,2,0,2,7,255,960,300,0,0,-89.601,0.562,-31.103
EX0521-092111,4,C06,prep,2357,2357,0,427409.092,0.685,-0.678,0.192,0.187,0,0,0,0,0,0,0,0,0,0.000,0,0,0.104,0.004,0.060,-0.060,0.060,0.014,0.995,0.011,-0.002,0.004,0.004,0.000,0.000,0.000,0.000,0,2,0,2,7,255,960,300,0,0,-89.601,0.561,-31.103
EX0521-092111,4,C06,prep,2357,2357,0,427414.091,0.685,-0.678,0.192,0.187,0,0,0,0,0,0,0,0,0,0.000,0,0,0.085,0.003,-0.060,-0.060,0.000,0.015,0.993,0.010,-0.002,0.002,-0.002,0.000,0.000,0.000,0.000,0,2,0,2,7,255,960,300,0,0,-89.602,0.562,-31.103
EX0521-092111,4,C06,prep,2367,2367,0,427419.091,0.684,-0.678,0.192,0.187,0,0,0,0,0,0,0,0,0,0.000,0,0,0.060,0.003,0.000,-0.060,0.000,0.014,0.994,0.011,-0.002,0.002,-0.002,0.000,0.000,0.000,0.000,0,2,0,2,7,255,960,300,0,0,-89.602,0.562,-31.103
EX0521-092111,4,C06,prep,2367,2367,0,427424.092,0.684,-0.678,0.192,0.187,0,0,0,0,0,0,0,0,0,0.000,0,0,0.060,0.003,0.000,-0.060,0.000,0.014,0.996,0.011,-0.002,0.002,-0.002,0.000,0.000,0.000,0.000,0,2,0,2,7,255,960,300,0,0,-89.602,0.562,-31.103
EX0521-092111,4,C06,prep,2394,2394,0,427429.091,0.684,-0.678,0.192,0.187,0,0,0,0,0,0,0,0,0,0.000,0,0,0.085,0.003,-0.060,-0.060,0.000,0.016,0.994,0.010,-0.002,0.002,-0.002,0.000,0.000,0.000,0.000,0,2,0,2,7,255,960,300,0,0,-89.603,0.563,-31.103
EX0521-092111,4,C06,prep,2394,2394,0,427434.092,0.684,-0.678,0.192,0.187,0,0,0,0,0,0,0,0,0,0.000,0,0,0.060,0.003,0.000,-0.060,0.000,0.014,0.994,0.011,-0.002,0.002,-0.002,0.000,0.000,0.000,0.000,0,2,0,2,7,255,960,300,0,0,-89.603,0.562,-31.103
EX0521-092111,4,C06,prep,2395,2395,0,427439.092,0.684,-0.678,0.192,0.187,0,0,0,0,0,0,0,0,0,0.000,0,0,0.060,0.003,0.000,-0.060,0.000,0.015,0.993,0.012,-0.002,0.002,-0.006,0.000,0.000,0.000,0.000,0,2,0,2,7,255,960,300,0,0,-89.603,0.562,-31.103
EX0521-092111,4,C06,prep,2395,2395,0,427444.091,0.684,-0.678,0.192,0.187,0,0,0,0,0,0,0,0,0,0.000,0,0,0.085,0.006,0.000,-0.060,-0.060,0.015,0.994,0.011,-0.002,-0.006,-0.006,0.000,0.000,0.000,0.000,0,2,0,2,7,255,960,300,0,0,-89.604,0.563,-31.103
EX0521-092111,4,C06,prep,2417,2417,0,427449.092,0.684,-0.678,0.192,0.187,0,0,0,0,0,0,0,0,0,0.000,0,0,0.085,0.007,-0.060,0.000,-0.060,0.016,0.995,0.011,0.004,-0.006,-0.002,0.000,0.000,0.000,0.000,0,2,0,2,7,255,960,300,0,0,-89.604,0.564,-31.103
EX0521-092111,4,C06,prep,2417,2417,0,427454.091,0.684,-0.678,0.192,0.187,0,0,0,0,0,0,0,0,0,0.000,0,0,0.060,0.006,0.000,-0.060,0.000,0.013,0.995,0.011,0.004,-0.004,0.004,0.000,0.000,0.000,0.000,0,2,0,2,7,255,960,300,0,0,-89.604,0.564,-31.103
EX0521-092111,4,C06,prep,2418,2418,0,427459.095,0.684,-0.678,0.192,0.187,0,0,0,0,0,0,0,0,0,0.000,0,0,0.060,0.002,0.000,-0.060,0.000,0.015,0.994,0.011,0.002,0.000,0.004,0.000,0.000,0.000,0.000,0,2,0,2,7,255,960,300,0,0,-89.605,0.563,-31.103
EX0521-092111,4,C06,prep,2418,2418,0,427464.092,0.684,-0.678,0.192,0.187,0,0,0,0,0,0,0,0,0,0.000,0,0,0.060,0.003,0.000,-0.060,0.000,0.015,0.994,0.010,0.002,0.002,-0.002,0.000,0.000,0.000,0.000,0,2,0,2,7,255,960,300,0,0,-89.605,0.564,-31.103
EX0521-092111,4,C06,prep,2418,2418,0,427469.091,0.684,-0.678,0.192,0.187,0,0,0,0,0,0,0,0,0,0.000,0,0,0.085,0.003,0.000,-0.060,-0.060,0.014,0.994,0.011,0.002,0.002,-0.002,0.000,0.000,0.000,0.000,0,2,0,2,7,255,960,300,0,0,-89.606,0.564,-31.103
EX0521-092111,4,C06,prep,2418,2418,0,427474.092,0.684,-0.678,0.192,0.187,0,0,0,0,0,0,0,0,0,0.000,0,0,0.120,0.004,0.000,-0.120,0.000,0.014,0.995,0.010,0.000,0.004,-0.002,0.000,0.000,0.000,0.000,0,2,0,2,7,255,960,300,0,0,-89.606,0.563,-31.103
EX0521-092111,4,C06,prep,2431,2431,0,427479.091,0.684,-0.678,0.192,0.187,0,0,0,0,0,0,0,0,0,0.000,0,0,0.060,0.007,0.000,-0.060,0.000,0.014,0.995,0.011,-0.006,0.004,0.004,0.000,0.000,0.000,0.000,0,2,0,2,7,255,960,300,0,0,-89.606,0.563,-31.103
EX0521-092111,4,C06,prep,2431,2431,0,427484.092,0.684,-0.678,0.192,0.187,0,0,0,0,0,0,0,0,0,0.000,0,0,0.060,0.010,0.000,-0.060,0.000,0.014,0.994,0.011,-0.010,0.000,0.004,0.000,0.000,0.000,0.000,0,2,0,2,7,255,960,300,0,0,-89.607,0.563,-31.103
EX0521-092111,4,C06,prep,2452,2452,0,427489.092,0.684,-0.678,0.192,0.187,0,0,0,0,0,0,0,0,0,0.000,0,0,0.134,0.010,-0.060,-0.120,0.000,0.014,0.994,0.011,-0.010,0.000,-0.002,0.000,0.000,0.000,0.000,0,2,0,2,7,255,960,300,0,0,-89.607,0.562,-31.103
EX0521-092111,4,C06,prep,2452,2452,0,427494.091,0.684,-0.678,0.192,0.187,0,0,0,0,0,0,0,0,0,0.000,0,0,0.000,0.010,0.000,0.000,0.000,0.014,0.995,0.012,-0.010,-0.002,-0.002,0.000,0.000,0.000,0.000,0,2,0,2,7,255,960,300,0,0,-89.603,0.562,-31.103
EX0521-092111,4,C06,prep,2452,2452,0,427499.092,0.684,-0.678,0.192,0.187,0,0,0,0,0,0,0,0,0,0.000,0,0,0.104,0.008,-0.060,-0.060,-0.060,0.015,0.994,0.011,-0.006,-0.006,-0.002,0.000,0.000,0.000,0.000,0,2,0,2,7,255,960,300,0,0,-89.603,0.563,-31.103
EX0521-092111,4,C06,prep,2452,2452,0,427504.091,0.684,-0.678,0.192,0.187,0,0,0,0,0,0,0,0,0,0.000,0,0,0.060,0.006,0.000,-0.060,0.000,0.015,0.995,0.011,0.002,-0.006,0.004,0.000,0.000,0.000,0.000,0,2,0,2,7,255,960,300,0,0,-89.603,0.562,-31.103
EX0521-092111,4,C06,prep,2463,2463,0,427509.092,0.684,-0.678,0.192,0.187,0,0,0,0,0,0,0,0,0,0.000,0,0,0.085,0.006,-0.060,-0.060,0.000,0.015,0.994,0.012,0.002,-0.006,-0.002,0.000,0.000,0.000,0.000,0,2,0,2,7,255,960,300,0,0,-89.604,0.562,-31.103
EX0521-092111,4,C06,prep,2463,2463,0,427514.092,0.684,-0.678,0.192,0.187,0,0,0,0,0,0,0,0,0,0.000,0,0,0.085,0.000,-0.060,-0.060,0.000,0.014,0.995,0.010,0.000,0.000,0.004,0.000,0.000,0.000,0.000,0,2,0,2,7,255,960,300,0,0,-89.604,0.561,-31.103
EX0521-092111,4,C06,prep,2484,2484,0,427519.091,0.684,-0.678,0.192,0.187,0,0,0,0,0,0,0,0,0,0.000,0,0,0.085,0.003,0.000,-0.060,-0.060,0.014,0.996,0.011,-0.002,0.002,0.008,0.000,0.000,0.000,0.000,0,2,0,2,7,255,960,300,0,0,-89.604,0.561,-31.103
