experiment_id,condition_order_index,condition_id,condition_phase,condition_phase_elapsed_ms,condition_elapsed_ms,is_stimulation_on,t_ms,R_q0,R_q1,R_q2,R_q3,R_heel1,R_mid1,R_fore1,R_heel2,R_fore3,R_mid2,R_fore4,R_fore2,R_cadence,R_speed,R_steps,R_zupt,R_gyroNorm,R_accH,R_gyro_x,R_gyro_y,R_gyro_z,R_acc_x,R_acc_y,R_acc_z,R_nav_ax,R_nav_ay,R_nav_az,R_stepVel,R_stepVelj,R_stepDispRaw,R_stepDispZUPT,R_gaitEvent,R_motorMode,R_motorActive,R_motorAlignment,R_motorRegionMask,R_motorAmplitude,R_motorIntervalMs,R_motorDurationMs,R_motorPhaseMs,R_motorCycleMs,R_roll,R_pitch,R_yaw
EX0521-092111,19,C13,prep,72,72,0,934529.092,0.686,-0.676,0.196,0.188,0,0,0,0,0,0,0,0,0,0.000,0,0,0.491,0.002,-0.460,-0.100,0.140,0.016,0.985,0.015,0.000,0.002,0.008,0.000,0.000,0.000,0.000,0,2,0,3,7,255,960,300,0,0,-89.378,0.811,-31.465
EX0521-092111,19,C13,prep,72,72,0,934534.091,0.686,-0.676,0.196,0.188,0,0,0,0,0,0,0,0,0,0.000,0,0,0.637,0.002,-0.580,-0.040,0.260,0.013,1.000,0.010,0.000,0.002,0.008,0.000,0.000,0.000,0.000,0,2,0,3,7,255,960,300,0,0,-89.375,0.811,-31.465
EX0521-092111,19,C13,prep,73,73,0,934539.092,0.686,-0.676,0.196,0.188,0,0,0,0,0,0,0,0,0,0.000,0,0,1.288,0.018,1.140,0.020,-0.600,0.014,0.999,0.009,0.000,0.018,0.042,0.000,0.000,0.000,0.000,0,2,0,3,7,255,960,300,0,0,-89.381,0.808,-31.465
EX0521-092111,19,C13,prep,73,73,0,934544.092,0.686,-0.676,0.196,0.188,0,0,0,0,0,0,0,0,0,0.000,0,0,0.449,0.020,-0.400,-0.040,0.200,0.017,0.980,0.014,0.008,0.018,0.042,0.000,0.000,0.000,0.000,0,2,0,3,7,255,960,300,0,0,-89.381,0.808,-31.465
EX0521-092111,19,C13,prep,73,73,0,934549.092,0.686,-0.676,0.196,0.188,0,0,0,0,0,0,0,0,0,0.000,0,0,0.748,0.018,-0.700,-0.040,0.260,0.012,1.010,0.011,0.008,0.016,0.042,0.000,0.000,0.000,0.000,0,2,0,3,7,255,960,300,0,0,-89.378,0.808,-31.465
EX0521-092111,19,C13,prep,73,73,0,934554.092,0.686,-0.676,0.195,0.188,0,0,0,0,0,0,0,0,0,0.000,0,0,2.066,0.011,1.860,0.020,-0.900,0.016,0.987,0.010,0.010,-0.004,-0.068,0.000,0.000,0.000,0.000,0,2,0,3,7,255,960,300,0,0,-89.387,0.803,-31.465
EX0521-092111,19,C13,prep,73,73,0,934559.093,0.686,-0.676,0.196,0.188,0,0,0,0,0,0,0,0,0,0.000,0,0,2.358,0.006,-2.100,-0.160,1.060,0.015,0.985,0.012,0.004,-0.004,-0.068,0.000,0.000,0.000,0.000,0,2,0,3,7,255,960,300,0,0,-89.376,0.809,-31.465
EX0521-092111,19,C13,prep,73,73,0,934564.091,0.686,-0.676,0.195,0.188,0,0,0,0,0,0,0,0,0,0.000,0,0,1.855,0.009,1.620,0.080,-0.900,0.013,1.009,0.007,0.008,-0.004,-0.068,0.000,0.000,0.000,0.000,0,2,0,3,7,255,960,300,0,0,-89.385,0.804,-31.465
EX0521-092111,19,C13,prep,74,74,0,934569.092,0.686,-0.676,0.195,0.188,0,0,0,0,0,0,0,0,0,0.000,0,0,0.503,0.013,-0.460,-0.040,0.200,0.017,0.971,0.017,0.004,-0.012,-0.088,0.000,0.000,0.000,0.000,0,2,0,3,7,255,960,300,0,0,-89.379,0.804,-31.465
EX0521-092111,19,C13,prep,74,74,0,934574.091,0.686,-0.676,0.195,0.188,0,0,0,0,0,0,0,0,0,0.000,0,0,0.831,0.042,-0.760,-0.100,0.320,0.012,1.016,0.007,0.006,0.042,0.146,0.000,0.000,0.000,0.000,0,2,0,3,7,255,960,300,0,0,-89.375,0.804,-31.465
EX0521-092111,19,C13,prep,86,86,0,934579.091,0.686,-0.676,0.195,0.188,0,0,0,0,0,0,0,0,0,0.000,0,0,2.041,0.032,1.860,0.020,-0.840,0.014,0.984,0.015,0.000,-0.032,-0.102,0.000,0.000,0.000,0.000,0,2,0,3,7,255,960,300,0,0,-89.385,0.800,-31.465
EX0521-092111,19,C13,prep,86,86,0,934584.092,0.686,-0.676,0.195,0.188,0,0,0,0,0,0,0,0,0,0.000,0,0,2.679,0.040,-2.400,-0.160,1.180,0.016,0.989,0.005,0.006,0.040,-0.054,0.000,0.000,0.000,0.000,0,2,0,3,7,255,960,300,0,0,-89.374,0.806,-31.465
EX0521-092111,19,C13,prep,86,86,0,934589.091,0.686,-0.676,0.195,0.188,0,0,0,0,0,0,0,0,0,0.000,0,0,1.908,0.021,1.680,0.080,-0.900,0.013,1.005,0.013,-0.018,-0.010,-0.054,0.000,0.000,0.000,0.000,0,2,0,3,7,255,960,300,0,0,-89.383,0.801,-31.465
EX0521-092111,19,C13,prep,86,86,0,934594.091,0.686,-0.676,0.195,0.188,0,0,0,0,0,0,0,0,0,0.000,0,0,0.803,0.032,-0.700,-0.100,0.380,0.018,0.976,0.011,0.030,-0.010,-0.054,0.000,0.000,0.000,0.000,0,2,0,3,7,255,960,300,0,0,-89.379,0.801,-31.465
EX0521-092111,19,C13,prep,95,95,0,934599.092,0.686,-0.676,0.195,0.188,0,0,0,0,0,0,0,0,0,0.000,0,0,0.526,0.021,-0.520,0.080,0.020,0.013,1.013,0.012,-0.018,-0.010,0.108,0.000,0.000,0.000,0.000,0,2,0,3,7,255,960,300,0,0,-89.379,0.801,-31.465
EX0521-092111,19,C13,prep,95,95,0,934604.091,0.686,-0.676,0.195,0.188,0,0,0,0,0,0,0,0,0,0.000,0,0,1.701,0.016,1.560,-0.160,-0.660,0.015,0.984,0.013,-0.002,-0.016,-0.102,0.000,0.000,0.000,0.000,0,2,0,3,7,255,960,300,0,0,-89.387,0.798,-31.465
EX0521-092111,19,C13,prep,95,95,0,934609.093,0.686,-0.676,0.195,0.188,0,0,0,0,0,0,0,0,0,0.000,0,0,2.104,0.004,-1.920,-0.040,0.860,0.015,0.988,0.008,-0.002,0.004,-0.060,0.000,0.000,0.000,0.000,0,2,0,3,7,255,960,300,0,0,-89.378,0.802,-31.465
EX0521-092111,19,C13,prep,95,95,0,934614.092,0.686,-0.676,0.195,0.188,0,0,0,0,0,0,0,0,0,0.000,0,0,1.506,0.002,1.320,0.080,-0.720,0.012,1.001,0.013,-0.002,0.000,-0.060,0.000,0.000,0.000,0.000,0,2,0,3,7,255,960,300,0,0,-89.384,0.799,-31.465
EX0521-092111,19,C13,prep,122,122,0,934619.091,0.686,-0.676,0.195,0.188,0,0,0,0,0,0,0,0,0,0.000,0,0,0.826,0.024,-0.640,-0.280,0.440,0.017,0.982,0.011,0.024,0.000,-0.060,0.000,0.000,0.000,0.000,0,2,0,3,7,255,960,300,0,0,-89.381,0.799,-31.465
EX0521-092111,19,C13,prep,122,122,0,934624.092,0.686,-0.676,0.195,0.188,0,0,0,0,0,0,0,0,0,0.000,0,0,0.264,0.000,-0.220,0.140,-0.040,0.014,1.004,0.011,0.000,0.000,0.070,0.000,0.000,0.000,0.000,0,2,0,3,7,255,960,300,0,0,-89.381,0.799,-31.465
EX0521-092111,19,C13,prep,122,122,0,934629.092,0.686,-0.676,0.195,0.188,0,0,0,0,0,0,0,0,0,0.000,0,0,0.817,0.010,0.700,-0.040,-0.420,0.013,0.993,0.015,0.000,-0.010,-0.016,0.000,0.000,0.000,0.000,0,2,0,3,7,255,960,300,0,0,-89.385,0.799,-31.465
EX0521-092111,19,C13,prep,122,122,0,934634.091,0.686,-0.676,0.195,0.188,0,0,0,0,0,0,0,0,0,0.000,0,0,1.351,0.006,-1.180,-0.220,0.620,0.016,0.988,0.009,0.000,0.006,-0.016,0.000,0.000,0.000,0.000,0,2,0,3,7,255,960,300,0,0,-89.379,0.802,-31.465
EX0521-092111,19,C13,prep,122,122,0,934639.092,0.686,-0.676,0.195,0.188,0,0,0,0,0,0,0,0,0,0.000,0,0,1.257,0.021,1.060,0.140,-0.660,0.013,1.000,0.013,-0.018,-0.010,-0.016,0.000,0.000,0.000,0.000,0,2,0,3,7,255,960,300,0,0,-89.384,0.799,-31.465
EX0521-092111,19,C13,prep,122,122,0,934644.092,0.686,-0.676,0.195,0.188,0,0,0,0,0,0,0,0,0,0.000,0,0,0.716,0.012,-0.640,0.020,0.320,0.016,0.988,0.013,0.006,-0.010,-0.064,0.000,0.000,0.000,0.000,0,2,0,3,7,255,960,300,0,0,-89.381,0.799,-31.465
EX0521-092111,19,C13,prep,127,127,0,934649.092,0.686,-0.676,0.195,0.188,0,0,0,0,0,0,0,0,0,0.000,0,0,0.435,0.016,-0.400,-0.100,0.140,0.012,1.000,0.011,-0.012,-0.010,0.056,0.000,0.000,0.000,0.000,0,2,0,3,7,255,960,300,0,0,-89.381,0.799,-31.465
EX0521-092111,19,C13,prep,127,127,0,934654.092,0.686,-0.676,0.195,0.188,0,0,0,0,0,0,0,0,0,0.000,0,0,1.030,0.012,0.940,0.020,-0.420,0.015,0.988,0.012,0.000,-0.012,-0.064,0.000,0.000,0.000,0.000,0,2,0,3,7,255,960,300,0,0,-89.386,0.799,-31.465
EX0521-092111,19,C13,prep,143,143,0,934659.091,0.686,-0.676,0.195,0.188,0,0,0,0,0,0,0,0,0,0.000,0,0,0.636,0.016,-0.580,0.020,0.260,0.013,0.997,0.010,0.000,0.016,0.028,0.000,0.000,0.000,0.000,0,2,0,3,7,255,960,300,0,0,-89.383,0.799,-31.465
EX0521-092111,19,C13,prep,143,143,0,934664.091,0.686,-0.676,0.195,0.188,0,0,0,0,0,0,0,0,0,0.000,0,0,0.205,0.002,-0.080,-0.100,-0.160,0.013,0.999,0.012,0.000,0.002,0.028,0.000,0.000,0.000,0.000,0,2,0,3,7,255,960,300,0,0,-89.383,0.799,-31.465
EX0521-092111,19,C13,prep,159,159,0,934669.092,0.686,-0.676,0.195,0.188,0,0,0,0,0,0,0,0,0,0.000,0,0,0.180,0.002,-0.020,-0.160,0.080,0.016,0.983,0.012,0.000,0.002,0.028,0.000,0.000,0.000,0.000,0,2,0,3,7,255,960,300,0,0,-89.383,0.799,-31.465
EX0521-092111,19,C13,prep,159,159,0,934674.091,0.686,-0.676,0.195,0.188,0,0,0,0,0,0,0,0,0,0.000,0,0,0.603,0.003,0.580,-0.040,-0.160,0.013,1.000,0.009,0.002,0.002,0.046,0.000,0.000,0.000,0.000,0,2,0,3,7,255,960,300,0,0,-89.386,0.799,-31.465
EX0521-092111,19,C13,prep,159,159,0,934679.091,0.686,-0.676,0.195,0.188,0,0,0,0,0,0,0,0,0,0.000,0,0,0.284,0.015,-0.280,0.020,-0.040,0.015,0.990,0.012,0.004,-0.014,-0.040,0.000,0.000,0.000,0.000,0,2,0,3,7,255,960,300,0,0,-89.386,0.799,-31.465
EX0521-092111,19,C13,prep,159,159,0,934684.092,0.686,-0.676,0.195,0.188,0,0,0,0,0,0,0,0,0,0.000,0,0,0.771,0.014,-0.700,-0.040,0.320,0.015,0.993,0.014,0.002,-0.014,-0.014,0.000,0.000,0.000,0.000,0,2,0,3,7,255,960,300,0,0,-89.382,0.799,-31.465
EX0521-092111,19,C13,prep,175,175,0,934689.091,0.686,-0.676,0.195,0.188,0,0,0,0,0,0,0,0,0,0.000,0,0,0.849,0.014,0.820,0.020,-0.220,0.014,0.999,0.011,0.000,-0.014,-0.014,0.000,0.000,0.000,0.000,0,2,0,3,7,255,960,300,0,0,-89.386,0.799,-31.465
EX0521-092111,19,C13,prep,175,175,0,934694.092,0.686,-0.676,0.195,0.188,0,0,0,0,0,0,0,0,0,0.000,0,0,0.426,0.002,-0.400,-0.040,0.140,0.014,0.989,0.010,0.000,0.002,-0.014,0.000,0.000,0.000,0.000,0,2,0,3,7,255,960,300,0,0,-89.386,0.799,-31.465
EX0521-092111,19,C13,prep,207,207,0,934699.092,0.686,-0.676,0.195,0.188,0,0,0,0,0,0,0,0,0,0.000,0,0,0.363,0.002,-0.340,-0.100,0.080,0.014,0.994,0.013,0.000,0.002,-0.006,0.000,0.000,0.000,0.000,0,2,0,3,7,255,960,300,0,0,-89.386,0.799,-31.465
EX0521-092111,19,C13,prep,207,207,0,934704.091,0.686,-0.676,0.195,0.188,0,0,0,0,0,0,0,0,0,0.000,0,0,0.738,0.013,0.700,0.080,-0.220,0.014,0.993,0.013,-0.006,-0.012,-0.010,0.000,0.000,0.000,0.000,0,2,0,3,7,255,960,300,0,0,-89.390,0.799,-31.465
EX0521-092111,19,C13,prep,207,207,0,934709.093,0.686,-0.676,0.195,0.188,0,0,0,0,0,0,0,0,0,0.000,0,0,0.396,0.013,-0.340,-0.040,0.200,0.014,0.996,0.011,-0.006,-0.012,-0.006,0.000,0.000,0.000,0.000,0,2,0,3,7,255,960,300,0,0,-89.390,0.799,-31.465
EX0521-092111,19,C13,prep,207,207,0,934714.092,0.686,-0.676,0.195,0.188,0,0,0,0,0,0,0,0,0,0.000,0,0,0.208,0.013,-0.200,-0.040,-0.040,0.014,0.996,0.013,-0.006,-0.012,0.014,0.000,0.000,0.000,0.000,0,2,0,3,7,255,960,300,0,0,-89.390,0.799,-31.465
EX0521-092111,19,C13,prep,207,207,0,934719.091,0.686,-0.676,0.195,0.188,0,0,0,0,0,0,0,0,0,0.000,0,0,0.224,0.012,0.220,0.020,-0.040,0.015,0.990,0.012,0.000,-0.012,0.014,0.000,0.000,0.000,0.000,0,2,0,3,7,255,960,300,0,0,-89.390,0.799,-31.465
EX0521-092111,19,C13,prep,207,207,0,934724.092,0.686,-0.676,0.195,0.188,0,0,0,0,0,0,0,0,0,0.000,0,0,0.193,0.012,0.160,-0.100,-0.040,0.014,0.995,0.011,0.000,-0.012,0.008,0.000,0.000,0.000,0.000,0,2,0,3,7,255,960,300,0,0,-89.390,0.799,-31.465
EX0521-092111,19,C13,prep,229,229,0,934729.092,0.686,-0.676,0.195,0.188,0,0,0,0,0,0,0,0,0,0.000,0,0,0.208,0.008,-0.200,-0.040,-0.040,0.014,0.993,0.012,0.000,-0.008,-0.010,0.000,0.000,0.000,0.000,0,2,0,3,7,255,960,300,0,0,-89.390,0.799,-31.465
EX0521-092111,19,C13,prep,229,229,0,934734.091,0.686,-0.676,0.195,0.188,0,0,0,0,0,0,0,0,0,0.000,0,0,0.130,0.009,-0.020,-0.100,0.080,0.014,0.993,0.013,-0.004,-0.008,-0.010,0.000,0.000,0.000,0.000,0,2,0,3,7,255,960,300,0,0,-89.390,0.799,-31.465
EX0521-092111,19,C13,prep,229,229,0,934739.092,0.686,-0.676,0.195,0.188,0,0,0,0,0,0,0,0,0,0.000,0,0,0.489,0.009,0.460,-0.040,-0.160,0.014,0.996,0.011,-0.004,-0.008,-0.010,0.000,0.000,0.000,0.000,0,2,0,3,7,255,960,300,0,0,-89.390,0.799,-31.465
EX0521-092111,19,C13,prep,230,230,0,934744.091,0.686,-0.676,0.195,0.188,0,0,0,0,0,0,0,0,0,0.000,0,0,0.528,0.006,-0.520,-0.040,0.080,0.015,0.992,0.011,0.000,-0.006,-0.010,0.000,0.000,0.000,0.000,0,2,0,3,7,255,960,300,0,0,-89.390,0.799,-31.465
EX0521-092111,19,C13,prep,230,230,0,934749.092,0.686,-0.676,0.195,0.188,0,0,0,0,0,0,0,0,0,0.000,0,0,0.147,0.008,-0.140,-0.040,0.020,0.016,0.993,0.013,0.006,-0.006,-0.010,0.000,0.000,0.000,0.000,0,2,0,3,7,255,960,300,0,0,-89.390,0.799,-31.465
EX0521-092111,19,C13,prep,230,230,0,934754.092,0.686,-0.676,0.195,0.188,0,0,0,0,0,0,0,0,0,0.000,0,0,0.413,0.008,0.400,0.020,-0.100,0.015,0.993,0.012,0.006,-0.006,-0.014,0.000,0.000,0.000,0.000,0,2,0,3,7,255,960,300,0,0,-89.390,0.799,-31.465
EX0521-092111,19,C13,prep,239,239,0,934759.094,0.686,-0.676,0.195,0.188,0,0,0,0,0,0,0,0,0,0.000,0,0,0.183,0.008,-0.160,-0.040,0.080,0.015,0.994,0.011,0.006,-0.006,-0.010,0.000,0.000,0.000,0.000,0,2,0,3,7,255,960,300,0,0,-89.390,0.799,-31.465
EX0521-092111,19,C13,prep,239,239,0,934764.092,0.686,-0.676,0.195,0.188,0,0,0,0,0,0,0,0,0,0.000,0,0,0.170,0.006,-0.160,-0.040,-0.040,0.015,0.993,0.012,0.002,-0.006,-0.014,0.000,0.000,0.000,0.000,0,2,0,3,7,255,960,300,0,0,-89.390,0.799,-31.465
EX0521-092111,19,C13,prep,259,259,0,934769.092,0.686,-0.676,0.195,0.188,0,0,0,0,0,0,0,0,0,0.000,0,0,0.357,0.013,0.340,-0.040,-0.100,0.016,0.993,0.012,0.008,-0.010,-0.014,0.000,0.000,0.000,0.000,0,2,0,3,7,255,960,300,0,0,-89.390,0.799,-31.465
EX0521-092111,19,C13,prep,259,259,0,934774.091,0.686,-0.676,0.195,0.188,0,0,0,0,0,0,0,0,0,0.000,0,0,0.085,0.016,-0.080,0.020,0.020,0.015,0.995,0.011,0.012,-0.010,-0.014,0.000,0.000,0.000,0.000,0,2,0,3,7,255,960,300,0,0,-89.390,0.799,-31.465
EX0521-092111,19,C13,prep,260,260,0,934779.092,0.686,-0.676,0.195,0.188,0,0,0,0,0,0,0,0,0,0.000,0,0,0.284,0.012,-0.280,-0.040,0.020,0.015,0.994,0.011,0.012,-0.002,-0.004,0.000,0.000,0.000,0.000,0,2,0,3,7,255,960,300,0,0,-89.390,0.799,-31.465
EX0521-092111,19,C13,prep,260,260,0,934784.092,0.686,-0.676,0.195,0.188,0,0,0,0,0,0,0,0,0,0.000,0,0,0.110,0.004,0.040,0.020,-0.100,0.014,0.993,0.012,0.004,-0.002,-0.004,0.000,0.000,0.000,0.000,0,2,0,3,7,255,960,300,0,0,-89.390,0.799,-31.465
EX0521-092111,19,C13,prep,271,271,0,934789.091,0.686,-0.676,0.195,0.188,0,0,0,0,0,0,0,0,0,0.000,0,0,0.147,0.003,0.100,-0.040,-0.100,0.014,0.995,0.011,0.002,-0.002,-0.004,0.000,0.000,0.000,0.000,0,2,0,3,7,255,960,300,0,0,-89.390,0.799,-31.465
EX0521-092111,19,C13,prep,271,271,0,934794.092,0.686,-0.676,0.195,0.188,0,0,0,0,0,0,0,0,0,0.000,0,0,0.224,0.003,-0.220,-0.040,0.020,0.015,0.994,0.011,0.002,-0.002,0.000,0.000,0.000,0.000,0.000,0,2,0,3,7,255,960,300,0,0,-89.390,0.799,-31.465
EX0521-092111,19,C13,prep,303,303,0,934799.092,0.686,-0.676,0.195,0.188,0,0,0,0,0,0,0,0,0,0.000,0,0,0.115,0.003,0.040,-0.100,-0.040,0.014,0.994,0.012,0.002,-0.002,0.000,0.000,0.000,0.000,0.000,0,2,0,3,7,255,960,300,0,0,-89.390,0.799,-31.465
EX0521-092111,19,C13,prep,303,303,0,934804.091,0.686,-0.676,0.195,0.188,0,0,0,0,0,0,0,0,0,0.000,0,0,0.227,0.004,0.220,-0.040,-0.040,0.014,0.994,0.010,0.004,-0.002,0.000,0.000,0.000,0.000,0.000,0,2,0,3,7,255,960,300,0,0,-89.390,0.799,-31.465
EX0521-092111,19,C13,prep,303,303,0,934809.095,0.686,-0.676,0.195,0.188,0,0,0,0,0,0,0,0,0,0.000,0,0,0.292,0.004,-0.280,0.020,0.080,0.015,0.993,0.011,0.004,-0.002,-0.004,0.000,0.000,0.000,0.000,0,2,0,3,7,255,960,300,0,0,-89.390,0.799,-31.465
EX0521-092111,19,C13,prep,303,303,0,934814.091,0.686,-0.676,0.195,0.188,0,0,0,0,0,0,0,0,0,0.000,0,0,0.049,0.004,-0.020,0.020,-0.040,0.014,0.994,0.012,0.004,-0.002,-0.004,0.000,0.000,0.000,0.000,0,2,0,3,7,255,960,300,0,0,-89.390,0.799,-31.465
EX0521-092111,19,C13,prep,303,303,0,934819.091,0.686,-0.676,0.195,0.188,0,0,0,0,0,0,0,0,0,0.000,0,0,0.227,0.004,0.220,-0.040,-0.040,0.013,0.994,0.011,-0.004,-0.002,-0.004,0.000,0.000,0.000,0.000,0,2,0,3,7,255,960,300,0,0,-89.390,0.799,-31.465
EX0521-092111,19,C13,prep,303,303,0,934824.092,0.686,-0.676,0.195,0.188,0,0,0,0,0,0,0,0,0,0.000,0,0,0.130,0.004,-0.080,-0.100,0.020,0.015,0.995,0.011,-0.004,0.002,-0.004,0.000,0.000,0.000,0.000,0,2,0,3,7,255,960,300,0,0,-89.390,0.799,-31.465
EX0521-092111,19,C13,prep,328,328,0,934829.091,0.686,-0.676,0.195,0.188,0,0,0,0,0,0,0,0,0,0.000,0,0,0.130,0.004,-0.080,-0.100,0.020,0.015,0.993,0.012,0.004,0.002,-0.004,0.000,0.000,0.000,0.000,0,2,0,3,7,255,960,300,0,0,-89.391,0.799,-31.465
EX0521-092111,19,C13,prep,328,328,0,934834.092,0.686,-0.676,0.195,0.188,0,0,0,0,0,0,0,0,0,0.000,0,0,0.170,0.004,0.160,-0.040,-0.040,0.014,0.993,0.011,0.004,0.000,-0.008,0.000,0.000,0.000,0.000,0,2,0,3,7,255,960,300,0,0,-89.391,0.799,-31.465
EX0521-092111,19,C13,prep,329,329,0,934839.092,0.686,-0.676,0.195,0.188,0,0,0,0,0,0,0,0,0,0.000,0,0,0.049,0.000,-0.020,0.020,-0.040,0.013,0.995,0.010,0.000,0.000,-0.008,0.000,0.000,0.000,0.000,0,2,0,3,7,255,960,300,0,0,-89.391,0.799,-31.465
EX0521-092111,19,C13,prep,329,329,0,934844.091,0.686,-0.676,0.195,0.188,0,0,0,0,0,0,0,0,0,0.000,0,0,0.166,0.003,-0.160,0.020,-0.040,0.014,0.994,0.011,-0.002,0.002,-0.004,0.000,0.000,0.000,0.000,0,2,0,3,7,255,960,300,0,0,-89.391,0.799,-31.465
EX0521-092111,19,C13,prep,330,330,0,934849.092,0.686,-0.676,0.195,0.188,0,0,0,0,0,0,0,0,0,0.000,0,0,0.069,0.003,0.040,-0.040,-0.040,0.015,0.994,0.011,-0.002,0.002,0.000,0.000,0.000,0.000,0.000,0,2,0,3,7,255,960,300,0,0,-89.391,0.799,-31.465
EX0521-092111,19,C13,prep,330,330,0,934854.092,0.686,-0.676,0.195,0.188,0,0,0,0,0,0,0,0,0,0.000,0,0,0.069,0.003,0.040,-0.040,-0.040,0.014,0.993,0.011,0.002,0.002,-0.004,0.000,0.000,0.000,0.000,0,2,0,3,7,255,960,300,0,0,-89.391,0.799,-31.465
EX0521-092111,19,C13,prep,336,336,0,934859.091,0.686,-0.676,0.195,0.188,0,0,0,0,0,0,0,0,0,0.000,0,0,0.242,0.003,-0.220,-0.100,0.020,0.014,0.993,0.011,0.002,0.002,-0.014,0.000,0.000,0.000,0.000,0,2,0,3,7,255,960,300,0,0,-89.391,0.799,-31.465
EX0521-092111,19,C13,prep,336,336,0,934864.092,0.686,-0.676,0.195,0.188,0,0,0,0,0,0,0,0,0,0.000,0,0,0.069,0.004,0.040,-0.040,-0.040,0.014,0.995,0.013,-0.004,0.002,-0.014,0.000,0.000,0.000,0.000,0,2,0,3,7,255,960,300,0,0,-89.391,0.799,-31.465
EX0521-092111,19,C13,prep,357,357,0,934869.092,0.686,-0.676,0.195,0.188,0,0,0,0,0,0,0,0,0,0.000,0,0,0.115,0.004,0.100,-0.040,-0.040,0.014,0.994,0.011,-0.004,0.002,-0.004,0.000,0.000,0.000,0.000,0,2,0,3,7,255,960,300,0,0,-89.391,0.799,-31.465
EX0521-092111,19,C13,prep,357,357,0,934874.091,0.686,-0.676,0.195,0.188,0,0,0,0,0,0,0,0,0,0.000,0,0,0.224,0.008,-0.220,-0.040,0.020,0.014,0.995,0.010,-0.002,0.008,0.006,0.000,0.000,0.000,0.000,0,2,0,3,7,255,960,300,0,0,-89.391,0.799,-31.465
EX0521-092111,19,C13,prep,358,358,0,934879.092,0.686,-0.676,0.195,0.188,0,0,0,0,0,0,0,0,0,0.000,0,0,0.060,0.008,-0.020,-0.040,-0.040,0.014,0.993,0.013,-0.002,0.008,-0.004,0.000,0.000,0.000,0.000,0,2,0,3,7,255,960,300,0,0,-89.391,0.799,-31.465
EX0521-092111,19,C13,prep,358,358,0,934884.091,0.686,-0.676,0.195,0.188,0,0,0,0,0,0,0,0,0,0.000,0,0,0.115,0.006,0.100,-0.040,-0.040,0.015,0.993,0.012,0.002,-0.006,-0.008,0.000,0.000,0.000,0.000,0,2,0,3,7,255,960,300,0,0,-89.391,0.799,-31.465
EX0521-092111,19,C13,prep,367,367,0,934889.091,0.686,-0.676,0.195,0.188,0,0,0,0,0,0,0,0,0,0.000,0,0,0.060,0.006,-0.020,-0.040,-0.040,0.014,0.993,0.010,0.002,-0.006,-0.008,0.000,0.000,0.000,0.000,0,2,0,3,7,255,960,300,0,0,-89.391,0.799,-31.465
EX0521-092111,19,C13,prep,367,367,0,934894.092,0.686,-0.676,0.195,0.188,0,0,0,0,0,0,0,0,0,0.000,0,0,0.060,0.003,-0.020,-0.040,-0.040,0.014,0.993,0.012,0.002,-0.002,-0.008,0.000,0.000,0.000,0.000,0,2,0,3,7,255,960,300,0,0,-89.391,0.799,-31.465
EX0521-092111,19,C13,prep,399,399,0,934899.091,0.686,-0.676,0.195,0.188,0,0,0,0,0,0,0,0,0,0.000,0,0,0.170,0.006,0.160,-0.040,-0.040,0.013,0.995,0.012,-0.006,-0.002,-0.008,0.000,0.000,0.000,0.000,0,2,0,3,7,255,960,300,0,0,-89.391,0.799,-31.465
EX0521-092111,19,C13,prep,399,399,0,934904.091,0.686,-0.676,0.195,0.188,0,0,0,0,0,0,0,0,0,0.000,0,0,0.115,0.006,0.040,-0.040,-0.100,0.015,0.994,0.011,-0.006,-0.002,-0.004,0.000,0.000,0.000,0.000,0,2,0,3,7,255,960,300,0,0,-89.391,0.799,-31.465
EX0521-092111,19,C13,prep,399,399,0,934909.095,0.686,-0.676,0.195,0.188,0,0,0,0,0,0,0,0,0,0.000,0,0,0.092,0.004,-0.080,-0.040,0.020,0.015,0.993,0.011,0.004,-0.002,-0.004,0.000,0.000,0.000,0.000,0,2,0,3,7,255,960,300,0,0,-89.391,0.799,-31.465
EX0521-092111,19,C13,prep,399,399,0,934914.091,0.686,-0.676,0.195,0.188,0,0,0,0,0,0,0,0,0,0.000,0,0,0.069,0.006,0.040,-0.040,-0.040,0.015,0.994,0.012,0.004,-0.004,-0.004,0.000,0.000,0.000,0.000,0,2,0,3,7,255,960,300,0,0,-89.391,0.799,-31.465
EX0521-092111,19,C13,prep,399,399,0,934919.092,0.686,-0.676,0.195,0.188,0,0,0,0,0,0,0,0,0,0.000,0,0,0.060,0.004,-0.020,-0.040,-0.040,0.014,0.994,0.011,0.000,-0.004,-0.004,0.000,0.000,0.000,0.000,0,2,0,3,7,255,960,300,0,0,-89.391,0.799,-31.465
EX0521-092111,19,C13,prep,399,399,0,934924.092,0.686,-0.676,0.195,0.188,0,0,0,0,0,0,0,0,0,0.000,0,0,0.098,0.004,-0.080,-0.040,-0.040,0.015,0.993,0.011,0.000,-0.004,-0.004,0.000,0.000,0.000,0.000,0,2,0,3,7,255,960,300,0,0,-89.391,0.799,-31.465
EX0521-092111,19,C13,prep,428,428,0,934929.091,0.686,-0.676,0.195,0.188,0,0,0,0,0,0,0,0,0,0.000,0,0,0.069,0.004,0.040,-0.040,-0.040,0.014,0.993,0.012,-0.002,-0.004,-0.008,0.000,0.000,0.000,0.000,0,2,0,3,7,255,960,300,0,0,-89.391,0.799,-31.465
EX0521-092111,19,C13,prep,428,428,0,934934.092,0.686,-0.676,0.195,0.188,0,0,0,0,0,0,0,0,0,0.000,0,0,0.115,0.004,0.040,-0.100,-0.040,0.015,0.993,0.012,0.002,-0.004,-0.008,0.000,0.000,0.000,0.000,0,2,0,3,7,255,960,300,0,0,-89.391,0.799,-31.465
EX0521-092111,19,C13,prep,428,428,0,934939.092,0.686,-0.676,0.195,0.188,0,0,0,0,0,0,0,0,0,0.000,0,0,0.092,0.006,-0.080,-0.040,0.020,0.016,0.993,0.011,0.002,-0.006,-0.008,0.000,0.000,0.000,0.000,0,2,0,3,7,255,960,300,0,0,-89.391,0.799,-31.465
EX0521-092111,19,C13,prep,428,428,0,934944.091,0.686,-0.676,0.195,0.188,0,0,0,0,0,0,0,0,0,0.000,0,0,0.049,0.006,-0.020,0.020,-0.040,0.014,0.994,0.012,0.002,-0.006,-0.008,0.000,0.000,0.000,0.000,0,2,0,3,7,255,960,300,0,0,-89.391,0.799,-31.465
EX0521-092111,19,C13,prep,429,429,0,934949.092,0.686,-0.676,0.195,0.188,0,0,0,0,0,0,0,0,0,0.000,0,0,0.069,0.004,0.040,-0.040,-0.040,0.015,0.994,0.011,0.004,-0.002,-0.004,0.000,0.000,0.000,0.000,0,2,0,3,7,255,960,300,0,0,-89.391,0.799,-31.465
EX0521-092111,19,C13,prep,429,429,0,934954.091,0.686,-0.676,0.195,0.188,0,0,0,0,0,0,0,0,0,0.000,0,0,0.098,0.004,-0.080,-0.040,-0.040,0.015,0.994,0.012,0.004,-0.002,-0.002,0.000,0.000,0.000,0.000,0,2,0,3,7,255,960,300,0,0,-89.391,0.799,-31.465
EX0521-092111,19,C13,prep,454,454,0,934959.095,0.686,-0.676,0.195,0.188,0,0,0,0,0,0,0,0,0,0.000,0,0,0.060,0.009,-0.020,-0.040,-0.040,0.014,0.993,0.012,0.004,-0.008,-0.002,0.000,0.000,0.000,0.000,0,2,0,3,7,255,960,300,0,0,-89.391,0.799,-31.465
EX0521-092111,19,C13,prep,454,454,0,934964.092,0.686,-0.676,0.195,0.188,0,0,0,0,0,0,0,0,0,0.000,0,0,0.115,0.008,0.100,-0.040,-0.040,0.014,0.995,0.012,-0.002,-0.008,0.002,0.000,0.000,0.000,0.000,0,2,0,3,7,255,960,300,0,0,-89.391,0.799,-31.465
EX0521-092111,19,C13,prep,454,454,0,934969.091,0.686,-0.676,0.195,0.188,0,0,0,0,0,0,0,0,0,0.000,0,0,0.060,0.003,-0.020,-0.040,-0.040,0.014,0.994,0.010,-0.002,-0.002,-0.004,0.000,0.000,0.000,0.000,0,2,0,3,7,255,960,300,0,0,-89.391,0.799,-31.465
EX0521-092111,19,C13,prep,454,454,0,934974.092,0.686,-0.676,0.195,0.188,0,0,0,0,0,0,0,0,0,0.000,0,0,0.049,0.003,-0.020,0.020,-0.040,0.014,0.994,0.012,-0.002,-0.002,0.002,0.000,0.000,0.000,0.000,0,2,0,3,7,255,960,300,0,0,-89.391,0.799,-31.465
EX0521-092111,19,C13,prep,455,455,0,934979.092,0.686,-0.676,0.195,0.188,0,0,0,0,0,0,0,0,0,0.000,0,0,0.049,0.004,0.040,0.020,0.020,0.014,0.994,0.012,-0.002,-0.004,-0.002,0.000,0.000,0.000,0.000,0,2,0,3,7,255,960,300,0,0,-89.391,0.799,-31.465
EX0521-092111,19,C13,prep,455,455,0,934984.091,0.686,-0.676,0.195,0.188,0,0,0,0,0,0,0,0,0,0.000,0,0,0.049,0.004,-0.020,0.020,-0.040,0.014,0.993,0.012,-0.002,-0.004,-0.002,0.000,0.000,0.000,0.000,0,2,0,3,7,255,960,300,0,0,-89.391,0.799,-31.465
EX0521-092111,19,C13,prep,463,463,0,934989.092,0.686,-0.676,0.195,0.188,0,0,0,0,0,0,0,0,0,0.000,0,0,0.115,0.004,-0.100,-0.040,-0.040,0.014,0.993,0.012,-0.002,-0.004,-0.008,0.000,0.000,0.000,0.000,0,2,0,3,7,255,960,300,0,0,-89.391,0.799,-31.465
EX0521-092111,19,C13,prep,463,463,0,934994.092,0.686,-0.676,0.195,0.188,0,0,0,0,0,0,0,0,0,0.000,0,0,0.115,0.004,0.100,-0.040,-0.040,0.015,0.994,0.010,-0.002,-0.004,-0.008,0.000,0.000,0.000,0.000,0,2,0,3,7,255,960,300,0,0,-89.391,0.799,-31.465
EX0521-092111,19,C13,prep,522,522,0,934999.091,0.686,-0.676,0.195,0.188,0,0,0,0,0,0,0,0,0,0.000,0,0,0.060,0.004,-0.020,-0.040,-0.040,0.014,0.993,0.012,-0.002,-0.004,-0.008,0.000,0.000,0.000,0.000,0,2,0,3,7,255,960,300,0,0,-89.391,0.799,-31.465
EX0521-092111,19,C13,prep,522,522,0,935004.092,0.686,-0.676,0.195,0.188,0,0,0,0,0,0,0,0,0,0.000,0,0,0.060,0.010,-0.020,-0.040,-0.040,0.015,0.992,0.011,0.010,0.000,-0.008,0.000,0.000,0.000,0.000,0,2,0,3,7,255,960,300,0,0,-89.391,0.799,-31.465
EX0521-092111,19,C13,prep,522,522,0,935009.093,0.686,-0.676,0.195,0.188,0,0,0,0,0,0,0,0,0,0.000,0,0,0.060,0.002,-0.020,-0.040,-0.040,0.014,0.994,0.011,0.002,0.000,-0.008,0.000,0.000,0.000,0.000,0,2,0,3,7,255,960,300,0,0,-89.391,0.799,-31.465
EX0521-092111,19,C13,prep,522,522,0,935014.091,0.686,-0.676,0.195,0.188,0,0,0,0,0,0,0,0,0,0.000,0,0,0.049,0.010,-0.020,-0.040,0.020,0.015,0.994,0.011,0.010,0.000,0.002,0.000,0.000,0.000,0.000,0,2,0,3,7,255,960,300,0,0,-89.391,0.799,-31.465
EX0521-092111,19,C13,prep,522,522,0,935019.092,0.686,-0.676,0.195,0.188,0,0,0,0,0,0,0,0,0,0.000,0,0,0.098,0.002,-0.080,-0.040,-0.040,0.015,0.993,0.012,0.002,0.000,0.002,0.000,0.000,0.000,0.000,0,2,0,3,7,255,960,300,0,0,-89.391,0.799,-31.465
EX0521-092111,19,C13,prep,522,522,0,935024.091,0.686,-0.676,0.195,0.188,0,0,0,0,0,0,0,0,0,0.000,0,0,0.110,0.006,-0.020,-0.100,-0.040,0.014,0.993,0.012,0.002,-0.006,-0.012,0.000,0.000,0.000,0.000,0,2,0,3,7,255,960,300,0,0,-89.391,0.799,-31.465
EX0521-092111,19,C13,prep,523,523,0,935029.091,0.686,-0.676,0.195,0.188,0,0,0,0,0,0,0,0,0,0.000,0,0,0.115,0.006,0.100,-0.040,-0.040,0.015,0.993,0.011,0.002,-0.006,-0.012,0.000,0.000,0.000,0.000,0,2,0,3,7,255,960,300,0,0,-89.391,0.799,-31.465
EX0521-092111,19,C13,prep,523,523,0,935034.092,0.686,-0.676,0.195,0.188,0,0,0,0,0,0,0,0,0,0.000,0,0,0.049,0.003,-0.020,-0.040,0.020,0.014,0.994,0.012,-0.002,-0.002,-0.012,0.000,0.000,0.000,0.000,0,2,0,3,7,255,960,300,0,0,-89.391,0.799,-31.465
EX0521-092111,19,C13,prep,524,524,0,935039.091,0.686,-0.676,0.195,0.188,0,0,0,0,0,0,0,0,0,0.000,0,0,0.035,0.003,-0.020,0.020,0.020,0.013,0.993,0.012,-0.002,-0.002,-0.012,0.000,0.000,0.000,0.000,0,2,0,3,7,255,960,300,0,0,-89.391,0.799,-31.465
EX0521-092111,19,C13,prep,524,524,0,935044.092,0.686,-0.676,0.195,0.188,0,0,0,0,0,0,0,0,0,0.000,0,0,0.069,0.003,0.040,-0.040,-0.040,0.015,0.993,0.011,-0.002,-0.002,-0.006,0.000,0.000,0.000,0.000,0,2,0,3,7,255,960,300,0,0,-89.391,0.799,-31.465
EX0521-092111,19,C13,prep,524,524,0,935049.092,0.686,-0.676,0.195,0.188,0,0,0,0,0,0,0,0,0,0.000,0,0,0.060,0.004,-0.020,-0.040,-0.040,0.014,0.994,0.012,-0.004,-0.002,-0.006,0.000,0.000,0.000,0.000,0,2,0,3,7,255,960,300,0,0,-89.391,0.799,-31.465
EX0521-092111,19,C13,prep,524,524,0,935054.091,0.686,-0.676,0.195,0.188,0,0,0,0,0,0,0,0,0,0.000,0,0,0.092,0.004,-0.080,0.020,-0.040,0.015,0.993,0.011,0.004,-0.002,-0.006,0.000,0.000,0.000,0.000,0,2,0,3,7,255,960,300,0,0,-89.391,0.799,-31.465
EX0521-092111,19,C13,prep,559,559,0,935059.092,0.686,-0.676,0.195,0.188,0,0,0,0,0,0,0,0,0,0.000,0,0,0.147,0.007,0.100,-0.040,-0.100,0.015,0.993,0.012,0.004,-0.006,-0.006,0.000,0.000,0.000,0.000,0,2,0,3,7,255,960,300,0,0,-89.392,0.799,-31.465
EX0521-092111,19,C13,prep,559,559,0,935064.092,0.686,-0.676,0.195,0.188,0,0,0,0,0,0,0,0,0,0.000,0,0,0.049,0.007,-0.020,0.020,-0.040,0.015,0.992,0.012,0.004,-0.006,-0.006,0.000,0.000,0.000,0.000,0,2,0,3,7,255,960,300,0,0,-89.392,0.799,-31.465
EX0521-092111,19,C13,prep,560,560,0,935069.094,0.686,-0.676,0.195,0.188,0,0,0,0,0,0,0,0,0,0.000,0,0,0.049,0.007,-0.020,-0.040,0.020,0.015,0.994,0.011,0.004,-0.006,-0.006,0.000,0.000,0.000,0.000,0,2,0,3,7,255,960,300,0,0,-89.392,0.799,-31.465
EX0521-092111,19,C13,prep,560,560,0,935074.092,0.686,-0.676,0.195,0.188,0,0,0,0,0,0,0,0,0,0.000,0,0,0.060,0.002,0.040,-0.040,0.020,0.013,0.993,0.012,0.002,0.000,-0.012,0.000,0.000,0.000,0.000,0,2,0,3,7,255,960,300,0,0,-89.392,0.799,-31.465
EX0521-092111,19,C13,prep,561,561,0,935079.092,0.686,-0.676,0.195,0.188,0,0,0,0,0,0,0,0,0,0.000,0,0,0.069,0.010,0.040,-0.040,-0.040,0.015,0.993,0.010,0.010,0.002,-0.006,0.000,0.000,0.000,0.000,0,2,0,3,7,255,960,300,0,0,-89.392,0.799,-31.465
EX0521-092111,19,C13,prep,561,561,0,935084.091,0.686,-0.676,0.195,0.188,0,0,0,0,0,0,0,0,0,0.000,0,0,0.049,0.004,-0.020,-0.040,0.020,0.015,0.993,0.011,0.004,0.002,-0.010,0.000,0.000,0.000,0.000,0,2,0,3,7,255,960,300,0,0,-89.392,0.799,-31.465
EX0521-092111,19,C13,prep,575,575,0,935089.092,0.686,-0.676,0.195,0.188,0,0,0,0,0,0,0,0,0,0.000,0,0,0.049,0.004,-0.020,-0.040,0.020,0.014,0.994,0.012,0.004,-0.002,-0.006,0.000,0.000,0.000,0.000,0,2,0,3,7,255,960,300,0,0,-89.392,0.799,-31.465
EX0521-092111,19,C13,prep,575,575,0,935094.091,0.686,-0.676,0.195,0.188,0,0,0,0,0,0,0,0,0,0.000,0,0,0.060,0.007,0.040,-0.040,0.020,0.016,0.993,0.011,0.004,-0.006,-0.006,0.000,0.000,0.000,0.000,0,2,0,3,7,255,960,300,0,0,-89.392,0.799,-31.465
EX0521-092111,19,C13,prep,607,607,0,935099.092,0.686,-0.676,0.195,0.188,0,0,0,0,0,0,0,0,0,0.000,0,0,0.049,0.008,-0.020,-0.040,0.020,0.015,0.994,0.011,0.006,-0.006,-0.002,0.000,0.000,0.000,0.000,0,2,0,3,7,255,960,300,0,0,-89.392,0.799,-31.465
EX0521-092111,19,C13,prep,607,607,0,935104.093,0.686,-0.676,0.195,0.188,0,0,0,0,0,0,0,0,0,0.000,0,0,0.049,0.008,-0.020,-0.040,0.020,0.014,0.994,0.012,0.006,-0.006,-0.002,0.000,0.000,0.000,0.000,0,2,0,3,7,255,960,300,0,0,-89.392,0.799,-31.465
EX0521-092111,19,C13,prep,607,607,0,935109.092,0.686,-0.676,0.195,0.188,0,0,0,0,0,0,0,0,0,0.000,0,0,0.049,0.006,-0.020,0.020,-0.040,0.013,0.995,0.011,-0.006,0.002,-0.002,0.000,0.000,0.000,0.000,0,2,0,3,7,255,960,300,0,0,-89.392,0.799,-31.465
EX0521-092111,19,C13,prep,607,607,0,935114.093,0.686,-0.676,0.195,0.188,0,0,0,0,0,0,0,0,0,0.000,0,0,0.049,0.006,-0.020,0.020,-0.040,0.014,0.992,0.011,-0.006,0.002,-0.002,0.000,0.000,0.000,0.000,0,2,0,3,7,255,960,300,0,0,-89.392,0.799,-31.465
EX0521-092111,19,C13,prep,607,607,0,935119.092,0.686,-0.676,0.195,0.188,0,0,0,0,0,0,0,0,0,0.000,0,0,0.049,0.002,-0.020,-0.040,0.020,0.015,0.993,0.012,0.000,0.002,-0.010,0.000,0.000,0.000,0.000,0,2,0,3,7,255,960,300,0,0,-89.392,0.799,-31.465
EX0521-092111,19,C13,prep,607,607,0,935124.091,0.686,-0.676,0.195,0.188,0,0,0,0,0,0,0,0,0,0.000,0,0,0.115,0.003,0.040,-0.100,-0.040,0.014,0.992,0.011,0.002,0.002,-0.016,0.000,0.000,0.000,0.000,0,2,0,3,7,255,960,300,0,0,-89.392,0.799,-31.465
EX0521-092111,19,C13,prep,634,634,0,935129.092,0.686,-0.676,0.195,0.188,0,0,0,0,0,0,0,0,0,0.000,0,0,0.069,0.004,0.040,-0.040,-0.040,0.014,0.994,0.012,0.002,-0.004,-0.010,0.000,0.000,0.000,0.000,0,2,0,3,7,255,960,300,0,0,-89.392,0.799,-31.465
EX0521-092111,19,C13,prep,634,634,0,935134.092,0.686,-0.676,0.195,0.188,0,0,0,0,0,0,0,0,0,0.000,0,0,0.110,0.006,-0.020,-0.100,-0.040,0.014,0.994,0.011,-0.004,0.004,-0.002,0.000,0.000,0.000,0.000,0,2,0,3,7,255,960,300,0,0,-89.392,0.799,-31.465
EX0521-092111,19,C13,prep,635,635,0,935139.091,0.686,-0.676,0.195,0.188,0,0,0,0,0,0,0,0,0,0.000,0,0,0.110,0.006,0.040,-0.100,0.020,0.014,0.994,0.012,-0.004,-0.004,-0.002,0.000,0.000,0.000,0.000,0,2,0,3,7,255,960,300,0,0,-89.392,0.799,-31.465
EX0521-092111,19,C13,prep,635,635,0,935144.092,0.686,-0.676,0.195,0.188,0,0,0,0,0,0,0,0,0,0.000,0,0,0.060,0.004,0.040,-0.040,0.020,0.014,0.992,0.011,-0.004,0.002,-0.002,0.000,0.000,0.000,0.000,0,2,0,3,7,255,960,300,0,0,-89.392,0.799,-31.465
EX0521-092111,19,C13,prep,635,635,0,935149.091,0.686,-0.676,0.195,0.188,0,0,0,0,0,0,0,0,0,0.000,0,0,0.092,0.002,-0.080,-0.040,0.020,0.014,0.993,0.011,0.000,0.002,-0.010,0.000,0.000,0.000,0.000,0,2,0,3,7,255,960,300,0,0,-89.392,0.799,-31.465
EX0521-092111,19,C13,prep,635,635,0,935154.092,0.686,-0.676,0.195,0.188,0,0,0,0,0,0,0,0,0,0.000,0,0,0.060,0.003,-0.020,-0.040,-0.040,0.015,0.993,0.012,0.002,0.002,-0.010,0.000,0.000,0.000,0.000,0,2,0,3,7,255,960,300,0,0,-89.392,0.799,-31.465
EX0521-092111,19,C13,prep,635,635,0,935159.092,0.686,-0.676,0.195,0.188,0,0,0,0,0,0,0,0,0,0.000,0,0,0.115,0.004,0.100,-0.040,-0.040,0.015,0.994,0.011,0.004,-0.002,-0.010,0.000,0.000,0.000,0.000,0,2,0,3,7,255,960,300,0,0,-89.392,0.799,-31.465
EX0521-092111,19,C13,prep,635,635,0,935164.091,0.686,-0.676,0.195,0.188,0,0,0,0,0,0,0,0,0,0.000,0,0,0.060,0.007,-0.020,-0.040,-0.040,0.015,0.993,0.012,0.004,-0.006,-0.010,0.000,0.000,0.000,0.000,0,2,0,3,7,255,960,300,0,0,-89.392,0.799,-31.465
EX0521-092111,19,C13,prep,655,655,0,935169.092,0.686,-0.676,0.195,0.188,0,0,0,0,0,0,0,0,0,0.000,0,0,0.069,0.006,0.040,-0.040,-0.040,0.015,0.993,0.012,0.002,-0.006,-0.006,0.000,0.000,0.000,0.000,0,2,0,3,7,255,960,300,0,0,-89.392,0.799,-31.465
EX0521-092111,19,C13,prep,655,655,0,935174.093,0.686,-0.676,0.195,0.188,0,0,0,0,0,0,0,0,0,0.000,0,0,0.069,0.006,0.040,-0.040,-0.040,0.014,0.993,0.012,0.002,-0.006,-0.010,0.000,0.000,0.000,0.000,0,2,0,3,7,255,960,300,0,0,-89.392,0.799,-31.465
EX0521-092111,19,C13,prep,671,671,0,935179.091,0.686,-0.676,0.195,0.188,0,0,0,0,0,0,0,0,0,0.000,0,0,0.049,0.002,-0.020,0.020,-0.040,0.014,0.994,0.011,0.000,-0.002,-0.006,0.000,0.000,0.000,0.000,0,2,0,3,7,255,960,300,0,0,-89.392,0.799,-31.465
EX0521-092111,19,C13,prep,671,671,0,935184.092,0.686,-0.676,0.195,0.188,0,0,0,0,0,0,0,0,0,0.000,0,0,0.060,0.002,-0.020,-0.040,-0.040,0.014,0.994,0.012,-0.002,0.000,0.000,0.000,0.000,0.000,0.000,0,2,0,3,7,255,960,300,0,0,-89.392,0.799,-31.465
EX0521-092111,19,C13,prep,671,671,0,935189.092,0.686,-0.676,0.195,0.188,0,0,0,0,0,0,0,0,0,0.000,0,0,0.110,0.004,0.100,-0.040,0.020,0.014,0.993,0.011,-0.004,0.002,0.000,0.000,0.000,0.000,0.000,0,2,0,3,7,255,960,300,0,0,-89.392,0.799,-31.465
EX0521-092111,19,C13,prep,671,671,0,935194.091,0.686,-0.676,0.195,0.188,0,0,0,0,0,0,0,0,0,0.000,0,0,0.060,0.004,-0.020,-0.040,-0.040,0.014,0.992,0.012,-0.004,0.000,-0.006,0.000,0.000,0.000,0.000,0,2,0,3,7,255,960,300,0,0,-89.392,0.799,-31.465
EX0521-092111,19,C13,prep,703,703,0,935199.092,0.686,-0.676,0.195,0.188,0,0,0,0,0,0,0,0,0,0.000,0,0,0.049,0.003,-0.020,-0.040,0.020,0.016,0.993,0.012,-0.002,-0.002,-0.006,0.000,0.000,0.000,0.000,0,2,0,3,7,255,960,300,0,0,-89.392,0.799,-31.465
EX0521-092111,19,C13,prep,703,703,0,935204.091,0.686,-0.676,0.195,0.188,0,0,0,0,0,0,0,0,0,0.000,0,0,0.049,0.004,-0.020,-0.040,0.020,0.014,0.994,0.012,-0.002,-0.004,-0.004,0.000,0.000,0.000,0.000,0,2,0,3,7,255,960,300,0,0,-89.392,0.799,-31.465
EX0521-092111,19,C13,prep,703,703,0,935209.092,0.686,-0.676,0.195,0.188,0,0,0,0,0,0,0,0,0,0.000,0,0,0.060,0.007,-0.020,-0.040,-0.040,0.013,0.995,0.011,-0.006,-0.004,0.000,0.000,0.000,0.000,0.000,0,2,0,3,7,255,960,300,0,0,-89.392,0.799,-31.465
EX0521-092111,19,C13,prep,703,703,0,935214.093,0.686,-0.676,0.195,0.188,0,0,0,0,0,0,0,0,0,0.000,0,0,0.060,0.013,-0.020,-0.040,-0.040,0.013,0.993,0.011,-0.010,0.008,0.000,0.000,0.000,0.000,0.000,0,2,0,3,7,255,960,300,0,0,-89.392,0.799,-31.465
EX0521-092111,19,C13,prep,703,703,0,935219.091,0.686,-0.676,0.195,0.188,0,0,0,0,0,0,0,0,0,0.000,0,0,0.049,0.010,-0.020,-0.040,0.020,0.015,0.993,0.011,-0.006,0.008,-0.004,0.000,0.000,0.000,0.000,0,2,0,3,7,255,960,300,0,0,-89.392,0.799,-31.465
EX0521-092111,19,C13,prep,703,703,0,935224.092,0.686,-0.676,0.195,0.188,0,0,0,0,0,0,0,0,0,0.000,0,0,0.060,0.006,0.040,-0.040,0.020,0.014,0.994,0.011,-0.004,0.004,-0.004,0.000,0.000,0.000,0.000,0,2,0,3,7,255,960,300,0,0,-89.392,0.799,-31.465
EX0521-092111,19,C13,prep,720,720,0,935229.092,0.686,-0.676,0.195,0.188,0,0,0,0,0,0,0,0,0,0.000,0,0,0.060,0.002,-0.020,-0.040,-0.040,0.014,0.993,0.011,0.000,0.002,-0.004,0.000,0.000,0.000,0.000,0,2,0,3,7,255,960,300,0,0,-89.392,0.799,-31.465
EX0521-092111,19,C13,prep,720,720,0,935234.091,0.686,-0.676,0.195,0.188,0,0,0,0,0,0,0,0,0,0.000,0,0,0.049,0.004,-0.020,-0.040,0.020,0.014,0.994,0.012,-0.004,0.002,0.004,0.000,0.000,0.000,0.000,0,2,0,3,7,255,960,300,0,0,-89.392,0.799,-31.465
EX0521-092111,19,C13,prep,721,721,0,935239.092,0.686,-0.676,0.195,0.188,0,0,0,0,0,0,0,0,0,0.000,0,0,0.049,0.004,0.040,0.020,0.020,0.013,0.994,0.011,-0.004,0.002,0.000,0.000,0.000,0.000,0.000,0,2,0,3,7,255,960,300,0,0,-89.392,0.799,-31.465
EX0521-092111,19,C13,prep,721,721,0,935244.092,0.686,-0.676,0.195,0.188,0,0,0,0,0,0,0,0,0,0.000,0,0,0.049,0.007,-0.020,-0.040,0.020,0.015,0.994,0.012,-0.004,-0.006,0.000,0.000,0.000,0.000,0.000,0,2,0,3,7,255,960,300,0,0,-89.392,0.799,-31.465
EX0521-092111,19,C13,prep,735,735,0,935249.092,0.686,-0.676,0.195,0.188,0,0,0,0,0,0,0,0,0,0.000,0,0,0.049,0.006,-0.020,-0.040,0.020,0.014,0.993,0.011,-0.004,0.004,0.000,0.000,0.000,0.000,0.000,0,2,0,3,7,255,960,300,0,0,-89.392,0.799,-31.465
EX0521-092111,19,C13,prep,735,735,0,935254.092,0.686,-0.676,0.195,0.188,0,0,0,0,0,0,0,0,0,0.000,0,0,0.069,0.006,0.040,-0.040,-0.040,0.015,0.993,0.012,0.002,-0.006,-0.010,0.000,0.000,0.000,0.000,0,2,0,3,7,255,960,300,0,0,-89.392,0.799,-31.465
EX0521-092111,19,C13,prep,735,735,0,935259.092,0.686,-0.676,0.195,0.188,0,0,0,0,0,0,0,0,0,0.000,0,0,0.049,0.003,-0.020,0.020,-0.040,0.014,0.995,0.012,-0.002,-0.002,-0.010,0.000,0.000,0.000,0.000,0,2,0,3,7,255,960,300,0,0,-89.392,0.799,-31.465
EX0521-092111,19,C13,prep,735,735,0,935264.091,0.686,-0.676,0.195,0.188,0,0,0,0,0,0,0,0,0,0.000,0,0,0.060,0.003,-0.020,-0.040,-0.040,0.015,0.993,0.011,0.002,-0.002,-0.004,0.000,0.000,0.000,0.000,0,2,0,3,7,255,960,300,0,0,-89.392,0.799,-31.465
EX0521-092111,19,C13,prep,761,761,0,935269.092,0.686,-0.676,0.195,0.188,0,0,0,0,0,0,0,0,0,0.000,0,0,0.069,0.006,0.040,-0.040,-0.040,0.015,0.993,0.012,0.006,-0.002,-0.004,0.000,0.000,0.000,0.000,0,2,0,3,7,255,960,300,0,0,-89.392,0.799,-31.465
EX0521-092111,19,C13,prep,761,761,0,935274.091,0.686,-0.676,0.195,0.188,0,0,0,0,0,0,0,0,0,0.000,0,0,0.049,0.006,-0.020,-0.040,0.020,0.014,0.994,0.012,0.006,-0.002,-0.004,0.000,0.000,0.000,0.000,0,2,0,3,7,255,960,300,0,0,-89.392,0.799,-31.465
EX0521-092111,19,C13,prep,762,762,0,935279.091,0.686,-0.676,0.195,0.188,0,0,0,0,0,0,0,0,0,0.000,0,0,0.060,0.004,0.040,-0.040,0.020,0.015,0.994,0.011,0.004,-0.002,0.000,0.000,0.000,0.000,0.000,0,2,0,3,7,255,960,300,0,0,-89.392,0.799,-31.465
EX0521-092111,19,C13,prep,762,762,0,935284.092,0.686,-0.676,0.195,0.188,0,0,0,0,0,0,0,0,0,0.000,0,0,0.060,0.003,0.040,-0.040,0.020,0.014,0.993,0.012,-0.002,-0.002,0.000,0.000,0.000,0.000,0.000,0,2,0,3,7,255,960,300,0,0,-89.393,0.799,-31.465
EX0521-092111,19,C13,prep,767,767,0,935289.091,0.686,-0.676,0.195,0.188,0,0,0,0,0,0,0,0,0,0.000,0,0,0.110,0.004,0.100,-0.040,0.020,0.015,0.994,0.012,0.002,-0.004,0.000,0.000,0.000,0.000,0.000,0,2,0,3,7,255,960,300,0,0,-89.393,0.799,-31.465
EX0521-092111,19,C13,prep,767,767,0,935294.092,0.686,-0.676,0.195,0.188,0,0,0,0,0,0,0,0,0,0.000,0,0,0.069,0.004,0.040,-0.040,-0.040,0.016,0.993,0.011,0.002,-0.004,-0.004,0.000,0.000,0.000,0.000,0,2,0,3,7,255,960,300,0,0,-89.393,0.799,-31.465
EX0521-092111,19,C13,prep,826,826,0,935299.092,0.686,-0.676,0.195,0.188,0,0,0,0,0,0,0,0,0,0.000,0,0,0.069,0.004,0.040,-0.040,-0.040,0.015,0.993,0.012,0.002,-0.004,-0.004,0.000,0.000,0.000,0.000,0,2,0,3,7,255,960,300,0,0,-89.393,0.799,-31.465
EX0521-092111,19,C13,prep,826,826,0,935304.091,0.686,-0.676,0.195,0.188,0,0,0,0,0,0,0,0,0,0.000,0,0,0.060,0.006,-0.020,-0.040,-0.040,0.014,0.994,0.012,0.002,-0.006,-0.004,0.000,0.000,0.000,0.000,0,2,0,3,7,255,960,300,0,0,-89.393,0.799,-31.465
EX0521-092111,19,C13,prep,826,826,0,935309.092,0.686,-0.676,0.195,0.188,0,0,0,0,0,0,0,0,0,0.000,0,0,0.098,0.006,-0.080,-0.040,-0.040,0.015,0.993,0.012,0.000,-0.006,-0.008,0.000,0.000,0.000,0.000,0,2,0,3,7,255,960,300,0,0,-89.393,0.800,-31.465
EX0521-092111,19,C13,prep,826,826,0,935314.093,0.686,-0.676,0.195,0.188,0,0,0,0,0,0,0,0,0,0.000,0,0,0.049,0.008,-0.020,-0.040,0.020,0.015,0.993,0.012,0.000,-0.008,-0.004,0.000,0.000,0.000,0.000,0,2,0,3,7,255,960,300,0,0,-89.393,0.800,-31.465
EX0521-092111,19,C13,prep,826,826,0,935319.091,0.686,-0.676,0.195,0.188,0,0,0,0,0,0,0,0,0,0.000,0,0,0.060,0.008,-0.020,-0.040,-0.040,0.014,0.993,0.012,0.000,-0.008,-0.008,0.000,0.000,0.000,0.000,0,2,0,3,7,255,960,300,0,0,-89.393,0.800,-31.465
EX0521-092111,19,C13,prep,826,826,0,935324.092,0.686,-0.676,0.195,0.188,0,0,0,0,0,0,0,0,0,0.000,0,0,0.060,0.008,-0.020,-0.040,-0.040,0.015,0.995,0.012,-0.002,-0.008,-0.004,0.000,0.000,0.000,0.000,0,2,0,3,7,255,960,300,0,0,-89.393,0.800,-31.465
EX0521-092111,19,C13,prep,826,826,0,935329.091,0.686,-0.676,0.195,0.188,0,0,0,0,0,0,0,0,0,0.000,0,0,0.110,0.004,-0.020,-0.100,-0.040,0.015,0.992,0.012,-0.002,-0.004,-0.008,0.000,0.000,0.000,0.000,0,2,0,3,7,255,960,300,0,0,-89.393,0.800,-31.465
EX0521-092111,19,C13,prep,826,826,0,935334.091,0.686,-0.676,0.195,0.188,0,0,0,0,0,0,0,0,0,0.000,0,0,0.069,0.004,0.040,-0.040,-0.040,0.015,0.994,0.010,0.002,-0.004,0.000,0.000,0.000,0.000,0.000,0,2,0,3,7,255,960,300,0,0,-89.393,0.800,-31.465
EX0521-092111,19,C13,prep,827,827,0,935339.092,0.686,-0.676,0.195,0.188,0,0,0,0,0,0,0,0,0,0.000,0,0,0.049,0.003,-0.020,-0.040,0.020,0.014,0.993,0.012,0.002,-0.002,-0.008,0.000,0.000,0.000,0.000,0,2,0,3,7,255,960,300,0,0,-89.393,0.800,-31.465
EX0521-092111,19,C13,prep,827,827,0,935344.091,0.686,-0.676,0.195,0.188,0,0,0,0,0,0,0,0,0,0.000,0,0,0.035,0.004,-0.020,0.020,0.020,0.014,0.992,0.011,-0.002,0.004,-0.008,0.000,0.000,0.000,0.000,0,2,0,3,7,255,960,300,0,0,-89.393,0.800,-31.465
EX0521-092111,19,C13,prep,831,831,0,935349.092,0.686,-0.676,0.195,0.188,0,0,0,0,0,0,0,0,0,0.000,0,0,0.069,0.004,0.040,-0.040,-0.040,0.014,0.993,0.012,-0.004,-0.002,-0.008,0.000,0.000,0.000,0.000,0,2,0,3,7,255,960,300,0,0,-89.393,0.800,-31.465
EX0521-092111,19,C13,prep,831,831,0,935354.092,0.686,-0.676,0.195,0.188,0,0,0,0,0,0,0,0,0,0.000,0,0,0.049,0.006,-0.020,0.020,-0.040,0.014,0.993,0.011,-0.004,0.004,-0.004,0.000,0.000,0.000,0.000,0,2,0,3,7,255,960,300,0,0,-89.393,0.800,-31.465
EX0521-092111,19,C13,prep,860,860,0,935359.092,0.686,-0.676,0.195,0.188,0,0,0,0,0,0,0,0,0,0.000,0,0,0.115,0.004,0.040,-0.100,-0.040,0.014,0.993,0.011,-0.004,0.002,-0.004,0.000,0.000,0.000,0.000,0,2,0,3,7,255,960,300,0,0,-89.393,0.800,-31.465
EX0521-092111,19,C13,prep,860,860,0,935364.093,0.686,-0.676,0.195,0.188,0,0,0,0,0,0,0,0,0,0.000,0,0,0.035,0.004,-0.020,0.020,0.020,0.014,0.993,0.013,-0.004,0.002,-0.008,0.000,0.000,0.000,0.000,0,2,0,3,7,255,960,300,0,0,-89.393,0.800,-31.465
EX0521-092111,19,C13,prep,861,861,0,935369.092,0.686,-0.676,0.195,0.188,0,0,0,0,0,0,0,0,0,0.000,0,0,0.060,0.003,-0.020,-0.040,-0.040,0.014,0.994,0.012,-0.002,-0.002,-0.008,0.000,0.000,0.000,0.000,0,2,0,3,7,255,960,300,0,0,-89.393,0.800,-31.465
EX0521-092111,19,C13,prep,861,861,0,935374.091,0.686,-0.676,0.195,0.188,0,0,0,0,0,0,0,0,0,0.000,0,0,0.049,0.004,0.040,0.020,0.020,0.015,0.993,0.012,-0.002,-0.004,-0.004,0.000,0.000,0.000,0.000,0,2,0,3,7,255,960,300,0,0,-89.393,0.800,-31.465
EX0521-092111,19,C13,prep,862,862,0,935379.092,0.686,-0.676,0.195,0.188,0,0,0,0,0,0,0,0,0,0.000,0,0,0.049,0.004,-0.020,-0.040,0.020,0.015,0.995,0.012,0.002,-0.004,0.002,0.000,0.000,0.000,0.000,0,2,0,3,7,255,960,300,0,0,-89.393,0.800,-31.465
EX0521-092111,19,C13,prep,862,862,0,935384.091,0.686,-0.676,0.195,0.188,0,0,0,0,0,0,0,0,0,0.000,0,0,0.060,0.004,-0.020,-0.040,-0.040,0.014,0.994,0.012,0.002,-0.004,0.000,0.000,0.000,0.000,0.000,0,2,0,3,7,255,960,300,0,0,-89.393,0.800,-31.465
EX0521-092111,19,C13,prep,892,892,0,935389.091,0.686,-0.676,0.195,0.188,0,0,0,0,0,0,0,0,0,0.000,0,0,0.060,0.004,-0.020,-0.040,-0.040,0.014,0.994,0.011,-0.004,0.000,0.000,0.000,0.000,0.000,0.000,0,2,0,3,7,255,960,300,0,0,-89.393,0.800,-31.465
EX0521-092111,19,C13,prep,892,892,0,935394.092,0.686,-0.676,0.195,0.188,0,0,0,0,0,0,0,0,0,0.000,0,0,0.035,0.004,-0.020,0.020,0.020,0.015,0.994,0.011,-0.004,0.002,0.000,0.000,0.000,0.000,0.000,0,2,0,3,7,255,960,300,0,0,-89.393,0.800,-31.465
EX0521-092111,19,C13,prep,927,927,0,935399.091,0.686,-0.676,0.195,0.188,0,0,0,0,0,0,0,0,0,0.000,0,0,0.069,0.011,0.040,-0.040,-0.040,0.015,0.993,0.010,0.010,0.004,0.000,0.000,0.000,0.000,0.000,0,2,0,3,7,255,960,300,0,0,-89.393,0.800,-31.465
EX0521-092111,19,C13,prep,927,927,0,935404.092,0.686,-0.676,0.195,0.188,0,0,0,0,0,0,0,0,0,0.000,0,0,0.069,0.013,0.040,-0.040,-0.040,0.015,0.994,0.010,0.010,0.008,0.002,0.000,0.000,0.000,0.000,0,2,0,3,7,255,960,300,0,0,-89.393,0.800,-31.465
EX0521-092111,19,C13,prep,927,927,0,935409.092,0.686,-0.676,0.195,0.188,0,0,0,0,0,0,0,0,0,0.000,0,0,0.060,0.011,-0.020,-0.040,-0.040,0.014,0.994,0.012,0.008,0.008,0.000,0.000,0.000,0.000,0.000,0,2,0,3,7,255,960,300,0,0,-89.393,0.800,-31.465
EX0521-092111,19,C13,prep,927,927,0,935414.093,0.686,-0.676,0.195,0.188,0,0,0,0,0,0,0,0,0,0.000,0,0,0.115,0.006,0.040,-0.040,-0.100,0.013,0.995,0.013,-0.006,0.000,0.006,0.000,0.000,0.000,0.000,0,2,0,3,7,255,960,300,0,0,-89.393,0.800,-31.465
EX0521-092111,19,C13,prep,927,927,0,935419.092,0.686,-0.676,0.195,0.188,0,0,0,0,0,0,0,0,0,0.000,0,0,0.115,0.008,0.040,-0.100,-0.040,0.016,0.994,0.012,-0.006,-0.006,0.002,0.000,0.000,0.000,0.000,0,2,0,3,7,255,960,300,0,0,-89.393,0.800,-31.465
EX0521-092111,19,C13,prep,927,927,0,935424.092,0.686,-0.676,0.195,0.188,0,0,0,0,0,0,0,0,0,0.000,0,0,0.060,0.010,-0.020,-0.040,-0.040,0.015,0.993,0.013,0.000,-0.010,0.002,0.000,0.000,0.000,0.000,0,2,0,3,7,255,960,300,0,0,-89.393,0.800,-31.465
EX0521-092111,19,C13,prep,928,928,0,935429.091,0.686,-0.676,0.195,0.188,0,0,0,0,0,0,0,0,0,0.000,0,0,0.060,0.012,0.040,0.020,-0.040,0.015,0.992,0.012,0.006,-0.010,-0.004,0.000,0.000,0.000,0.000,0,2,0,3,7,255,960,300,0,0,-89.393,0.800,-31.465
EX0521-092111,19,C13,prep,928,928,0,935434.092,0.686,-0.676,0.195,0.188,0,0,0,0,0,0,0,0,0,0.000,0,0,0.049,0.009,0.040,0.020,0.020,0.015,0.995,0.011,0.004,-0.008,-0.004,0.000,0.000,0.000,0.000,0,2,0,3,7,255,960,300,0,0,-89.393,0.800,-31.465
EX0521-092111,19,C13,prep,929,929,0,935439.092,0.686,-0.676,0.195,0.188,0,0,0,0,0,0,0,0,0,0.000,0,0,0.049,0.004,-0.020,0.020,-0.040,0.014,0.994,0.011,0.004,0.000,0.000,0.000,0.000,0.000,0.000,0,2,0,3,7,255,960,300,0,0,-89.393,0.800,-31.465
EX0521-092111,19,C13,prep,929,929,0,935444.091,0.686,-0.676,0.195,0.188,0,0,0,0,0,0,0,0,0,0.000,0,0,0.049,0.002,-0.020,-0.040,0.020,0.015,0.993,0.012,0.002,0.000,0.000,0.000,0.000,0.000,0.000,0,2,0,3,7,255,960,300,0,0,-89.393,0.800,-31.465
EX0521-092111,19,C13,prep,930,930,0,935449.093,0.686,-0.676,0.195,0.188,0,0,0,0,0,0,0,0,0,0.000,0,0,0.060,0.000,0.040,0.020,-0.040,0.014,0.993,0.012,0.000,0.000,-0.004,0.000,0.000,0.000,0.000,0,2,0,3,7,255,960,300,0,0,-89.393,0.800,-31.465
EX0521-092111,19,C13,prep,930,930,0,935454.091,0.686,-0.676,0.195,0.188,0,0,0,0,0,0,0,0,0,0.000,0,0,0.069,0.003,0.040,-0.040,-0.040,0.016,0.994,0.011,0.002,-0.002,-0.004,0.000,0.000,0.000,0.000,0,2,0,3,7,255,960,300,0,0,-89.393,0.800,-31.465
EX0521-092111,19,C13,prep,955,955,0,935459.091,0.686,-0.676,0.195,0.188,0,0,0,0,0,0,0,0,0,0.000,0,0,0.060,0.004,-0.020,-0.040,-0.040,0.015,0.993,0.011,0.004,0.000,-0.004,0.000,0.000,0.000,0.000,0,2,0,3,7,255,960,300,0,0,-89.393,0.800,-31.465
EX0521-092111,19,C13,prep,955,955,0,935464.092,0.686,-0.676,0.195,0.188,0,0,0,0,0,0,0,0,0,0.000,0,0,0.069,0.004,0.040,-0.040,-0.040,0.015,0.993,0.011,0.004,0.000,-0.004,0.000,0.000,0.000,0.000,0,2,0,3,7,255,960,300,0,0,-89.393,0.800,-31.465
EX0521-092111,19,C13,prep,955,955,0,935469.091,0.686,-0.676,0.195,0.188,0,0,0,0,0,0,0,0,0,0.000,0,0,0.060,0.004,-0.020,-0.040,-0.040,0.014,0.993,0.010,0.004,0.000,-0.004,0.000,0.000,0.000,0.000,0,2,0,3,7,255,960,300,0,0,-89.393,0.800,-31.465
EX0521-092111,19,C13,prep,955,955,0,935474.092,0.686,-0.676,0.195,0.188,0,0,0,0,0,0,0,0,0,0.000,0,0,0.069,0.004,0.040,-0.040,-0.040,0.014,0.993,0.012,0.004,0.000,-0.004,0.000,0.000,0.000,0.000,0,2,0,3,7,255,960,300,0,0,-89.393,0.800,-31.465
EX0521-092111,19,C13,prep,959,959,0,935479.092,0.686,-0.676,0.195,0.188,0,0,0,0,0,0,0,0,0,0.000,0,0,0.069,0.006,0.040,-0.040,-0.040,0.014,0.994,0.011,0.002,0.006,-0.004,0.000,0.000,0.000,0.000,0,2,0,3,7,255,960,300,0,0,-89.393,0.800,-31.465
EX0521-092111,19,C13,prep,959,959,0,935484.091,0.686,-0.676,0.195,0.188,0,0,0,0,0,0,0,0,0,0.000,0,0,0.060,0.006,0.040,-0.040,0.020,0.014,0.993,0.011,-0.004,0.004,-0.004,0.000,0.000,0.000,0.000,0,2,0,3,7,255,960,300,0,0,-89.393,0.800,-31.465
EX0521-092111,19,C13,prep,975,975,0,935489.092,0.686,-0.676,0.195,0.188,0,0,0,0,0,0,0,0,0,0.000,0,0,0.060,0.004,-0.020,-0.040,-0.040,0.014,0.993,0.011,0.000,0.004,-0.008,0.000,0.000,0.000,0.000,0,2,0,3,7,255,960,300,0,0,-89.393,0.800,-31.465
EX0521-092111,19,C13,prep,975,975,0,935494.092,0.686,-0.676,0.195,0.188,0,0,0,0,0,0,0,0,0,0.000,0,0,0.092,0.002,-0.080,-0.040,0.020,0.015,0.992,0.012,0.000,0.002,-0.008,0.000,0.000,0.000,0.000,0,2,0,3,7,255,960,300,0,0,-89.393,0.800,-31.465
EX0521-092111,19,C13,prep,1007,1007,0,935499.091,0.686,-0.676,0.195,0.188,0,0,0,0,0,0,0,0,0,0.000,0,0,0.060,0.004,0.040,0.020,-0.040,0.015,0.993,0.013,0.000,-0.004,-0.008,0.000,0.000,0.000,0.000,0,2,0,3,7,255,960,300,0,0,-89.393,0.800,-31.465
EX0521-092111,19,C13,prep,1007,1007,0,935504.092,0.686,-0.676,0.195,0.188,0,0,0,0,0,0,0,0,0,0.000,0,0,0.060,0.006,-0.020,-0.040,-0.040,0.014,0.992,0.011,-0.004,-0.004,-0.012,0.000,0.000,0.000,0.000,0,2,0,3,7,255,960,300,0,0,-89.393,0.800,-31.465
EX0521-092111,19,C13,prep,1007,1007,0,935509.092,0.686,-0.676,0.195,0.188,0,0,0,0,0,0,0,0,0,0.000,0,0,0.060,0.012,0.040,-0.040,0.020,0.014,0.993,0.013,-0.006,-0.010,-0.008,0.000,0.000,0.000,0.000,0,2,0,3,7,255,960,300,0,0,-89.393,0.800,-31.465
EX0521-092111,19,C13,prep,1007,1007,0,935514.093,0.686,-0.676,0.195,0.188,0,0,0,0,0,0,0,0,0,0.000,0,0,0.060,0.007,-0.020,-0.040,-0.040,0.015,0.992,0.012,-0.004,-0.006,-0.012,0.000,0.000,0.000,0.000,0,2,0,3,7,255,960,300,0,0,-89.394,0.800,-31.465
EX0521-092111,19,C13,prep,1007,1007,0,935519.092,0.686,-0.676,0.195,0.188,0,0,0,0,0,0,0,0,0,0.000,0,0,0.060,0.012,-0.020,-0.040,-0.040,0.016,0.993,0.012,0.006,-0.010,-0.008,0.000,0.000,0.000,0.000,0,2,0,3,7,255,960,300,0,0,-89.394,0.800,-31.465
EX0521-092111,19,C13,prep,1007,1007,0,935524.091,0.686,-0.676,0.195,0.188,0,0,0,0,0,0,0,0,0,0.000,0,0,0.049,0.008,-0.020,-0.040,0.020,0.015,0.993,0.012,0.006,-0.006,-0.008,0.000,0.000,0.000,0.000,0,2,0,3,7,255,960,300,0,0,-89.394,0.800,-31.465
EX0521-092111,19,C13,prep,1024,1024,0,935529.091,0.686,-0.676,0.195,0.188,0,0,0,0,0,0,0,0,0,0.000,0,0,0.035,0.004,-0.020,0.020,0.020,0.013,0.993,0.013,0.002,-0.004,-0.008,0.000,0.000,0.000,0.000,0,2,0,3,7,255,960,300,0,0,-89.394,0.800,-31.465
EX0521-092111,19,C13,prep,1024,1024,0,935534.092,0.686,-0.676,0.195,0.188,0,0,0,0,0,0,0,0,0,0.000,0,0,0.104,0.004,-0.020,-0.100,0.020,0.015,0.993,0.011,0.002,-0.004,-0.002,0.000,0.000,0.000,0.000,0,2,0,3,7,255,960,300,0,0,-89.394,0.800,-31.465
EX0521-092111,19,C13,prep,1024,1024,0,935539.091,0.686,-0.676,0.195,0.188,0,0,0,0,0,0,0,0,0,0.000,0,0,0.060,0.004,0.040,-0.040,0.020,0.015,0.993,0.012,-0.002,-0.004,-0.002,0.000,0.000,0.000,0.000,0,2,0,3,7,255,960,300,0,0,-89.394,0.800,-31.465
EX0521-092111,19,C13,prep,1024,1024,0,935544.092,0.686,-0.676,0.195,0.188,0,0,0,0,0,0,0,0,0,0.000,0,0,0.060,0.006,0.040,0.020,-0.040,0.014,0.993,0.012,-0.002,-0.006,-0.002,0.000,0.000,0.000,0.000,0,2,0,3,7,255,960,300,0,0,-89.394,0.800,-31.465
EX0521-092111,19,C13,prep,1039,1039,0,935549.092,0.686,-0.676,0.195,0.188,0,0,0,0,0,0,0,0,0,0.000,0,0,0.060,0.006,-0.020,-0.040,-0.040,0.014,0.994,0.010,-0.002,-0.006,-0.002,0.000,0.000,0.000,0.000,0,2,0,3,7,255,960,300,0,0,-89.394,0.800,-31.465
EX0521-092111,19,C13,prep,1039,1039,0,935554.091,0.686,-0.676,0.195,0.188,0,0,0,0,0,0,0,0,0,0.000,0,0,0.060,0.007,-0.020,-0.040,-0.040,0.015,0.992,0.012,0.004,-0.006,-0.002,0.000,0.000,0.000,0.000,0,2,0,3,7,255,960,300,0,0,-89.394,0.800,-31.465
EX0521-092111,19,C13,prep,1039,1039,0,935559.093,0.686,-0.676,0.195,0.188,0,0,0,0,0,0,0,0,0,0.000,0,0,0.049,0.004,0.040,0.020,0.020,0.014,0.994,0.011,0.004,0.002,0.002,0.000,0.000,0.000,0.000,0,2,0,3,7,255,960,300,0,0,-89.394,0.800,-31.465
EX0521-092111,19,C13,prep,1039,1039,0,935564.093,0.686,-0.676,0.195,0.188,0,0,0,0,0,0,0,0,0,0.000,0,0,0.060,0.004,0.040,-0.040,0.020,0.015,0.994,0.011,0.004,0.000,0.002,0.000,0.000,0.000,0.000,0,2,0,3,7,255,960,300,0,0,-89.394,0.800,-31.465
EX0521-092111,19,C13,prep,1059,1059,0,935569.091,0.686,-0.676,0.195,0.188,0,0,0,0,0,0,0,0,0,0.000,0,0,0.069,0.000,0.040,-0.040,-0.040,0.014,0.994,0.012,0.000,0.000,0.002,0.000,0.000,0.000,0.000,0,2,0,3,7,255,960,300,0,0,-89.394,0.800,-31.465
EX0521-092111,19,C13,prep,1059,1059,0,935574.092,0.686,-0.676,0.195,0.188,0,0,0,0,0,0,0,0,0,0.000,0,0,0.069,0.002,0.040,-0.040,-0.040,0.013,0.993,0.012,-0.002,0.000,0.002,0.000,0.000,0.000,0.000,0,2,0,3,7,255,960,300,0,0,-89.394,0.800,-31.465
EX0521-092111,19,C13,prep,1060,1060,0,935579.092,0.686,-0.676,0.195,0.188,0,0,0,0,0,0,0,0,0,0.000,0,0,0.069,0.003,0.040,-0.040,-0.040,0.015,0.994,0.012,-0.002,-0.002,0.002,0.000,0.000,0.000,0.000,0,2,0,3,7,255,960,300,0,0,-89.394,0.800,-31.465
EX0521-092111,19,C13,prep,1060,1060,0,935584.091,0.686,-0.676,0.195,0.188,0,0,0,0,0,0,0,0,0,0.000,0,0,0.060,0.002,-0.020,-0.040,-0.040,0.014,0.992,0.011,0.000,0.002,-0.008,0.000,0.000,0.000,0.000,0,2,0,3,7,255,960,300,0,0,-89.394,0.800,-31.465
EX0521-092111,19,C13,prep,1071,1071,0,935589.092,0.686,-0.676,0.195,0.188,0,0,0,0,0,0,0,0,0,0.000,0,0,0.060,0.000,0.040,-0.040,0.020,0.014,0.994,0.012,0.000,0.000,0.002,0.000,0.000,0.000,0.000,0,2,0,3,7,255,960,300,0,0,-89.394,0.800,-31.465
EX0521-092111,19,C13,prep,1071,1071,0,935594.091,0.686,-0.676,0.195,0.188,0,0,0,0,0,0,0,0,0,0.000,0,0,0.060,0.000,-0.020,-0.040,-0.040,0.015,0.993,0.011,0.000,0.000,-0.008,0.000,0.000,0.000,0.000,0,2,0,3,7,255,960,300,0,0,-89.394,0.800,-31.465
EX0521-092111,19,C13,prep,1103,1103,0,935599.092,0.686,-0.676,0.195,0.188,0,0,0,0,0,0,0,0,0,0.000,0,0,0.060,0.004,-0.020,-0.040,-0.040,0.016,0.994,0.011,0.004,0.000,0.002,0.000,0.000,0.000,0.000,0,2,0,3,7,255,960,300,0,0,-89.394,0.800,-31.465
EX0521-092111,19,C13,prep,1103,1103,0,935604.092,0.686,-0.676,0.195,0.188,0,0,0,0,0,0,0,0,0,0.000,0,0,0.049,0.004,-0.020,-0.040,0.020,0.015,0.994,0.012,0.004,0.000,0.002,0.000,0.000,0.000,0.000,0,2,0,3,7,255,960,300,0,0,-89.394,0.800,-31.465
EX0521-092111,19,C13,prep,1103,1103,0,935609.092,0.686,-0.676,0.195,0.188,0,0,0,0,0,0,0,0,0,0.000,0,0,0.049,0.002,0.040,0.020,0.020,0.013,0.992,0.011,0.002,0.000,0.002,0.000,0.000,0.000,0.000,0,2,0,3,7,255,960,300,0,0,-89.394,0.800,-31.465
EX0521-092111,19,C13,prep,1103,1103,0,935614.093,0.686,-0.676,0.195,0.188,0,0,0,0,0,0,0,0,0,0.000,0,0,0.069,0.003,0.040,-0.040,-0.040,0.014,0.994,0.012,-0.002,-0.002,0.002,0.000,0.000,0.000,0.000,0,2,0,3,7,255,960,300,0,0,-89.394,0.800,-31.465
EX0521-092111,19,C13,prep,1103,1103,0,935619.092,0.686,-0.676,0.195,0.188,0,0,0,0,0,0,0,0,0,0.000,0,0,0.035,0.006,-0.020,0.020,0.020,0.014,0.994,0.012,-0.006,0.002,0.002,0.000,0.000,0.000,0.000,0,2,0,3,7,255,960,300,0,0,-89.394,0.800,-31.465
EX0521-092111,19,C13,prep,1103,1103,0,935624.091,0.686,-0.676,0.195,0.188,0,0,0,0,0,0,0,0,0,0.000,0,0,0.049,0.003,-0.020,-0.040,0.020,0.015,0.994,0.012,-0.002,-0.002,0.002,0.000,0.000,0.000,0.000,0,2,0,3,7,255,960,300,0,0,-89.394,0.800,-31.465
EX0521-092111,19,C13,prep,1123,1123,0,935629.092,0.686,-0.676,0.195,0.188,0,0,0,0,0,0,0,0,0,0.000,0,0,0.060,0.003,-0.020,-0.040,-0.040,0.014,0.993,0.011,0.002,0.002,0.002,0.000,0.000,0.000,0.000,0,2,0,3,7,255,960,300,0,0,-89.394,0.800,-31.465
EX0521-092111,19,C13,prep,1123,1123,0,935634.092,0.686,-0.676,0.195,0.188,0,0,0,0,0,0,0,0,0,0.000,0,0,0.060,0.004,-0.020,-0.040,-0.040,0.015,0.993,0.012,0.002,-0.004,-0.002,0.000,0.000,0.000,0.000,0,2,0,3,7,255,960,300,0,0,-89.394,0.800,-31.465
EX0521-092111,19,C13,prep,1124,1124,0,935639.091,0.686,-0.676,0.195,0.188,0,0,0,0,0,0,0,0,0,0.000,0,0,0.060,0.006,-0.020,-0.040,-0.040,0.014,0.993,0.011,0.002,0.006,-0.002,0.000,0.000,0.000,0.000,0,2,0,3,7,255,960,300,0,0,-89.394,0.800,-31.465
EX0521-092111,19,C13,prep,1124,1124,0,935644.092,0.686,-0.676,0.195,0.188,0,0,0,0,0,0,0,0,0,0.000,0,0,0.060,0.006,0.040,-0.040,0.020,0.013,0.994,0.012,-0.002,0.006,-0.002,0.000,0.000,0.000,0.000,0,2,0,3,7,255,960,300,0,0,-89.394,0.800,-31.465
EX0521-092111,19,C13,prep,1124,1124,0,935649.092,0.686,-0.676,0.195,0.188,0,0,0,0,0,0,0,0,0,0.000,0,0,0.060,0.006,-0.020,-0.040,-0.040,0.015,0.993,0.012,-0.002,0.006,-0.002,0.000,0.000,0.000,0.000,0,2,0,3,7,255,960,300,0,0,-89.394,0.800,-31.465
EX0521-092111,19,C13,prep,1124,1124,0,935654.091,0.686,-0.676,0.195,0.188,0,0,0,0,0,0,0,0,0,0.000,0,0,0.060,0.008,0.040,0.020,-0.040,0.014,0.994,0.012,-0.006,-0.006,0.002,0.000,0.000,0.000,0.000,0,2,0,3,7,255,960,300,0,0,-89.394,0.800,-31.465
EX0521-092111,19,C13,prep,1154,1154,0,935659.092,0.686,-0.676,0.195,0.188,0,0,0,0,0,0,0,0,0,0.000,0,0,0.069,0.008,0.040,-0.040,-0.040,0.015,0.994,0.012,0.000,-0.008,0.002,0.000,0.000,0.000,0.000,0,2,0,3,7,255,960,300,0,0,-89.394,0.800,-31.465
EX0521-092111,19,C13,prep,1154,1154,0,935664.091,0.686,-0.676,0.195,0.188,0,0,0,0,0,0,0,0,0,0.000,0,0,0.060,0.007,-0.020,-0.040,-0.040,0.015,0.994,0.011,0.004,-0.006,0.002,0.000,0.000,0.000,0.000,0,2,0,3,7,255,960,300,0,0,-89.394,0.800,-31.465
EX0521-092111,19,C13,prep,1154,1154,0,935669.092,0.686,-0.676,0.195,0.188,0,0,0,0,0,0,0,0,0,0.000,0,0,0.110,0.007,0.040,-0.100,0.020,0.015,0.995,0.010,0.006,0.004,0.008,0.000,0.000,0.000,0.000,0,2,0,3,7,255,960,300,0,0,-89.394,0.800,-31.465
EX0521-092111,19,C13,prep,1154,1154,0,935674.092,0.686,-0.676,0.195,0.188,0,0,0,0,0,0,0,0,0,0.000,0,0,0.060,0.007,-0.020,-0.040,-0.040,0.015,0.994,0.011,0.006,0.004,0.002,0.000,0.000,0.000,0.000,0,2,0,3,7,255,960,300,0,0,-89.394,0.800,-31.465
EX0521-092111,19,C13,prep,1155,1155,0,935679.091,0.686,-0.676,0.195,0.188,0,0,0,0,0,0,0,0,0,0.000,0,0,0.060,0.004,-0.020,-0.040,-0.040,0.014,0.993,0.012,0.004,0.000,0.002,0.000,0.000,0.000,0.000,0,2,0,3,7,255,960,300,0,0,-89.394,0.800,-31.465
EX0521-092111,19,C13,prep,1155,1155,0,935684.092,0.686,-0.676,0.195,0.188,0,0,0,0,0,0,0,0,0,0.000,0,0,0.069,0.006,0.040,-0.040,-0.040,0.014,0.994,0.012,-0.006,0.000,0.002,0.000,0.000,0.000,0.000,0,2,0,3,7,255,960,300,0,0,-89.394,0.800,-31.465
EX0521-092111,19,C13,prep,1167,1167,0,935689.092,0.686,-0.676,0.195,0.188,0,0,0,0,0,0,0,0,0,0.000,0,0,0.060,0.007,-0.020,-0.040,-0.040,0.015,0.993,0.012,-0.006,-0.004,-0.002,0.000,0.000,0.000,0.000,0,2,0,3,7,255,960,300,0,0,-89.394,0.800,-31.465
EX0521-092111,19,C13,prep,1167,1167,0,935694.091,0.686,-0.676,0.195,0.188,0,0,0,0,0,0,0,0,0,0.000,0,0,0.060,0.000,-0.020,-0.040,-0.040,0.015,0.994,0.011,0.000,0.000,0.006,0.000,0.000,0.000,0.000,0,2,0,3,7,255,960,300,0,0,-89.394,0.800,-31.465
EX0521-092111,19,C13,prep,1199,1199,0,935699.092,0.686,-0.676,0.195,0.188,0,0,0,0,0,0,0,0,0,0.000,0,0,0.049,0.004,-0.020,-0.040,0.020,0.015,0.994,0.011,0.004,0.000,0.002,0.000,0.000,0.000,0.000,0,2,0,3,7,255,960,300,0,0,-89.394,0.800,-31.465
EX0521-092111,19,C13,prep,1199,1199,0,935704.092,0.686,-0.676,0.195,0.188,0,0,0,0,0,0,0,0,0,0.000,0,0,0.060,0.004,-0.020,-0.040,-0.040,0.015,0.993,0.012,0.004,0.000,0.002,0.000,0.000,0.000,0.000,0,2,0,3,7,255,960,300,0,0,-89.394,0.800,-31.465
EX0521-092111,19,C13,prep,1199,1199,0,935709.092,0.686,-0.676,0.195,0.188,0,0,0,0,0,0,0,0,0,0.000,0,0,0.049,0.004,-0.020,-0.040,0.020,0.015,0.993,0.011,0.004,-0.002,-0.002,0.000,0.000,0.000,0.000,0,2,0,3,7,255,960,300,0,0,-89.394,0.800,-31.465
EX0521-092111,19,C13,prep,1199,1199,0,935714.093,0.686,-0.676,0.195,0.188,0,0,0,0,0,0,0,0,0,0.000,0,0,0.049,0.004,-0.020,0.020,-0.040,0.015,0.994,0.012,0.002,-0.004,-0.002,0.000,0.000,0.000,0.000,0,2,0,3,7,255,960,300,0,0,-89.394,0.800,-31.465
EX0521-092111,19,C13,prep,1199,1199,0,935719.091,0.686,-0.676,0.195,0.188,0,0,0,0,0,0,0,0,0,0.000,0,0,0.069,0.008,0.040,-0.040,-0.040,0.015,0.994,0.010,0.008,-0.002,0.002,0.000,0.000,0.000,0.000,0,2,0,3,7,255,960,300,0,0,-89.394,0.800,-31.465
EX0521-092111,19,C13,prep,1199,1199,0,935724.091,0.686,-0.676,0.195,0.188,0,0,0,0,0,0,0,0,0,0.000,0,0,0.049,0.006,-0.020,-0.040,0.020,0.013,0.993,0.011,0.002,0.006,0.002,0.000,0.000,0.000,0.000,0,2,0,3,7,255,960,300,0,0,-89.394,0.800,-31.465
EX0521-092111,19,C13,prep,1226,1226,0,935729.092,0.686,-0.676,0.195,0.188,0,0,0,0,0,0,0,0,0,0.000,0,0,0.035,0.008,-0.020,0.020,0.020,0.014,0.993,0.011,-0.002,0.008,-0.002,0.000,0.000,0.000,0.000,0,2,0,3,7,255,960,300,0,0,-89.394,0.800,-31.465
EX0521-092111,19,C13,prep,1226,1226,0,935734.091,0.686,-0.676,0.195,0.188,0,0,0,0,0,0,0,0,0,0.000,0,0,0.060,0.011,-0.020,-0.040,-0.040,0.013,0.993,0.011,-0.008,0.008,-0.002,0.000,0.000,0.000,0.000,0,2,0,3,7,255,960,300,0,0,-89.394,0.800,-31.465
EX0521-092111,19,C13,prep,1227,1227,0,935739.092,0.686,-0.676,0.195,0.188,0,0,0,0,0,0,0,0,0,0.000,0,0,0.060,0.008,0.040,0.020,-0.040,0.015,0.994,0.011,-0.002,0.008,-0.002,0.000,0.000,0.000,0.000,0,2,0,3,7,255,960,300,0,0,-89.394,0.800,-31.465
EX0521-092111,19,C13,prep,1227,1227,0,935744.092,0.686,-0.676,0.195,0.188,0,0,0,0,0,0,0,0,0,0.000,0,0,0.060,0.006,-0.020,-0.040,-0.040,0.014,0.994,0.011,-0.004,0.004,0.002,0.000,0.000,0.000,0.000,0,2,0,3,7,255,960,300,0,0,-89.395,0.800,-31.465
EX0521-092111,19,C13,prep,1228,1228,0,935749.092,0.686,-0.676,0.195,0.188,0,0,0,0,0,0,0,0,0,0.000,0,0,0.060,0.006,-0.020,-0.040,-0.040,0.014,0.994,0.012,-0.004,0.004,0.002,0.000,0.000,0.000,0.000,0,2,0,3,7,255,960,300,0,0,-89.395,0.800,-31.465
EX0521-092111,19,C13,prep,1228,1228,0,935754.092,0.686,-0.676,0.195,0.188,0,0,0,0,0,0,0,0,0,0.000,0,0,0.069,0.007,0.040,-0.040,-0.040,0.016,0.993,0.011,-0.004,-0.006,0.002,0.000,0.000,0.000,0.000,0,2,0,3,7,255,960,300,0,0,-89.395,0.800,-31.465
EX0521-092111,19,C13,prep,1258,1258,0,935759.092,0.686,-0.676,0.195,0.188,0,0,0,0,0,0,0,0,0,0.000,0,0,0.049,0.007,-0.020,-0.040,0.020,0.015,0.995,0.013,-0.004,-0.006,0.002,0.000,0.000,0.000,0.000,0,2,0,3,7,255,960,300,0,0,-89.395,0.800,-31.465
EX0521-092111,19,C13,prep,1258,1258,0,935764.093,0.686,-0.676,0.195,0.188,0,0,0,0,0,0,0,0,0,0.000,0,0,0.060,0.008,0.040,-0.040,0.020,0.015,0.994,0.012,0.006,-0.006,0.006,0.000,0.000,0.000,0.000,0,2,0,3,7,255,960,300,0,0,-89.395,0.800,-31.465
EX0521-092111,19,C13,prep,1258,1258,0,935769.093,0.686,-0.676,0.195,0.188,0,0,0,0,0,0,0,0,0,0.000,0,0,0.060,0.007,-0.020,-0.040,-0.040,0.015,0.993,0.011,0.004,-0.006,0.006,0.000,0.000,0.000,0.000,0,2,0,3,7,255,960,300,0,0,-89.395,0.800,-31.465
EX0521-092111,19,C13,prep,1258,1258,0,935774.092,0.686,-0.676,0.195,0.188,0,0,0,0,0,0,0,0,0,0.000,0,0,0.060,0.006,-0.020,-0.040,-0.040,0.015,0.992,0.012,0.004,-0.004,-0.008,0.000,0.000,0.000,0.000,0,2,0,3,7,255,960,300,0,0,-89.395,0.800,-31.465
EX0521-092111,19,C13,prep,1259,1259,0,935779.091,0.686,-0.676,0.195,0.188,0,0,0,0,0,0,0,0,0,0.000,0,0,0.069,0.003,0.040,-0.040,-0.040,0.014,0.992,0.012,0.002,-0.002,-0.012,0.000,0.000,0.000,0.000,0,2,0,3,7,255,960,300,0,0,-89.395,0.800,-31.465
EX0521-092111,19,C13,prep,1259,1259,0,935784.092,0.686,-0.676,0.195,0.188,0,0,0,0,0,0,0,0,0,0.000,0,0,0.060,0.003,0.040,-0.040,0.020,0.015,0.993,0.011,0.002,-0.002,-0.012,0.000,0.000,0.000,0.000,0,2,0,3,7,255,960,300,0,0,-89.395,0.800,-31.465
EX0521-092111,19,C13,prep,1292,1292,0,935789.091,0.686,-0.676,0.195,0.188,0,0,0,0,0,0,0,0,0,0.000,0,0,0.049,0.004,-0.020,-0.040,0.020,0.014,0.994,0.011,-0.002,0.004,-0.002,0.000,0.000,0.000,0.000,0,2,0,3,7,255,960,300,0,0,-89.395,0.800,-31.465
EX0521-092111,19,C13,prep,1292,1292,0,935794.091,0.686,-0.676,0.195,0.188,0,0,0,0,0,0,0,0,0,0.000,0,0,0.049,0.007,-0.020,-0.040,0.020,0.013,0.995,0.011,-0.004,0.006,0.002,0.000,0.000,0.000,0.000,0,2,0,3,7,255,960,300,0,0,-89.395,0.800,-31.465
EX0521-092111,19,C13,prep,1325,1325,0,935799.092,0.686,-0.676,0.195,0.188,0,0,0,0,0,0,0,0,0,0.000,0,0,0.049,0.008,-0.020,0.020,-0.040,0.014,0.993,0.012,-0.006,0.006,0.002,0.000,0.000,0.000,0.000,0,2,0,3,7,255,960,300,0,0,-89.395,0.800,-31.465
EX0521-092111,19,C13,prep,1325,1325,0,935804.091,0.686,-0.676,0.195,0.188,0,0,0,0,0,0,0,0,0,0.000,0,0,0.069,0.006,0.040,-0.040,-0.040,0.015,0.993,0.011,-0.006,0.002,-0.002,0.000,0.000,0.000,0.000,0,2,0,3,7,255,960,300,0,0,-89.395,0.800,-31.465
EX0521-092111,19,C13,prep,1325,1325,0,935809.092,0.686,-0.676,0.195,0.188,0,0,0,0,0,0,0,0,0,0.000,0,0,0.085,0.006,-0.080,0.020,0.020,0.014,0.993,0.012,-0.006,0.000,-0.008,0.000,0.000,0.000,0.000,0,2,0,3,7,255,960,300,0,0,-89.395,0.800,-31.465
EX0521-092111,19,C13,prep,1325,1325,0,935814.093,0.686,-0.676,0.195,0.188,0,0,0,0,0,0,0,0,0,0.000,0,0,0.069,0.008,0.040,-0.040,-0.040,0.015,0.993,0.011,0.008,-0.002,-0.008,0.000,0.000,0.000,0.000,0,2,0,3,7,255,960,300,0,0,-89.395,0.800,-31.465
EX0521-092111,19,C13,prep,1325,1325,0,935819.091,0.686,-0.676,0.195,0.188,0,0,0,0,0,0,0,0,0,0.000,0,0,0.060,0.002,-0.020,-0.040,-0.040,0.014,0.993,0.011,0.000,-0.002,-0.008,0.000,0.000,0.000,0.000,0,2,0,3,7,255,960,300,0,0,-89.395,0.800,-31.465
EX0521-092111,19,C13,prep,1325,1325,0,935824.092,0.686,-0.676,0.195,0.188,0,0,0,0,0,0,0,0,0,0.000,0,0,0.049,0.008,-0.020,-0.040,0.020,0.015,0.994,0.011,0.008,-0.002,-0.002,0.000,0.000,0.000,0.000,0,2,0,3,7,255,960,300,0,0,-89.395,0.800,-31.465
EX0521-092111,19,C13,prep,1325,1325,0,935829.092,0.686,-0.676,0.195,0.188,0,0,0,0,0,0,0,0,0,0.000,0,0,0.069,0.008,0.040,-0.040,-0.040,0.016,0.994,0.011,0.008,-0.002,0.002,0.000,0.000,0.000,0.000,0,2,0,3,7,255,960,300,0,0,-89.395,0.800,-31.465
EX0521-092111,19,C13,prep,1325,1325,0,935834.091,0.686,-0.676,0.195,0.188,0,0,0,0,0,0,0,0,0,0.000,0,0,0.049,0.009,-0.020,-0.040,0.020,0.015,0.992,0.012,0.008,-0.004,0.002,0.000,0.000,0.000,0.000,0,2,0,3,7,255,960,300,0,0,-89.395,0.800,-31.465
EX0521-092111,19,C13,prep,1326,1326,0,935839.092,0.686,-0.676,0.195,0.188,0,0,0,0,0,0,0,0,0,0.000,0,0,0.069,0.006,0.040,-0.040,-0.040,0.015,0.994,0.011,0.004,-0.004,0.002,0.000,0.000,0.000,0.000,0,2,0,3,7,255,960,300,0,0,-89.395,0.800,-31.465
EX0521-092111,19,C13,prep,1326,1326,0,935844.091,0.686,-0.676,0.195,0.188,0,0,0,0,0,0,0,0,0,0.000,0,0,0.049,0.004,-0.020,0.020,-0.040,0.015,0.994,0.012,0.000,-0.004,0.008,0.000,0.000,0.000,0.000,0,2,0,3,7,255,960,300,0,0,-89.395,0.800,-31.465
EX0521-092111,19,C13,prep,1326,1326,0,935849.092,0.686,-0.676,0.195,0.188,0,0,0,0,0,0,0,0,0,0.000,0,0,0.060,0.002,-0.020,-0.040,-0.040,0.014,0.993,0.012,0.000,-0.002,0.008,0.000,0.000,0.000,0.000,0,2,0,3,7,255,960,300,0,0,-89.395,0.800,-31.465
EX0521-092111,19,C13,prep,1326,1326,0,935854.092,0.686,-0.676,0.195,0.188,0,0,0,0,0,0,0,0,0,0.000,0,0,0.060,0.002,-0.020,-0.040,-0.040,0.015,0.993,0.011,0.000,-0.002,-0.002,0.000,0.000,0.000,0.000,0,2,0,3,7,255,960,300,0,0,-89.395,0.800,-31.465
EX0521-092111,19,C13,prep,1356,1356,0,935859.091,0.686,-0.676,0.195,0.188,0,0,0,0,0,0,0,0,0,0.000,0,0,0.035,0.007,-0.020,0.020,0.020,0.015,0.992,0.011,0.006,0.004,-0.002,0.000,0.000,0.000,0.000,0,2,0,3,7,255,960,300,0,0,-89.395,0.800,-31.465
EX0521-092111,19,C13,prep,1356,1356,0,935864.091,0.686,-0.676,0.195,0.188,0,0,0,0,0,0,0,0,0,0.000,0,0,0.060,0.007,-0.020,-0.040,-0.040,0.015,0.993,0.011,0.006,0.004,-0.002,0.000,0.000,0.000,0.000,0,2,0,3,7,255,960,300,0,0,-89.395,0.800,-31.465
EX0521-092111,19,C13,prep,1358,1358,0,935869.092,0.686,-0.676,0.195,0.188,0,0,0,0,0,0,0,0,0,0.000,0,0,0.060,0.009,-0.020,-0.040,-0.040,0.015,0.992,0.010,0.008,0.004,-0.012,0.000,0.000,0.000,0.000,0,2,0,3,7,255,960,300,0,0,-89.395,0.800,-31.465
EX0521-092111,19,C13,prep,1358,1358,0,935874.091,0.686,-0.676,0.195,0.188,0,0,0,0,0,0,0,0,0,0.000,0,0,0.069,0.008,0.040,-0.040,-0.040,0.014,0.993,0.012,0.008,0.002,-0.002,0.000,0.000,0.000,0.000,0,2,0,3,7,255,960,300,0,0,-89.395,0.800,-31.465
EX0521-092111,19,C13,prep,1358,1358,0,935879.092,0.686,-0.676,0.195,0.188,0,0,0,0,0,0,0,0,0,0.000,0,0,0.069,0.009,0.040,-0.040,-0.040,0.016,0.994,0.010,0.008,0.004,-0.002,0.000,0.000,0.000,0.000,0,2,0,3,7,255,960,300,0,0,-89.395,0.800,-31.465
EX0521-092111,19,C13,prep,1358,1358,0,935884.092,0.686,-0.676,0.195,0.188,0,0,0,0,0,0,0,0,0,0.000,0,0,0.069,0.007,0.040,-0.040,-0.040,0.014,0.994,0.011,-0.006,0.004,0.008,0.000,0.000,0.000,0.000,0,2,0,3,7,255,960,300,0,0,-89.395,0.800,-31.465
EX0521-092111,19,C13,prep,1392,1392,0,935889.091,0.686,-0.676,0.195,0.188,0,0,0,0,0,0,0,0,0,0.000,0,0,0.060,0.004,-0.020,-0.040,-0.040,0.015,0.994,0.012,0.000,0.004,0.008,0.000,0.000,0.000,0.000,0,2,0,3,7,255,960,300,0,0,-89.395,0.800,-31.465
EX0521-092111,19,C13,prep,1392,1392,0,935894.092,0.686,-0.676,0.195,0.188,0,0,0,0,0,0,0,0,0,0.000,0,0,0.069,0.007,0.040,-0.040,-0.040,0.013,0.995,0.013,-0.006,-0.004,0.008,0.000,0.000,0.000,0.000,0,2,0,3,7,255,960,300,0,0,-89.395,0.800,-31.465
EX0521-092111,19,C13,prep,1407,1407,0,935899.092,0.686,-0.676,0.195,0.188,0,0,0,0,0,0,0,0,0,0.000,0,0,0.069,0.006,0.040,-0.040,-0.040,0.014,0.993,0.011,-0.004,-0.004,0.002,0.000,0.000,0.000,0.000,0,2,0,3,7,255,960,300,0,0,-89.395,0.800,-31.465
EX0521-092111,19,C13,prep,1407,1407,0,935904.091,0.686,-0.676,0.195,0.188,0,0,0,0,0,0,0,0,0,0.000,0,0,0.049,0.006,-0.020,-0.040,0.020,0.014,0.993,0.011,-0.004,0.004,-0.008,0.000,0.000,0.000,0.000,0,2,0,3,7,255,960,300,0,0,-89.395,0.800,-31.465
EX0521-092111,19,C13,prep,1407,1407,0,935909.093,0.686,-0.676,0.195,0.188,0,0,0,0,0,0,0,0,0,0.000,0,0,0.060,0.006,-0.020,-0.040,-0.040,0.014,0.992,0.012,-0.004,0.004,-0.008,0.000,0.000,0.000,0.000,0,2,0,3,7,255,960,300,0,0,-89.395,0.800,-31.465
EX0521-092111,19,C13,prep,1407,1407,0,935914.093,0.686,-0.676,0.195,0.188,0,0,0,0,0,0,0,0,0,0.000,0,0,0.060,0.006,-0.020,-0.040,-0.040,0.014,0.993,0.011,0.002,0.006,-0.008,0.000,0.000,0.000,0.000,0,2,0,3,7,255,960,300,0,0,-89.395,0.800,-31.465
EX0521-092111,19,C13,prep,1407,1407,0,935919.091,0.686,-0.676,0.195,0.188,0,0,0,0,0,0,0,0,0,0.000,0,0,0.110,0.006,-0.020,-0.040,-0.100,0.014,0.994,0.011,0.002,0.006,-0.006,0.000,0.000,0.000,0.000,0,2,0,3,7,255,960,300,0,0,-89.395,0.800,-31.465
EX0521-092111,19,C13,prep,1407,1407,0,935924.092,0.686,-0.676,0.195,0.188,0,0,0,0,0,0,0,0,0,0.000,0,0,0.069,0.006,0.040,-0.040,-0.040,0.014,0.993,0.011,0.002,0.006,-0.006,0.000,0.000,0.000,0.000,0,2,0,3,7,255,960,300,0,0,-89.395,0.800,-31.465
EX0521-092111,19,C13,prep,1424,1424,0,935929.091,0.686,-0.676,0.195,0.188,0,0,0,0,0,0,0,0,0,0.000,0,0,0.060,0.006,-0.020,-0.040,-0.040,0.015,0.993,0.012,0.002,0.006,-0.002,0.000,0.000,0.000,0.000,0,2,0,3,7,255,960,300,0,0,-89.395,0.800,-31.465
EX0521-092111,19,C13,prep,1424,1424,0,935934.091,0.686,-0.676,0.195,0.188,0,0,0,0,0,0,0,0,0,0.000,0,0,0.060,0.008,-0.020,-0.040,-0.040,0.015,0.994,0.012,-0.002,-0.008,-0.002,0.000,0.000,0.000,0.000,0,2,0,3,7,255,960,300,0,0,-89.395,0.800,-31.465
EX0521-092111,19,C13,prep,1425,1425,0,935939.092,0.686,-0.676,0.195,0.188,0,0,0,0,0,0,0,0,0,0.000,0,0,0.060,0.008,-0.020,-0.040,-0.040,0.015,0.994,0.012,0.000,-0.008,0.002,0.000,0.000,0.000,0.000,0,2,0,3,7,255,960,300,0,0,-89.395,0.800,-31.465
EX0521-092111,19,C13,prep,1425,1425,0,935944.091,0.686,-0.676,0.195,0.188,0,0,0,0,0,0,0,0,0,0.000,0,0,0.049,0.004,-0.020,-0.040,0.020,0.015,0.994,0.012,0.000,-0.004,0.002,0.000,0.000,0.000,0.000,0,2,0,3,7,255,960,300,0,0,-89.395,0.800,-31.465
EX0521-092111,19,C13,prep,1426,1426,0,935949.092,0.686,-0.676,0.195,0.188,0,0,0,0,0,0,0,0,0,0.000,0,0,0.049,0.004,-0.020,-0.040,0.020,0.014,0.993,0.010,0.000,-0.004,0.002,0.000,0.000,0.000,0.000,0,2,0,3,7,255,960,300,0,0,-89.395,0.800,-31.465
EX0521-092111,19,C13,prep,1426,1426,0,935954.092,0.686,-0.676,0.195,0.188,0,0,0,0,0,0,0,0,0,0.000,0,0,0.060,0.007,0.040,0.020,-0.040,0.015,0.993,0.010,0.004,0.006,-0.002,0.000,0.000,0.000,0.000,0,2,0,3,7,255,960,300,0,0,-89.395,0.800,-31.465
EX0521-092111,19,C13,prep,1439,1439,0,935959.092,0.686,-0.676,0.195,0.188,0,0,0,0,0,0,0,0,0,0.000,0,0,0.060,0.007,-0.020,-0.040,-0.040,0.014,0.992,0.011,0.004,0.006,-0.002,0.000,0.000,0.000,0.000,0,2,0,3,7,255,960,300,0,0,-89.395,0.800,-31.465
EX0521-092111,19,C13,prep,1439,1439,0,935964.093,0.686,-0.676,0.195,0.188,0,0,0,0,0,0,0,0,0,0.000,0,0,0.060,0.006,-0.020,-0.040,-0.040,0.014,0.993,0.012,0.002,0.006,-0.002,0.000,0.000,0.000,0.000,0,2,0,3,7,255,960,300,0,0,-89.395,0.800,-31.465
EX0521-092111,19,C13,prep,1471,1471,0,935969.092,0.686,-0.676,0.195,0.188,0,0,0,0,0,0,0,0,0,0.000,0,0,0.049,0.002,-0.020,-0.040,0.020,0.015,0.993,0.012,0.000,-0.002,-0.002,0.000,0.000,0.000,0.000,0,2,0,3,7,255,960,300,0,0,-89.396,0.800,-31.465
EX0521-092111,19,C13,prep,1471,1471,0,935974.091,0.686,-0.676,0.195,0.188,0,0,0,0,0,0,0,0,0,0.000,0,0,0.069,0.004,0.040,-0.040,-0.040,0.015,0.993,0.012,-0.002,-0.004,-0.002,0.000,0.000,0.000,0.000,0,2,0,3,7,255,960,300,0,0,-89.396,0.800,-31.465
EX0521-092111,19,C13,prep,1471,1471,0,935979.092,0.686,-0.676,0.195,0.188,0,0,0,0,0,0,0,0,0,0.000,0,0,0.049,0.004,-0.020,-0.040,0.020,0.013,0.993,0.010,-0.002,-0.004,-0.002,0.000,0.000,0.000,0.000,0,2,0,3,7,255,960,300,0,0,-89.396,0.800,-31.465
EX0521-092111,19,C13,prep,1471,1471,0,935984.092,0.686,-0.676,0.195,0.188,0,0,0,0,0,0,0,0,0,0.000,0,0,0.049,0.003,-0.020,-0.040,0.020,0.014,0.994,0.011,-0.002,0.002,-0.002,0.000,0.000,0.000,0.000,0,2,0,3,7,255,960,300,0,0,-89.396,0.800,-31.465
EX0521-092111,19,C13,prep,1471,1471,0,935989.091,0.686,-0.676,0.195,0.188,0,0,0,0,0,0,0,0,0,0.000,0,0,0.069,0.002,0.040,-0.040,-0.040,0.015,0.993,0.012,0.000,0.002,-0.006,0.000,0.000,0.000,0.000,0,2,0,3,7,255,960,300,0,0,-89.396,0.800,-31.465
EX0521-092111,19,C13,prep,1471,1471,0,935994.092,0.686,-0.676,0.195,0.188,0,0,0,0,0,0,0,0,0,0.000,0,0,0.049,0.004,-0.020,-0.040,0.020,0.014,0.995,0.013,0.000,-0.004,0.004,0.000,0.000,0.000,0.000,0,2,0,3,7,255,960,300,0,0,-89.396,0.800,-31.465
EX0521-092111,19,C13,prep,1503,1503,0,935999.091,0.686,-0.676,0.195,0.188,0,0,0,0,0,0,0,0,0,0.000,0,0,0.060,0.010,-0.020,-0.040,-0.040,0.016,0.993,0.012,0.000,-0.010,-0.002,0.000,0.000,0.000,0.000,0,2,0,3,7,255,960,300,0,0,-89.396,0.800,-31.465
EX0521-092111,19,C13,prep,1503,1503,0,936004.091,0.686,-0.676,0.195,0.188,0,0,0,0,0,0,0,0,0,0.000,0,0,0.060,0.011,0.040,-0.040,0.020,0.014,0.994,0.012,-0.004,-0.010,0.002,0.000,0.000,0.000,0.000,0,2,0,3,7,255,960,300,0,0,-89.396,0.800,-31.465
EX0521-092111,19,C13,prep,1503,1503,0,936009.092,0.686,-0.676,0.195,0.188,0,0,0,0,0,0,0,0,0,0.000,0,0,0.075,0.006,0.040,0.020,-0.060,0.014,0.994,0.012,-0.004,-0.004,0.002,0.000,0.000,0.000,0.000,0,2,0,3,7,255,960,300,0,0,-89.396,0.800,-31.465
EX0521-092111,19,C13,prep,1503,1503,0,936014.093,0.686,-0.676,0.195,0.188,0,0,0,0,0,0,0,0,0,0.000,0,0,0.082,0.004,0.040,-0.040,-0.060,0.015,0.994,0.011,-0.004,-0.002,0.002,0.000,0.000,0.000,0.000,0,2,0,3,7,255,960,300,0,0,-89.396,0.800,-31.465
EX0521-092111,19,C13,prep,1503,1503,0,936019.092,0.686,-0.676,0.195,0.188,0,0,0,0,0,0,0,0,0,0.000,0,0,0.060,0.004,0.040,-0.040,0.020,0.015,0.995,0.011,0.004,0.000,0.002,0.000,0.000,0.000,0.000,0,2,0,3,7,255,960,300,0,0,-89.396,0.800,-31.465
EX0521-092111,19,C13,prep,1503,1503,0,936024.092,0.686,-0.676,0.195,0.188,0,0,0,0,0,0,0,0,0,0.000,0,0,0.082,0.004,-0.040,-0.040,-0.060,0.014,0.994,0.012,0.004,0.000,0.002,0.000,0.000,0.000,0.000,0,2,0,3,7,255,960,300,0,0,-89.396,0.800,-31.465
EX0521-092111,19,C13,prep,1527,1527,0,936029.091,0.686,-0.676,0.195,0.188,0,0,0,0,0,0,0,0,0,0.000,0,0,0.049,0.004,0.040,0.020,0.020,0.015,0.995,0.012,0.004,-0.002,0.012,0.000,0.000,0.000,0.000,0,2,0,3,7,255,960,300,0,0,-89.396,0.800,-31.465
EX0521-092111,19,C13,prep,1527,1527,0,936034.092,0.686,-0.676,0.195,0.188,0,0,0,0,0,0,0,0,0,0.000,0,0,0.060,0.002,-0.040,-0.040,0.020,0.014,0.994,0.011,0.000,-0.002,0.008,0.000,0.000,0.000,0.000,0,2,0,3,7,255,960,300,0,0,-89.396,0.800,-31.465
EX0521-092111,19,C13,prep,1528,1528,0,936039.092,0.686,-0.676,0.195,0.188,0,0,0,0,0,0,0,0,0,0.000,0,0,0.075,0.004,-0.040,0.020,-0.060,0.015,0.993,0.011,0.004,0.002,0.008,0.000,0.000,0.000,0.000,0,2,0,3,7,255,960,300,0,0,-89.396,0.800,-31.465
EX0521-092111,19,C13,prep,1528,1528,0,936044.091,0.686,-0.676,0.195,0.188,0,0,0,0,0,0,0,0,0,0.000,0,0,0.123,0.006,-0.040,-0.100,-0.060,0.016,0.993,0.012,0.006,0.002,-0.002,0.000,0.000,0.000,0.000,0,2,0,3,7,255,960,300,0,0,-89.396,0.800,-31.465
EX0521-092111,19,C13,prep,1529,1529,0,936049.092,0.686,-0.676,0.195,0.188,0,0,0,0,0,0,0,0,0,0.000,0,0,0.082,0.010,-0.040,-0.040,-0.060,0.015,0.994,0.012,0.006,-0.008,-0.002,0.000,0.000,0.000,0.000,0,2,0,3,7,255,960,300,0,0,-89.396,0.800,-31.465
EX0521-092111,19,C13,prep,1529,1529,0,936054.092,0.686,-0.676,0.195,0.188,0,0,0,0,0,0,0,0,0,0.000,0,0,0.082,0.008,-0.040,-0.040,-0.060,0.013,0.994,0.011,-0.002,-0.008,0.008,0.000,0.000,0.000,0.000,0,2,0,3,7,255,960,300,0,0,-89.396,0.800,-31.465
EX0521-092111,19,C13,prep,1558,1558,0,936059.091,0.686,-0.676,0.195,0.188,0,0,0,0,0,0,0,0,0,0.000,0,0,0.069,0.002,0.040,-0.040,-0.040,0.016,0.996,0.011,-0.002,0.000,0.008,0.000,0.000,0.000,0.000,0,2,0,3,7,255,960,300,0,0,-89.396,0.800,-31.465
EX0521-092111,19,C13,prep,1558,1558,0,936064.092,0.686,-0.676,0.195,0.188,0,0,0,0,0,0,0,0,0,0.000,0,0,0.060,0.006,-0.020,-0.040,-0.040,0.016,0.993,0.012,0.006,0.000,0.008,0.000,0.000,0.000,0.000,0,2,0,3,7,255,960,300,0,0,-89.396,0.800,-31.465
EX0521-092111,19,C13,prep,1558,1558,0,936069.093,0.686,-0.676,0.195,0.188,0,0,0,0,0,0,0,0,0,0.000,0,0,0.060,0.006,0.040,-0.040,0.020,0.014,0.993,0.011,0.006,0.000,-0.002,0.000,0.000,0.000,0.000,0,2,0,3,7,255,960,300,0,0,-89.396,0.800,-31.465
EX0521-092111,19,C13,prep,1558,1558,0,936074.093,0.686,-0.676,0.195,0.188,0,0,0,0,0,0,0,0,0,0.000,0,0,0.069,0.003,0.040,-0.040,-0.040,0.014,0.993,0.011,-0.002,0.002,-0.002,0.000,0.000,0.000,0.000,0,2,0,3,7,255,960,300,0,0,-89.396,0.800,-31.465
EX0521-092111,19,C13,prep,1567,1567,0,936079.092,0.686,-0.676,0.195,0.188,0,0,0,0,0,0,0,0,0,0.000,0,0,0.069,0.003,0.040,-0.040,-0.040,0.015,0.994,0.011,-0.002,0.002,-0.002,0.000,0.000,0.000,0.000,0,2,0,3,7,255,960,300,0,0,-89.396,0.800,-31.465
EX0521-092111,19,C13,prep,1567,1567,0,936084.091,0.686,-0.676,0.195,0.188,0,0,0,0,0,0,0,0,0,0.000,0,0,0.049,0.002,-0.020,0.020,-0.040,0.014,0.994,0.012,-0.002,0.000,0.002,0.000,0.000,0.000,0.000,0,2,0,3,7,255,960,300,0,0,-89.396,0.800,-31.465
EX0521-092111,19,C13,prep,1567,1567,0,936089.091,0.686,-0.676,0.195,0.188,0,0,0,0,0,0,0,0,0,0.000,0,0,0.049,0.002,-0.020,0.020,-0.040,0.015,0.993,0.011,0.002,0.000,0.002,0.000,0.000,0.000,0.000,0,2,0,3,7,255,960,300,0,0,-89.396,0.801,-31.465
EX0521-092111,19,C13,prep,1567,1567,0,936094.092,0.686,-0.676,0.195,0.188,0,0,0,0,0,0,0,0,0,0.000,0,0,0.060,0.004,-0.020,-0.040,-0.040,0.014,0.993,0.012,-0.004,-0.002,-0.002,0.000,0.000,0.000,0.000,0,2,0,3,7,255,960,300,0,0,-89.396,0.801,-31.465
EX0521-092111,19,C13,prep,1599,1599,0,936099.091,0.686,-0.676,0.195,0.188,0,0,0,0,0,0,0,0,0,0.000,0,0,0.060,0.002,-0.020,-0.040,-0.040,0.015,0.994,0.012,0.000,-0.002,-0.002,0.000,0.000,0.000,0.000,0,2,0,3,7,255,960,300,0,0,-89.396,0.801,-31.465
EX0521-092111,19,C13,prep,1599,1599,0,936104.092,0.686,-0.676,0.195,0.188,0,0,0,0,0,0,0,0,0,0.000,0,0,0.060,0.003,-0.020,-0.040,-0.040,0.014,0.993,0.011,-0.002,-0.002,-0.002,0.000,0.000,0.000,0.000,0,2,0,3,7,255,960,300,0,0,-89.396,0.801,-31.465
EX0521-092111,19,C13,prep,1599,1599,0,936109.092,0.686,-0.676,0.195,0.188,0,0,0,0,0,0,0,0,0,0.000,0,0,0.060,0.003,-0.020,-0.040,-0.040,0.013,0.993,0.012,-0.002,0.002,-0.002,0.000,0.000,0.000,0.000,0,2,0,3,7,255,960,300,0,0,-89.396,0.801,-31.465
EX0521-092111,19,C13,prep,1599,1599,0,936114.093,0.686,-0.676,0.195,0.188,0,0,0,0,0,0,0,0,0,0.000,0,0,0.049,0.003,-0.020,-0.040,0.020,0.014,0.993,0.011,-0.002,0.002,-0.002,0.000,0.000,0.000,0.000,0,2,0,3,7,255,960,300,0,0,-89.396,0.801,-31.465
EX0521-092111,19,C13,prep,1599,1599,0,936119.092,0.686,-0.676,0.195,0.188,0,0,0,0,0,0,0,0,0,0.000,0,0,0.060,0.003,0.040,-0.040,0.020,0.015,0.994,0.012,-0.002,0.002,-0.002,0.000,0.000,0.000,0.000,0,2,0,3,7,255,960,300,0,0,-89.396,0.801,-31.465
EX0521-092111,19,C13,prep,1599,1599,0,936124.092,0.686,-0.676,0.195,0.188,0,0,0,0,0,0,0,0,0,0.000,0,0,0.060,0.003,-0.020,-0.040,-0.040,0.014,0.995,0.011,0.002,0.002,0.008,0.000,0.000,0.000,0.000,0,2,0,3,7,255,960,300,0,0,-89.396,0.801,-31.465
EX0521-092111,19,C13,prep,1633,1633,0,936129.091,0.686,-0.676,0.195,0.188,0,0,0,0,0,0,0,0,0,0.000,0,0,0.060,0.006,0.040,0.020,-0.040,0.015,0.993,0.012,0.002,-0.006,0.008,0.000,0.000,0.000,0.000,0,2,0,3,7,255,960,300,0,0,-89.396,0.801,-31.465
EX0521-092111,19,C13,prep,1633,1633,0,936134.092,0.686,-0.676,0.195,0.188,0,0,0,0,0,0,0,0,0,0.000,0,0,0.060,0.006,-0.020,-0.040,-0.040,0.014,0.994,0.012,-0.002,-0.006,0.002,0.000,0.000,0.000,0.000,0,2,0,3,7,255,960,300,0,0,-89.396,0.801,-31.465
EX0521-092111,19,C13,prep,1634,1634,0,936139.092,0.686,-0.676,0.195,0.188,0,0,0,0,0,0,0,0,0,0.000,0,0,0.049,0.006,-0.020,0.020,-0.040,0.015,0.993,0.011,-0.002,-0.006,-0.002,0.000,0.000,0.000,0.000,0,2,0,3,7,255,960,300,0,0,-89.396,0.801,-31.465
EX0521-092111,19,C13,prep,1634,1634,0,936144.091,0.686,-0.676,0.195,0.188,0,0,0,0,0,0,0,0,0,0.000,0,0,0.060,0.004,0.040,0.020,-0.040,0.014,0.993,0.012,-0.004,-0.002,-0.002,0.000,0.000,0.000,0.000,0,2,0,3,7,255,960,300,0,0,-89.396,0.801,-31.465
EX0521-092111,19,C13,prep,1635,1635,0,936149.092,0.686,-0.676,0.195,0.188,0,0,0,0,0,0,0,0,0,0.000,0,0,0.069,0.008,0.040,-0.040,-0.040,0.015,0.993,0.011,0.008,-0.002,-0.008,0.000,0.000,0.000,0.000,0,2,0,3,7,255,960,300,0,0,-89.396,0.801,-31.465
EX0521-092111,19,C13,prep,1635,1635,0,936154.091,0.686,-0.676,0.195,0.188,0,0,0,0,0,0,0,0,0,0.000,0,0,0.069,0.002,0.040,-0.040,-0.040,0.014,0.994,0.010,0.000,-0.002,-0.002,0.000,0.000,0.000,0.000,0,2,0,3,7,255,960,300,0,0,-89.396,0.801,-31.465
EX0521-092111,19,C13,prep,1636,1636,0,936159.092,0.686,-0.676,0.195,0.188,0,0,0,0,0,0,0,0,0,0.000,0,0,0.060,0.002,-0.020,-0.040,-0.040,0.014,0.993,0.011,0.000,0.002,-0.002,0.000,0.000,0.000,0.000,0,2,0,3,7,255,960,300,0,0,-89.396,0.801,-31.465
EX0521-092111,19,C13,prep,1636,1636,0,936164.093,0.686,-0.676,0.195,0.188,0,0,0,0,0,0,0,0,0,0.000,0,0,0.110,0.003,-0.020,-0.040,-0.100,0.014,0.995,0.012,-0.002,0.002,0.006,0.000,0.000,0.000,0.000,0,2,0,3,7,255,960,300,0,0,-89.396,0.801,-31.465
EX0521-092111,19,C13,prep,1656,1656,0,936169.091,0.686,-0.676,0.195,0.188,0,0,0,0,0,0,0,0,0,0.000,0,0,0.060,0.004,0.040,-0.040,0.020,0.013,0.994,0.012,-0.004,0.000,0.002,0.000,0.000,0.000,0.000,0,2,0,3,7,255,960,300,0,0,-89.396,0.801,-31.465
EX0521-092111,19,C13,prep,1656,1656,0,936174.092,0.686,-0.676,0.195,0.188,0,0,0,0,0,0,0,0,0,0.000,0,0,0.069,0.004,0.040,-0.040,-0.040,0.015,0.994,0.011,-0.004,0.000,0.002,0.000,0.000,0.000,0.000,0,2,0,3,7,255,960,300,0,0,-89.396,0.801,-31.465
EX0521-092111,19,C13,prep,1656,1656,0,936179.092,0.686,-0.676,0.195,0.188,0,0,0,0,0,0,0,0,0,0.000,0,0,0.049,0.010,-0.020,0.020,-0.040,0.016,0.994,0.011,0.010,0.000,0.002,0.000,0.000,0.000,0.000,0,2,0,3,7,255,960,300,0,0,-89.396,0.801,-31.465
EX0521-092111,19,C13,prep,1656,1656,0,936184.091,0.686,-0.676,0.195,0.188,0,0,0,0,0,0,0,0,0,0.000,0,0,0.060,0.010,-0.020,-0.040,-0.040,0.015,0.994,0.011,0.010,0.000,0.006,0.000,0.000,0.000,0.000,0,2,0,3,7,255,960,300,0,0,-89.396,0.801,-31.465
EX0521-092111,19,C13,prep,1663,1663,0,936189.092,0.686,-0.676,0.195,0.188,0,0,0,0,0,0,0,0,0,0.000,0,0,0.060,0.002,-0.020,-0.040,-0.040,0.015,0.993,0.012,0.002,0.000,0.006,0.000,0.000,0.000,0.000,0,2,0,3,7,255,960,300,0,0,-89.396,0.801,-31.465
EX0521-092111,19,C13,prep,1663,1663,0,936194.092,0.686,-0.676,0.195,0.188,0,0,0,0,0,0,0,0,0,0.000,0,0,0.092,0.008,-0.080,-0.040,0.020,0.015,0.993,0.012,0.002,-0.008,-0.002,0.000,0.000,0.000,0.000,0,2,0,3,7,255,960,300,0,0,-89.396,0.801,-31.465
EX0521-092111,19,C13,prep,1717,1717,0,936199.091,0.686,-0.676,0.195,0.188,0,0,0,0,0,0,0,0,0,0.000,0,0,0.060,0.010,-0.020,-0.040,-0.040,0.015,0.994,0.013,-0.002,-0.010,-0.002,0.000,0.000,0.000,0.000,0,2,0,3,7,255,960,300,0,0,-89.397,0.801,-31.465
EX0521-092111,19,C13,prep,1717,1717,0,936204.092,0.686,-0.676,0.195,0.188,0,0,0,0,0,0,0,0,0,0.000,0,0,0.092,0.010,-0.080,-0.040,0.020,0.014,0.994,0.011,0.002,-0.010,0.002,0.000,0.000,0.000,0.000,0,2,0,3,7,255,960,300,0,0,-89.397,0.801,-31.465
EX0521-092111,19,C13,prep,1717,1717,0,936209.093,0.686,-0.676,0.195,0.188,0,0,0,0,0,0,0,0,0,0.000,0,0,0.060,0.004,0.040,-0.040,0.020,0.014,0.994,0.012,-0.004,0.002,0.002,0.000,0.000,0.000,0.000,0,2,0,3,7,255,960,300,0,0,-89.397,0.801,-31.465
EX0521-092111,19,C13,prep,1717,1717,0,936214.093,0.686,-0.676,0.195,0.188,0,0,0,0,0,0,0,0,0,0.000,0,0,0.060,0.008,-0.020,-0.040,-0.040,0.014,0.994,0.011,-0.006,0.006,0.002,0.000,0.000,0.000,0.000,0,2,0,3,7,255,960,300,0,0,-89.397,0.801,-31.465
EX0521-092111,19,C13,prep,1717,1717,0,936219.092,0.686,-0.676,0.195,0.188,0,0,0,0,0,0,0,0,0,0.000,0,0,0.049,0.006,0.040,0.020,0.020,0.015,0.994,0.012,-0.006,0.002,0.002,0.000,0.000,0.000,0.000,0,2,0,3,7,255,960,300,0,0,-89.397,0.801,-31.465
EX0521-092111,19,C13,prep,1717,1717,0,936224.092,0.686,-0.676,0.195,0.188,0,0,0,0,0,0,0,0,0,0.000,0,0,0.060,0.004,0.040,0.020,-0.040,0.015,0.993,0.012,-0.002,-0.004,0.002,0.000,0.000,0.000,0.000,0,2,0,3,7,255,960,300,0,0,-89.397,0.801,-31.465
EX0521-092111,19,C13,prep,1719,1719,0,936229.091,0.686,-0.676,0.195,0.188,0,0,0,0,0,0,0,0,0,0.000,0,0,0.060,0.004,0.040,-0.040,0.020,0.015,0.993,0.011,0.000,-0.004,-0.008,0.000,0.000,0.000,0.000,0,2,0,3,7,255,960,300,0,0,-89.397,0.801,-31.465
EX0521-092111,19,C13,prep,1719,1719,0,936234.092,0.686,-0.676,0.195,0.188,0,0,0,0,0,0,0,0,0,0.000,0,0,0.060,0.004,-0.020,-0.040,-0.040,0.014,0.994,0.011,0.000,0.004,-0.008,0.000,0.000,0.000,0.000,0,2,0,3,7,255,960,300,0,0,-89.397,0.801,-31.465
EX0521-092111,19,C13,prep,1719,1719,0,936239.091,0.686,-0.676,0.195,0.188,0,0,0,0,0,0,0,0,0,0.000,0,0,0.049,0.004,-0.020,0.020,-0.040,0.015,0.994,0.011,0.002,0.004,0.002,0.000,0.000,0.000,0.000,0,2,0,3,7,255,960,300,0,0,-89.397,0.801,-31.465
EX0521-092111,19,C13,prep,1719,1719,0,936244.091,0.686,-0.676,0.195,0.188,0,0,0,0,0,0,0,0,0,0.000,0,0,0.069,0.010,0.040,-0.040,-0.040,0.014,0.993,0.011,-0.002,0.010,0.002,0.000,0.000,0.000,0.000,0,2,0,3,7,255,960,300,0,0,-89.397,0.801,-31.465
EX0521-092111,19,C13,prep,1727,1727,0,936249.092,0.686,-0.676,0.195,0.188,0,0,0,0,0,0,0,0,0,0.000,0,0,0.115,0.002,0.040,-0.100,-0.040,0.015,0.994,0.011,0.002,0.000,0.002,0.000,0.000,0.000,0.000,0,2,0,3,7,255,960,300,0,0,-89.397,0.801,-31.465
EX0521-092111,19,C13,prep,1727,1727,0,936254.091,0.686,-0.676,0.195,0.188,0,0,0,0,0,0,0,0,0,0.000,0,0,0.060,0.006,0.040,-0.040,0.020,0.014,0.994,0.011,-0.002,0.006,0.002,0.000,0.000,0.000,0.000,0,2,0,3,7,255,960,300,0,0,-89.397,0.801,-31.465
EX0521-092111,19,C13,prep,1759,1759,0,936259.092,0.686,-0.676,0.195,0.188,0,0,0,0,0,0,0,0,0,0.000,0,0,0.060,0.004,-0.020,-0.040,-0.040,0.015,0.995,0.011,0.002,0.004,0.002,0.000,0.000,0.000,0.000,0,2,0,3,7,255,960,300,0,0,-89.397,0.801,-31.465
EX0521-092111,19,C13,prep,1759,1759,0,936264.092,0.686,-0.676,0.195,0.188,0,0,0,0,0,0,0,0,0,0.000,0,0,0.060,0.007,0.040,-0.040,0.020,0.013,0.994,0.012,-0.006,0.004,0.002,0.000,0.000,0.000,0.000,0,2,0,3,7,255,960,300,0,0,-89.397,0.801,-31.465
EX0521-092111,19,C13,prep,1760,1760,0,936269.091,0.686,-0.676,0.195,0.188,0,0,0,0,0,0,0,0,0,0.000,0,0,0.069,0.012,0.040,-0.040,-0.040,0.014,0.992,0.013,-0.012,0.000,0.002,0.000,0.000,0.000,0.000,0,2,0,3,7,255,960,300,0,0,-89.397,0.801,-31.465
EX0521-092111,19,C13,prep,1760,1760,0,936274.092,0.686,-0.676,0.195,0.188,0,0,0,0,0,0,0,0,0,0.000,0,0,0.069,0.013,0.040,-0.040,-0.040,0.014,0.993,0.012,-0.012,-0.006,-0.002,0.000,0.000,0.000,0.000,0,2,0,3,7,255,960,300,0,0,-89.397,0.801,-31.465
EX0521-092111,19,C13,prep,1761,1761,0,936279.092,0.686,-0.676,0.195,0.188,0,0,0,0,0,0,0,0,0,0.000,0,0,0.060,0.010,0.040,-0.040,0.020,0.015,0.994,0.012,-0.006,-0.008,-0.002,0.000,0.000,0.000,0.000,0,2,0,3,7,255,960,300,0,0,-89.397,0.801,-31.465
EX0521-092111,19,C13,prep,1761,1761,0,936284.091,0.686,-0.676,0.195,0.188,0,0,0,0,0,0,0,0,0,0.000,0,0,0.098,0.006,-0.080,-0.040,-0.040,0.015,0.994,0.010,0.002,-0.006,0.002,0.000,0.000,0.000,0.000,0,2,0,3,7,255,960,300,0,0,-89.397,0.801,-31.465
EX0521-092111,19,C13,prep,1791,1791,0,936289.092,0.686,-0.676,0.195,0.188,0,0,0,0,0,0,0,0,0,0.000,0,0,0.110,0.006,-0.020,-0.100,-0.040,0.013,0.994,0.011,0.002,0.006,0.002,0.000,0.000,0.000,0.000,0,2,0,3,7,255,960,300,0,0,-89.397,0.801,-31.465
EX0521-092111,19,C13,prep,1791,1791,0,936294.092,0.686,-0.676,0.195,0.188,0,0,0,0,0,0,0,0,0,0.000,0,0,0.060,0.008,0.040,-0.040,0.020,0.014,0.994,0.012,-0.006,0.006,0.002,0.000,0.000,0.000,0.000,0,2,0,3,7,255,960,300,0,0,-89.397,0.801,-31.465
EX0521-092111,19,C13,prep,1807,1807,0,936299.091,0.686,-0.676,0.195,0.188,0,0,0,0,0,0,0,0,0,0.000,0,0,0.069,0.006,0.040,-0.040,-0.040,0.015,0.993,0.011,-0.006,0.000,0.002,0.000,0.000,0.000,0.000,0,2,0,3,7,255,960,300,0,0,-89.397,0.801,-31.465
EX0521-092111,19,C13,prep,1807,1807,0,936304.092,0.686,-0.676,0.195,0.188,0,0,0,0,0,0,0,0,0,0.000,0,0,0.060,0.004,-0.020,-0.040,-0.040,0.014,0.993,0.010,0.004,0.000,-0.002,0.000,0.000,0.000,0.000,0,2,0,3,7,255,960,300,0,0,-89.397,0.801,-31.465
EX0521-092111,19,C13,prep,1807,1807,0,936309.093,0.686,-0.676,0.195,0.188,0,0,0,0,0,0,0,0,0,0.000,0,0,0.049,0.004,-0.020,-0.040,0.020,0.015,0.994,0.012,0.004,0.000,-0.002,0.000,0.000,0.000,0.000,0,2,0,3,7,255,960,300,0,0,-89.397,0.801,-31.465
EX0521-092111,19,C13,prep,1807,1807,0,936314.093,0.686,-0.676,0.195,0.188,0,0,0,0,0,0,0,0,0,0.000,0,0,0.060,0.004,-0.020,-0.040,-0.040,0.015,0.992,0.012,0.000,-0.004,-0.002,0.000,0.000,0.000,0.000,0,2,0,3,7,255,960,300,0,0,-89.397,0.801,-31.465
EX0521-092111,19,C13,prep,1807,1807,0,936319.092,0.686,-0.676,0.195,0.188,0,0,0,0,0,0,0,0,0,0.000,0,0,0.060,0.004,-0.020,-0.040,-0.040,0.015,0.993,0.012,0.000,-0.004,-0.002,0.000,0.000,0.000,0.000,0,2,0,3,7,255,960,300,0,0,-89.397,0.801,-31.465
EX0521-092111,19,C13,prep,1807,1807,0,936324.091,0.686,-0.676,0.195,0.188,0,0,0,0,0,0,0,0,0,0.000,0,0,0.069,0.004,0.040,-0.040,-0.040,0.015,0.994,0.011,0.000,-0.004,-0.002,0.000,0.000,0.000,0.000,0,2,0,3,7,255,960,300,0,0,-89.397,0.801,-31.465
EX0521-092111,19,C13,prep,1825,1825,0,936329.091,0.686,-0.676,0.195,0.188,0,0,0,0,0,0,0,0,0,0.000,0,0,0.049,0.004,-0.020,0.020,-0.040,0.016,0.993,0.011,0.004,0.000,-0.002,0.000,0.000,0.000,0.000,0,2,0,3,7,255,960,300,0,0,-89.397,0.801,-31.465
EX0521-092111,19,C13,prep,1825,1825,0,936334.092,0.686,-0.676,0.195,0.188,0,0,0,0,0,0,0,0,0,0.000,0,0,0.060,0.006,0.040,-0.040,0.020,0.015,0.994,0.011,0.006,0.000,0.002,0.000,0.000,0.000,0.000,0,2,0,3,7,255,960,300,0,0,-89.397,0.801,-31.465
EX0521-092111,19,C13,prep,1826,1826,0,936339.091,0.686,-0.676,0.195,0.188,0,0,0,0,0,0,0,0,0,0.000,0,0,0.069,0.006,0.040,-0.040,-0.040,0.015,0.994,0.011,0.006,0.000,0.002,0.000,0.000,0.000,0.000,0,2,0,3,7,255,960,300,0,0,-89.397,0.801,-31.465
EX0521-092111,19,C13,prep,1826,1826,0,936344.092,0.686,-0.676,0.195,0.188,0,0,0,0,0,0,0,0,0,0.000,0,0,0.060,0.006,-0.020,-0.040,-0.040,0.014,0.993,0.012,0.006,-0.002,0.002,0.000,0.000,0.000,0.000,0,2,0,3,7,255,960,300,0,0,-89.397,0.801,-31.465
EX0521-092111,19,C13,prep,1839,1839,0,936349.092,0.686,-0.676,0.195,0.188,0,0,0,0,0,0,0,0,0,0.000,0,0,0.060,0.003,-0.020,-0.040,-0.040,0.014,0.994,0.011,-0.002,-0.002,0.002,0.000,0.000,0.000,0.000,0,2,0,3,7,255,960,300,0,0,-89.397,0.801,-31.465
EX0521-092111,19,C13,prep,1839,1839,0,936354.091,0.686,-0.676,0.195,0.188,0,0,0,0,0,0,0,0,0,0.000,0,0,0.069,0.003,0.040,-0.040,-0.040,0.014,0.992,0.011,-0.002,0.002,-0.002,0.000,0.000,0.000,0.000,0,2,0,3,7,255,960,300,0,0,-89.397,0.801,-31.465
EX0521-092111,19,C13,prep,1839,1839,0,936359.092,0.686,-0.676,0.195,0.188,0,0,0,0,0,0,0,0,0,0.000,0,0,0.060,0.003,0.040,0.020,-0.040,0.014,0.993,0.011,-0.002,0.002,-0.002,0.000,0.000,0.000,0.000,0,2,0,3,7,255,960,300,0,0,-89.397,0.801,-31.465
EX0521-092111,19,C13,prep,1839,1839,0,936364.093,0.686,-0.676,0.195,0.188,0,0,0,0,0,0,0,0,0,0.000,0,0,0.060,0.003,-0.020,-0.040,-0.040,0.014,0.994,0.012,-0.002,0.002,-0.002,0.000,0.000,0.000,0.000,0,2,0,3,7,255,960,300,0,0,-89.397,0.801,-31.465
EX0521-092111,19,C13,prep,1871,1871,0,936369.091,0.686,-0.676,0.195,0.188,0,0,0,0,0,0,0,0,0,0.000,0,0,0.049,0.003,-0.020,0.020,-0.040,0.014,0.993,0.011,-0.002,0.002,-0.002,0.000,0.000,0.000,0.000,0,2,0,3,7,255,960,300,0,0,-89.397,0.801,-31.465
EX0521-092111,19,C13,prep,1871,1871,0,936374.092,0.686,-0.676,0.195,0.188,0,0,0,0,0,0,0,0,0,0.000,0,0,0.098,0.003,-0.080,-0.040,-0.040,0.014,0.993,0.011,-0.002,0.002,-0.002,0.000,0.000,0.000,0.000,0,2,0,3,7,255,960,300,0,0,-89.397,0.801,-31.465
EX0521-092111,19,C13,prep,1871,1871,0,936379.092,0.686,-0.676,0.195,0.188,0,0,0,0,0,0,0,0,0,0.000,0,0,0.110,0.003,-0.020,-0.100,-0.040,0.015,0.993,0.012,-0.002,0.002,-0.002,0.000,0.000,0.000,0.000,0,2,0,3,7,255,960,300,0,0,-89.397,0.801,-31.465
EX0521-092111,19,C13,prep,1871,1871,0,936384.091,0.686,-0.676,0.195,0.188,0,0,0,0,0,0,0,0,0,0.000,0,0,0.060,0.003,-0.020,-0.040,-0.040,0.014,0.993,0.011,-0.002,0.002,-0.002,0.000,0.000,0.000,0.000,0,2,0,3,7,255,960,300,0,0,-89.397,0.801,-31.465
EX0521-092111,19,C13,prep,1871,1871,0,936389.092,0.686,-0.676,0.195,0.188,0,0,0,0,0,0,0,0,0,0.000,0,0,0.060,0.008,-0.020,-0.040,-0.040,0.015,0.993,0.012,-0.002,-0.008,-0.002,0.000,0.000,0.000,0.000,0,2,0,3,7,255,960,300,0,0,-89.397,0.801,-31.465
EX0521-092111,19,C13,prep,1871,1871,0,936394.091,0.686,-0.676,0.195,0.188,0,0,0,0,0,0,0,0,0,0.000,0,0,0.060,0.004,-0.020,-0.040,-0.040,0.014,0.994,0.012,-0.004,-0.002,-0.002,0.000,0.000,0.000,0.000,0,2,0,3,7,255,960,300,0,0,-89.397,0.801,-31.465
EX0521-092111,19,C13,prep,1903,1903,0,936399.091,0.686,-0.676,0.195,0.188,0,0,0,0,0,0,0,0,0,0.000,0,0,0.049,0.003,0.040,0.020,0.020,0.016,0.992,0.011,0.002,-0.002,-0.002,0.000,0.000,0.000,0.000,0,2,0,3,7,255,960,300,0,0,-89.397,0.801,-31.465
EX0521-092111,19,C13,prep,1903,1903,0,936404.092,0.686,-0.676,0.195,0.188,0,0,0,0,0,0,0,0,0,0.000,0,0,0.060,0.004,-0.020,-0.040,-0.040,0.014,0.994,0.012,-0.004,-0.002,0.002,0.000,0.000,0.000,0.000,0,2,0,3,7,255,960,300,0,0,-89.397,0.801,-31.465
EX0521-092111,19,C13,prep,1903,1903,0,936409.093,0.686,-0.676,0.195,0.188,0,0,0,0,0,0,0,0,0,0.000,0,0,0.069,0.003,0.040,-0.040,-0.040,0.014,0.994,0.011,-0.002,-0.002,0.002,0.000,0.000,0.000,0.000,0,2,0,3,7,255,960,300,0,0,-89.397,0.801,-31.465
EX0521-092111,19,C13,prep,1903,1903,0,936414.093,0.686,-0.676,0.195,0.188,0,0,0,0,0,0,0,0,0,0.000,0,0,0.115,0.003,0.040,-0.100,-0.040,0.015,0.992,0.011,-0.002,0.002,0.002,0.000,0.000,0.000,0.000,0,2,0,3,7,255,960,300,0,0,-89.397,0.801,-31.465
EX0521-092111,19,C13,prep,1903,1903,0,936419.092,0.686,-0.676,0.195,0.188,0,0,0,0,0,0,0,0,0,0.000,0,0,0.060,0.003,-0.020,-0.040,-0.040,0.014,0.995,0.012,-0.002,0.002,0.002,0.000,0.000,0.000,0.000,0,2,0,3,7,255,960,300,0,0,-89.397,0.801,-31.465
EX0521-092111,19,C13,prep,1903,1903,0,936424.091,0.686,-0.676,0.195,0.188,0,0,0,0,0,0,0,0,0,0.000,0,0,0.110,0.002,-0.020,-0.100,-0.040,0.015,0.992,0.011,0.002,0.000,-0.012,0.000,0.000,0.000,0.000,0,2,0,3,7,255,960,300,0,0,-89.397,0.801,-31.465
EX0521-092111,19,C13,prep,1925,1925,0,936429.092,0.686,-0.676,0.195,0.188,0,0,0,0,0,0,0,0,0,0.000,0,0,0.060,0.004,-0.020,-0.040,-0.040,0.014,0.993,0.012,-0.004,-0.002,-0.006,0.000,0.000,0.000,0.000,0,2,0,3,7,255,960,300,0,0,-89.398,0.801,-31.465
EX0521-092111,19,C13,prep,1925,1925,0,936434.092,0.686,-0.676,0.195,0.188,0,0,0,0,0,0,0,0,0,0.000,0,0,0.060,0.002,-0.020,-0.040,-0.040,0.014,0.993,0.011,-0.002,0.000,-0.006,0.000,0.000,0.000,0.000,0,2,0,3,7,255,960,300,0,0,-89.398,0.801,-31.465
EX0521-092111,19,C13,prep,1926,1926,0,936439.091,0.686,-0.676,0.195,0.188,0,0,0,0,0,0,0,0,0,0.000,0,0,0.049,0.004,-0.020,0.020,-0.040,0.013,0.992,0.012,-0.004,0.002,-0.006,0.000,0.000,0.000,0.000,0,2,0,3,7,255,960,300,0,0,-89.398,0.801,-31.465
EX0521-092111,19,C13,prep,1926,1926,0,936444.092,0.686,-0.676,0.195,0.188,0,0,0,0,0,0,0,0,0,0.000,0,0,0.060,0.004,-0.020,-0.040,-0.040,0.014,0.994,0.012,-0.004,0.002,-0.006,0.000,0.000,0.000,0.000,0,2,0,3,7,255,960,300,0,0,-89.398,0.801,-31.465
EX0521-092111,19,C13,prep,1927,1927,0,936449.092,0.686,-0.676,0.195,0.188,0,0,0,0,0,0,0,0,0,0.000,0,0,0.060,0.012,-0.020,-0.040,-0.040,0.013,0.995,0.013,-0.012,-0.002,0.002,0.000,0.000,0.000,0.000,0,2,0,3,7,255,960,300,0,0,-89.398,0.801,-31.465
EX0521-092111,19,C13,prep,1927,1927,0,936454.091,0.686,-0.676,0.195,0.188,0,0,0,0,0,0,0,0,0,0.000,0,0,0.060,0.006,0.040,-0.040,0.020,0.016,0.993,0.012,-0.004,-0.004,0.002,0.000,0.000,0.000,0.000,0,2,0,3,7,255,960,300,0,0,-89.398,0.801,-31.465
EX0521-092111,19,C13,prep,1935,1935,0,936459.092,0.686,-0.676,0.195,0.188,0,0,0,0,0,0,0,0,0,0.000,0,0,0.069,0.011,0.040,-0.040,-0.040,0.014,0.993,0.012,-0.010,-0.004,-0.002,0.000,0.000,0.000,0.000,0,2,0,3,7,255,960,300,0,0,-89.398,0.801,-31.465
EX0521-092111,19,C13,prep,1935,1935,0,936464.092,0.686,-0.676,0.195,0.188,0,0,0,0,0,0,0,0,0,0.000,0,0,0.060,0.008,-0.020,-0.040,-0.040,0.013,0.994,0.011,-0.008,-0.002,-0.002,0.000,0.000,0.000,0.000,0,2,0,3,7,255,960,300,0,0,-89.398,0.801,-31.465
EX0521-092111,19,C13,prep,1957,1957,0,936469.091,0.686,-0.676,0.195,0.188,0,0,0,0,0,0,0,0,0,0.000,0,0,0.060,0.008,0.040,0.020,-0.040,0.015,0.994,0.012,-0.008,-0.002,0.008,0.000,0.000,0.000,0.000,0,2,0,3,7,255,960,300,0,0,-89.398,0.801,-31.465
EX0521-092111,19,C13,prep,1957,1957,0,936474.092,0.686,-0.676,0.195,0.188,0,0,0,0,0,0,0,0,0,0.000,0,0,0.110,0.004,-0.020,-0.100,-0.040,0.014,0.994,0.012,-0.004,-0.002,0.008,0.000,0.000,0.000,0.000,0,2,0,3,7,255,960,300,0,0,-89.398,0.801,-31.465
EX0521-092111,19,C13,prep,1958,1958,0,936479.091,0.686,-0.676,0.195,0.188,0,0,0,0,0,0,0,0,0,0.000,0,0,0.069,0.004,0.040,-0.040,-0.040,0.015,0.994,0.012,0.000,-0.004,0.008,0.000,0.000,0.000,0.000,0,2,0,3,7,255,960,300,0,0,-89.398,0.801,-31.465
EX0521-092111,19,C13,prep,1958,1958,0,936484.091,0.686,-0.676,0.195,0.188,0,0,0,0,0,0,0,0,0,0.000,0,0,0.069,0.007,0.040,-0.040,-0.040,0.014,0.994,0.012,-0.004,-0.006,0.002,0.000,0.000,0.000,0.000,0,2,0,3,7,255,960,300,0,0,-89.398,0.801,-31.465
EX0521-092111,19,C13,prep,1967,1967,0,936489.092,0.686,-0.676,0.195,0.188,0,0,0,0,0,0,0,0,0,0.000,0,0,0.060,0.007,0.040,-0.040,0.020,0.015,0.993,0.011,0.004,-0.006,0.002,0.000,0.000,0.000,0.000,0,2,0,3,7,255,960,300,0,0,-89.398,0.801,-31.465
EX0521-092111,19,C13,prep,1967,1967,0,936494.091,0.686,-0.676,0.195,0.188,0,0,0,0,0,0,0,0,0,0.000,0,0,0.060,0.006,-0.020,-0.040,-0.040,0.014,0.992,0.011,-0.004,0.004,-0.006,0.000,0.000,0.000,0.000,0,2,0,3,7,255,960,300,0,0,-89.398,0.801,-31.465
EX0521-092111,19,C13,prep,2025,2025,0,936499.091,0.686,-0.676,0.195,0.188,0,0,0,0,0,0,0,0,0,0.000,0,0,0.069,0.006,0.040,-0.040,-0.040,0.015,0.993,0.011,0.004,0.004,-0.006,0.000,0.000,0.000,0.000,0,2,0,3,7,255,960,300,0,0,-89.398,0.801,-31.465
EX0521-092111,19,C13,prep,2025,2025,0,936504.092,0.686,-0.676,0.195,0.188,0,0,0,0,0,0,0,0,0,0.000,0,0,0.069,0.000,0.040,-0.040,-0.040,0.015,0.993,0.012,0.000,0.000,-0.002,0.000,0.000,0.000,0.000,0,2,0,3,7,255,960,300,0,0,-89.398,0.801,-31.465
EX0521-092111,19,C13,prep,2025,2025,0,936509.093,0.686,-0.676,0.195,0.188,0,0,0,0,0,0,0,0,0,0.000,0,0,0.110,0.000,-0.020,-0.040,-0.100,0.014,0.995,0.012,0.000,0.000,-0.002,0.000,0.000,0.000,0.000,0,2,0,3,7,255,960,300,0,0,-89.398,0.801,-31.465
EX0521-092111,19,C13,prep,2025,2025,0,936514.093,0.686,-0.676,0.195,0.188,0,0,0,0,0,0,0,0,0,0.000,0,0,0.092,0.004,-0.080,-0.040,0.020,0.014,0.993,0.011,-0.004,0.002,-0.002,0.000,0.000,0.000,0.000,0,2,0,3,7,255,960,300,0,0,-89.398,0.801,-31.465
EX0521-092111,19,C13,prep,2026,2026,0,936519.092,0.686,-0.676,0.195,0.188,0,0,0,0,0,0,0,0,0,0.000,0,0,0.060,0.007,-0.020,-0.040,-0.040,0.015,0.995,0.010,-0.004,0.006,0.012,0.000,0.000,0.000,0.000,0,2,0,3,7,255,960,300,0,0,-89.398,0.801,-31.465
EX0521-092111,19,C13,prep,2026,2026,0,936524.091,0.686,-0.676,0.195,0.188,0,0,0,0,0,0,0,0,0,0.000,0,0,0.060,0.011,-0.020,-0.040,-0.040,0.015,0.993,0.010,0.008,0.008,-0.002,0.000,0.000,0.000,0.000,0,2,0,3,7,255,960,300,0,0,-89.398,0.801,-31.465
EX0521-092111,19,C13,prep,2027,2027,0,936529.092,0.686,-0.676,0.195,0.188,0,0,0,0,0,0,0,0,0,0.000,0,0,0.060,0.011,0.040,-0.040,0.020,0.015,0.993,0.012,0.008,0.008,-0.002,0.000,0.000,0.000,0.000,0,2,0,3,7,255,960,300,0,0,-89.398,0.801,-31.465
EX0521-092111,19,C13,prep,2027,2027,0,936534.092,0.686,-0.676,0.195,0.188,0,0,0,0,0,0,0,0,0,0.000,0,0,0.098,0.004,-0.080,-0.040,-0.040,0.015,0.994,0.012,0.002,-0.004,-0.002,0.000,0.000,0.000,0.000,0,2,0,3,7,255,960,300,0,0,-89.398,0.801,-31.465
EX0521-092111,19,C13,prep,2027,2027,0,936539.091,0.686,-0.676,0.195,0.188,0,0,0,0,0,0,0,0,0,0.000,0,0,0.060,0.010,-0.020,-0.040,-0.040,0.014,0.993,0.013,0.000,-0.010,-0.002,0.000,0.000,0.000,0.000,0,2,0,3,7,255,960,300,0,0,-89.398,0.801,-31.465
EX0521-092111,19,C13,prep,2027,2027,0,936544.092,0.686,-0.676,0.195,0.188,0,0,0,0,0,0,0,0,0,0.000,0,0,0.060,0.006,-0.020,-0.040,-0.040,0.015,0.994,0.012,0.000,-0.006,0.002,0.000,0.000,0.000,0.000,0,2,0,3,7,255,960,300,0,0,-89.398,0.801,-31.465
EX0521-092111,19,C13,prep,2028,2028,0,936549.092,0.686,-0.676,0.195,0.188,0,0,0,0,0,0,0,0,0,0.000,0,0,0.049,0.007,0.040,0.020,0.020,0.015,0.994,0.012,0.004,-0.006,0.008,0.000,0.000,0.000,0.000,0,2,0,3,7,255,960,300,0,0,-89.398,0.801,-31.465
EX0521-092111,19,C13,prep,2028,2028,0,936554.091,0.686,-0.676,0.195,0.188,0,0,0,0,0,0,0,0,0,0.000,0,0,0.060,0.007,-0.020,-0.040,-0.040,0.015,0.993,0.011,0.004,-0.006,0.008,0.000,0.000,0.000,0.000,0,2,0,3,7,255,960,300,0,0,-89.398,0.801,-31.465
EX0521-092111,19,C13,prep,2059,2059,0,936559.093,0.685,-0.676,0.195,0.188,0,0,0,0,0,0,0,0,0,0.000,0,0,0.049,0.006,-0.020,-0.040,0.020,0.015,0.994,0.011,0.006,-0.002,0.002,0.000,0.000,0.000,0.000,0,2,0,3,7,255,960,300,0,0,-89.398,0.801,-31.465
EX0521-092111,19,C13,prep,2059,2059,0,936564.093,0.685,-0.676,0.195,0.188,0,0,0,0,0,0,0,0,0,0.000,0,0,0.110,0.006,0.040,-0.100,0.020,0.015,0.994,0.012,0.006,-0.002,0.002,0.000,0.000,0.000,0.000,0,2,0,3,7,255,960,300,0,0,-89.398,0.801,-31.465
EX0521-092111,19,C13,prep,2061,2061,0,936569.091,0.685,-0.676,0.195,0.188,0,0,0,0,0,0,0,0,0,0.000,0,0,0.049,0.002,-0.020,0.020,-0.040,0.014,0.994,0.011,0.000,-0.002,0.002,0.000,0.000,0.000,0.000,0,2,0,3,7,255,960,300,0,0,-89.398,0.801,-31.465
EX0521-092111,19,C13,prep,2061,2061,0,936574.092,0.685,-0.676,0.195,0.188,0,0,0,0,0,0,0,0,0,0.000,0,0,0.115,0.000,0.040,-0.100,-0.040,0.015,0.994,0.011,0.000,0.000,0.002,0.000,0.000,0.000,0.000,0,2,0,3,7,255,960,300,0,0,-89.398,0.801,-31.465
EX0521-092111,19,C13,prep,2061,2061,0,936579.091,0.685,-0.676,0.195,0.188,0,0,0,0,0,0,0,0,0,0.000,0,0,0.060,0.002,-0.020,-0.040,-0.040,0.016,0.994,0.011,0.002,0.000,0.008,0.000,0.000,0.000,0.000,0,2,0,3,7,255,960,300,0,0,-89.398,0.801,-31.465
EX0521-092111,19,C13,prep,2061,2061,0,936584.092,0.685,-0.676,0.195,0.188,0,0,0,0,0,0,0,0,0,0.000,0,0,0.060,0.002,-0.020,-0.040,-0.040,0.013,0.994,0.011,0.002,0.000,0.008,0.000,0.000,0.000,0.000,0,2,0,3,7,255,960,300,0,0,-89.398,0.801,-31.465
EX0521-092111,19,C13,prep,2082,2082,0,936589.092,0.685,-0.676,0.195,0.188,0,0,0,0,0,0,0,0,0,0.000,0,0,0.110,0.008,-0.020,-0.040,-0.100,0.014,0.993,0.011,-0.002,0.008,0.002,0.000,0.000,0.000,0.000,0,2,0,3,7,255,960,300,0,0,-89.398,0.801,-31.465
EX0521-092111,19,C13,prep,2082,2082,0,936594.091,0.685,-0.676,0.195,0.188,0,0,0,0,0,0,0,0,0,0.000,0,0,0.069,0.008,0.040,-0.040,-0.040,0.016,0.994,0.012,-0.002,0.008,0.002,0.000,0.000,0.000,0.000,0,2,0,3,7,255,960,300,0,0,-89.398,0.801,-31.465
EX0521-092111,19,C13,prep,2114,2114,0,936599.092,0.685,-0.676,0.195,0.188,0,0,0,0,0,0,0,0,0,0.000,0,0,0.104,0.010,-0.020,-0.100,0.020,0.013,0.993,0.011,-0.002,0.010,-0.002,0.000,0.000,0.000,0.000,0,2,0,3,7,255,960,300,0,0,-89.398,0.801,-31.465
EX0521-092111,19,C13,prep,2114,2114,0,936604.092,0.685,-0.676,0.195,0.188,0,0,0,0,0,0,0,0,0,0.000,0,0,0.049,0.006,-0.020,-0.040,0.020,0.014,0.993,0.011,0.002,0.006,-0.002,0.000,0.000,0.000,0.000,0,2,0,3,7,255,960,300,0,0,-89.398,0.801,-31.465
EX0521-092111,19,C13,prep,2114,2114,0,936609.092,0.685,-0.676,0.195,0.188,0,0,0,0,0,0,0,0,0,0.000,0,0,0.049,0.007,-0.020,-0.040,0.020,0.014,0.994,0.012,-0.004,0.006,-0.002,0.000,0.000,0.000,0.000,0,2,0,3,7,255,960,300,0,0,-89.398,0.801,-31.465
EX0521-092111,19,C13,prep,2114,2114,0,936614.093,0.685,-0.676,0.195,0.188,0,0,0,0,0,0,0,0,0,0.000,0,0,0.060,0.007,-0.020,-0.040,-0.040,0.014,0.994,0.011,-0.004,0.006,0.002,0.000,0.000,0.000,0.000,0,2,0,3,7,255,960,300,0,0,-89.398,0.801,-31.465
EX0521-092111,19,C13,prep,2114,2114,0,936619.092,0.685,-0.676,0.195,0.188,0,0,0,0,0,0,0,0,0,0.000,0,0,0.115,0.007,0.040,-0.040,-0.100,0.014,0.995,0.011,-0.004,0.006,0.008,0.000,0.000,0.000,0.000,0,2,0,3,7,255,960,300,0,0,-89.398,0.801,-31.465
EX0521-092111,19,C13,prep,2114,2114,0,936624.091,0.685,-0.676,0.195,0.188,0,0,0,0,0,0,0,0,0,0.000,0,0,0.115,0.008,0.040,-0.100,-0.040,0.013,0.994,0.012,-0.006,0.006,0.008,0.000,0.000,0.000,0.000,0,2,0,3,7,255,960,300,0,0,-89.398,0.801,-31.465
EX0521-092111,19,C13,prep,2114,2114,0,936629.092,0.685,-0.676,0.195,0.188,0,0,0,0,0,0,0,0,0,0.000,0,0,0.060,0.004,-0.020,-0.040,-0.040,0.015,0.993,0.011,0.002,0.004,0.006,0.000,0.000,0.000,0.000,0,2,0,3,7,255,960,300,0,0,-89.398,0.801,-31.465
EX0521-092111,19,C13,prep,2114,2114,0,936634.092,0.685,-0.676,0.195,0.188,0,0,0,0,0,0,0,0,0,0.000,0,0,0.098,0.004,-0.080,-0.040,-0.040,0.015,0.994,0.011,0.004,0.000,0.002,0.000,0.000,0.000,0.000,0,2,0,3,7,255,960,300,0,0,-89.398,0.801,-31.465
EX0521-092111,19,C13,prep,2114,2114,0,936639.091,0.685,-0.676,0.195,0.188,0,0,0,0,0,0,0,0,0,0.000,0,0,0.115,0.004,0.100,-0.040,-0.040,0.015,0.994,0.012,0.004,0.000,0.002,0.000,0.000,0.000,0.000,0,2,0,3,7,255,960,300,0,0,-89.398,0.801,-31.465
EX0521-092111,19,C13,prep,2114,2114,0,936644.092,0.685,-0.676,0.195,0.188,0,0,0,0,0,0,0,0,0,0.000,0,0,0.060,0.002,-0.020,-0.040,-0.040,0.014,0.994,0.012,0.000,-0.002,0.002,0.000,0.000,0.000,0.000,0,2,0,3,7,255,960,300,0,0,-89.398,0.801,-31.465
EX0521-092111,19,C13,prep,2127,2127,0,936649.092,0.685,-0.676,0.195,0.188,0,0,0,0,0,0,0,0,0,0.000,0,0,0.060,0.004,-0.020,-0.040,-0.040,0.015,0.994,0.012,0.000,-0.004,0.002,0.000,0.000,0.000,0.000,0,2,0,3,7,255,960,300,0,0,-89.398,0.801,-31.465
EX0521-092111,19,C13,prep,2127,2127,0,936654.091,0.685,-0.676,0.195,0.188,0,0,0,0,0,0,0,0,0,0.000,0,0,0.060,0.002,0.040,-0.040,0.020,0.014,0.994,0.010,0.000,-0.002,0.002,0.000,0.000,0.000,0.000,0,2,0,3,7,255,960,300,0,0,-89.398,0.801,-31.465
EX0521-092111,19,C13,prep,2152,2152,0,936659.092,0.685,-0.676,0.195,0.188,0,0,0,0,0,0,0,0,0,0.000,0,0,0.060,0.006,-0.020,-0.040,-0.040,0.016,0.994,0.012,0.004,-0.004,0.002,0.000,0.000,0.000,0.000,0,2,0,3,7,255,960,300,0,0,-89.399,0.801,-31.465
EX0521-092111,19,C13,prep,2152,2152,0,936664.091,0.685,-0.676,0.195,0.188,0,0,0,0,0,0,0,0,0,0.000,0,0,0.060,0.006,-0.020,-0.040,-0.040,0.015,0.994,0.012,0.004,-0.004,0.002,0.000,0.000,0.000,0.000,0,2,0,3,7,255,960,300,0,0,-89.399,0.801,-31.465
EX0521-092111,19,C13,prep,2152,2152,0,936669.092,0.685,-0.676,0.195,0.188,0,0,0,0,0,0,0,0,0,0.000,0,0,0.049,0.004,-0.020,-0.040,0.020,0.015,0.993,0.011,0.002,-0.004,0.002,0.000,0.000,0.000,0.000,0,2,0,3,7,255,960,300,0,0,-89.399,0.801,-31.465
EX0521-092111,19,C13,prep,2152,2152,0,936674.092,0.685,-0.676,0.195,0.188,0,0,0,0,0,0,0,0,0,0.000,0,0,0.069,0.002,0.040,-0.040,-0.040,0.014,0.993,0.011,0.002,0.000,-0.008,0.000,0.000,0.000,0.000,0,2,0,3,7,255,960,300,0,0,-89.399,0.801,-31.465
EX0521-092111,19,C13,prep,2159,2159,0,936679.091,0.685,-0.676,0.195,0.188,0,0,0,0,0,0,0,0,0,0.000,0,0,0.060,0.003,0.040,0.020,-0.040,0.015,0.994,0.011,0.002,0.002,-0.008,0.000,0.000,0.000,0.000,0,2,0,3,7,255,960,300,0,0,-89.399,0.801,-31.465
EX0521-092111,19,C13,prep,2159,2159,0,936684.092,0.685,-0.676,0.195,0.188,0,0,0,0,0,0,0,0,0,0.000,0,0,0.060,0.007,-0.020,-0.040,-0.040,0.015,0.994,0.011,0.006,0.004,0.002,0.000,0.000,0.000,0.000,0,2,0,3,7,255,960,300,0,0,-89.399,0.801,-31.465
EX0521-092111,19,C13,prep,2184,2184,0,936689.092,0.685,-0.676,0.195,0.188,0,0,0,0,0,0,0,0,0,0.000,0,0,0.049,0.007,-0.020,-0.040,0.020,0.014,0.994,0.011,0.006,0.004,0.002,0.000,0.000,0.000,0.000,0,2,0,3,7,255,960,300,0,0,-89.399,0.801,-31.465
EX0521-092111,19,C13,prep,2184,2184,0,936694.091,0.685,-0.676,0.195,0.188,0,0,0,0,0,0,0,0,0,0.000,0,0,0.049,0.004,-0.020,-0.040,0.020,0.014,0.993,0.011,0.002,0.004,0.002,0.000,0.000,0.000,0.000,0,2,0,3,7,255,960,300,0,0,-89.399,0.801,-31.465
EX0521-092111,19,C13,prep,2207,2207,0,936699.092,0.685,-0.676,0.195,0.188,0,0,0,0,0,0,0,0,0,0.000,0,0,0.060,0.004,-0.020,-0.040,-0.040,0.015,0.994,0.011,0.002,0.004,0.002,0.000,0.000,0.000,0.000,0,2,0,3,7,255,960,300,0,0,-89.399,0.801,-31.465
EX0521-092111,19,C13,prep,2207,2207,0,936704.092,0.685,-0.676,0.195,0.188,0,0,0,0,0,0,0,0,0,0.000,0,0,0.049,0.003,-0.020,-0.040,0.020,0.015,0.993,0.011,0.002,0.002,-0.008,0.000,0.000,0.000,0.000,0,2,0,3,7,255,960,300,0,0,-89.399,0.801,-31.465
EX0521-092111,19,C13,prep,2207,2207,0,936709.092,0.685,-0.676,0.195,0.188,0,0,0,0,0,0,0,0,0,0.000,0,0,0.035,0.003,-0.020,0.020,0.020,0.014,0.994,0.011,0.002,0.002,0.002,0.000,0.000,0.000,0.000,0,2,0,3,7,255,960,300,0,0,-89.399,0.801,-31.465
EX0521-092111,19,C13,prep,2207,2207,0,936714.093,0.685,-0.676,0.195,0.188,0,0,0,0,0,0,0,0,0,0.000,0,0,0.049,0.006,0.040,0.020,0.020,0.015,0.994,0.011,0.006,0.002,0.002,0.000,0.000,0.000,0.000,0,2,0,3,7,255,960,300,0,0,-89.399,0.801,-31.465
EX0521-092111,19,C13,prep,2207,2207,0,936719.092,0.685,-0.676,0.195,0.188,0,0,0,0,0,0,0,0,0,0.000,0,0,0.069,0.003,0.040,-0.040,-0.040,0.014,0.993,0.011,-0.002,0.002,0.002,0.000,0.000,0.000,0.000,0,2,0,3,7,255,960,300,0,0,-89.399,0.801,-31.465
EX0521-092111,19,C13,prep,2207,2207,0,936724.091,0.685,-0.676,0.195,0.188,0,0,0,0,0,0,0,0,0,0.000,0,0,0.069,0.006,0.040,-0.040,-0.040,0.015,0.994,0.011,0.006,-0.002,0.006,0.000,0.000,0.000,0.000,0,2,0,3,7,255,960,300,0,0,-89.399,0.801,-31.465
EX0521-092111,19,C13,prep,2224,2224,0,936729.092,0.685,-0.676,0.195,0.188,0,0,0,0,0,0,0,0,0,0.000,0,0,0.049,0.004,-0.020,-0.040,0.020,0.014,0.994,0.012,-0.004,-0.002,0.006,0.000,0.000,0.000,0.000,0,2,0,3,7,255,960,300,0,0,-89.399,0.801,-31.465
EX0521-092111,19,C13,prep,2224,2224,0,936734.091,0.685,-0.676,0.195,0.188,0,0,0,0,0,0,0,0,0,0.000,0,0,0.060,0.003,0.040,-0.040,0.020,0.014,0.993,0.011,-0.002,-0.002,0.006,0.000,0.000,0.000,0.000,0,2,0,3,7,255,960,300,0,0,-89.399,0.801,-31.465
EX0521-092111,19,C13,prep,2225,2225,0,936739.091,0.685,-0.676,0.195,0.188,0,0,0,0,0,0,0,0,0,0.000,0,0,0.069,0.003,0.040,-0.040,-0.040,0.015,0.993,0.011,-0.002,0.002,-0.002,0.000,0.000,0.000,0.000,0,2,0,3,7,255,960,300,0,0,-89.399,0.801,-31.465
EX0521-092111,19,C13,prep,2225,2225,0,936744.092,0.685,-0.676,0.195,0.188,0,0,0,0,0,0,0,0,0,0.000,0,0,0.049,0.004,-0.020,0.020,-0.040,0.014,0.995,0.011,-0.002,0.004,-0.002,0.000,0.000,0.000,0.000,0,2,0,3,7,255,960,300,0,0,-89.399,0.801,-31.465
EX0521-092111,19,C13,prep,2226,2226,0,936749.093,0.685,-0.676,0.195,0.188,0,0,0,0,0,0,0,0,0,0.000,0,0,0.060,0.004,-0.020,-0.040,-0.040,0.015,0.995,0.011,0.002,0.004,0.012,0.000,0.000,0.000,0.000,0,2,0,3,7,255,960,300,0,0,-89.399,0.801,-31.465
EX0521-092111,19,C13,prep,2226,2226,0,936754.091,0.685,-0.676,0.195,0.188,0,0,0,0,0,0,0,0,0,0.000,0,0,0.060,0.004,-0.020,-0.040,-0.040,0.015,0.993,0.013,-0.004,0.000,0.012,0.000,0.000,0.000,0.000,0,2,0,3,7,255,960,300,0,0,-89.399,0.801,-31.465
EX0521-092111,19,C13,prep,2239,2239,0,936759.092,0.685,-0.676,0.195,0.188,0,0,0,0,0,0,0,0,0,0.000,0,0,0.060,0.004,-0.020,-0.040,-0.040,0.014,0.993,0.012,-0.004,-0.002,-0.002,0.000,0.000,0.000,0.000,0,2,0,3,7,255,960,300,0,0,-89.399,0.801,-31.465
EX0521-092111,19,C13,prep,2239,2239,0,936764.093,0.685,-0.676,0.195,0.188,0,0,0,0,0,0,0,0,0,0.000,0,0,0.060,0.007,0.040,-0.040,0.020,0.015,0.994,0.012,-0.004,-0.006,-0.002,0.000,0.000,0.000,0.000,0,2,0,3,7,255,960,300,0,0,-89.399,0.801,-31.465
EX0521-092111,19,C13,prep,2258,2258,0,936769.092,0.685,-0.676,0.195,0.188,0,0,0,0,0,0,0,0,0,0.000,0,0,0.069,0.006,0.040,-0.040,-0.040,0.015,0.993,0.012,-0.002,-0.006,-0.002,0.000,0.000,0.000,0.000,0,2,0,3,7,255,960,300,0,0,-89.399,0.801,-31.465
EX0521-092111,19,C13,prep,2258,2258,0,936774.092,0.685,-0.676,0.195,0.188,0,0,0,0,0,0,0,0,0,0.000,0,0,0.049,0.006,-0.020,-0.040,0.020,0.014,0.993,0.011,-0.002,-0.006,-0.002,0.000,0.000,0.000,0.000,0,2,0,3,7,255,960,300,0,0,-89.399,0.801,-31.465
EX0521-092111,19,C13,prep,2258,2258,0,936779.091,0.685,-0.676,0.195,0.188,0,0,0,0,0,0,0,0,0,0.000,0,0,0.035,0.007,-0.020,0.020,0.020,0.013,0.993,0.011,-0.006,0.004,-0.002,0.000,0.000,0.000,0.000,0,2,0,3,7,255,960,300,0,0,-89.399,0.801,-31.465
EX0521-092111,19,C13,prep,2258,2258,0,936784.092,0.685,-0.676,0.195,0.188,0,0,0,0,0,0,0,0,0,0.000,0,0,0.049,0.007,-0.020,-0.040,0.020,0.015,0.993,0.012,-0.006,0.004,-0.004,0.000,0.000,0.000,0.000,0,2,0,3,7,255,960,300,0,0,-89.399,0.801,-31.465
EX0521-092111,19,C13,prep,2271,2271,0,936789.092,0.685,-0.676,0.196,0.188,0,0,0,0,0,0,0,0,0,0.000,0,0,0.069,0.008,0.040,-0.040,-0.040,0.016,0.995,0.012,-0.002,-0.008,-0.004,0.000,0.000,0.000,0.000,0,2,0,3,7,255,960,300,0,0,-89.399,0.801,-31.465
EX0521-092111,19,C13,prep,2271,2271,0,936794.091,0.685,-0.676,0.196,0.188,0,0,0,0,0,0,0,0,0,0.000,0,0,0.049,0.010,-0.020,0.020,-0.040,0.015,0.993,0.011,0.006,-0.008,-0.008,0.000,0.000,0.000,0.000,0,2,0,3,7,255,960,300,0,0,-89.399,0.801,-31.465
EX0521-092111,19,C13,prep,2303,2303,0,936799.092,0.685,-0.676,0.196,0.188,0,0,0,0,0,0,0,0,0,0.000,0,0,0.060,0.006,-0.020,-0.040,-0.040,0.014,0.995,0.011,0.006,-0.002,0.012,0.000,0.000,0.000,0.000,0,2,0,3,7,255,960,300,0,0,-89.399,0.801,-31.465
EX0521-092111,19,C13,prep,2303,2303,0,936804.092,0.685,-0.676,0.196,0.188,0,0,0,0,0,0,0,0,0,0.000,0,0,0.060,0.002,-0.020,-0.040,-0.040,0.015,0.993,0.011,0.002,0.000,-0.002,0.000,0.000,0.000,0.000,0,2,0,3,7,255,960,300,0,0,-89.399,0.801,-31.465
EX0521-092111,19,C13,prep,2303,2303,0,936809.093,0.685,-0.676,0.196,0.188,0,0,0,0,0,0,0,0,0,0.000,0,0,0.049,0.000,-0.020,-0.040,0.020,0.015,0.994,0.012,0.000,0.000,0.006,0.000,0.000,0.000,0.000,0,2,0,3,7,255,960,300,0,0,-89.399,0.801,-31.465
EX0521-092111,19,C13,prep,2303,2303,0,936814.093,0.685,-0.676,0.196,0.188,0,0,0,0,0,0,0,0,0,0.000,0,0,0.060,0.004,-0.020,-0.040,-0.040,0.015,0.993,0.013,0.000,-0.004,-0.002,0.000,0.000,0.000,0.000,0,2,0,3,7,255,960,300,0,0,-89.399,0.801,-31.465
EX0521-092111,19,C13,prep,2303,2303,0,936819.092,0.685,-0.676,0.196,0.188,0,0,0,0,0,0,0,0,0,0.000,0,0,0.049,0.004,-0.020,-0.040,0.020,0.015,0.994,0.011,0.000,-0.004,0.002,0.000,0.000,0.000,0.000,0,2,0,3,7,255,960,300,0,0,-89.399,0.801,-31.465
EX0521-092111,19,C13,prep,2303,2303,0,936824.091,0.685,-0.676,0.196,0.188,0,0,0,0,0,0,0,0,0,0.000,0,0,0.069,0.002,0.040,-0.040,-0.040,0.014,0.994,0.012,0.000,-0.002,0.002,0.000,0.000,0.000,0.000,0,2,0,3,7,255,960,300,0,0,-89.399,0.801,-31.465
EX0521-092111,19,C13,prep,2324,2324,0,936829.092,0.685,-0.676,0.196,0.188,0,0,0,0,0,0,0,0,0,0.000,0,0,0.049,0.002,-0.020,-0.040,0.020,0.015,0.994,0.011,0.002,0.000,0.002,0.000,0.000,0.000,0.000,0,2,0,3,7,255,960,300,0,0,-89.399,0.801,-31.465
EX0521-092111,19,C13,prep,2324,2324,0,936834.091,0.685,-0.676,0.196,0.188,0,0,0,0,0,0,0,0,0,0.000,0,0,0.060,0.004,-0.020,-0.040,-0.040,0.014,0.994,0.012,-0.004,0.000,0.002,0.000,0.000,0.000,0.000,0,2,0,3,7,255,960,300,0,0,-89.399,0.801,-31.465
EX0521-092111,19,C13,prep,2325,2325,0,936839.091,0.685,-0.676,0.196,0.188,0,0,0,0,0,0,0,0,0,0.000,0,0,0.049,0.002,-0.020,-0.040,0.020,0.016,0.993,0.011,0.002,0.000,0.002,0.000,0.000,0.000,0.000,0,2,0,3,7,255,960,300,0,0,-89.399,0.801,-31.465
EX0521-092111,19,C13,prep,2325,2325,0,936844.092,0.685,-0.676,0.196,0.188,0,0,0,0,0,0,0,0,0,0.000,0,0,0.049,0.003,-0.020,-0.040,0.020,0.014,0.993,0.011,-0.002,0.002,-0.002,0.000,0.000,0.000,0.000,0,2,0,3,7,255,960,300,0,0,-89.399,0.801,-31.465
EX0521-092111,19,C13,prep,2326,2326,0,936849.092,0.685,-0.676,0.196,0.188,0,0,0,0,0,0,0,0,0,0.000,0,0,0.110,0.004,-0.020,-0.100,-0.040,0.014,0.994,0.013,-0.002,-0.004,-0.002,0.000,0.000,0.000,0.000,0,2,0,3,7,255,960,300,0,0,-89.399,0.801,-31.465
EX0521-092111,19,C13,prep,2326,2326,0,936854.091,0.685,-0.676,0.196,0.188,0,0,0,0,0,0,0,0,0,0.000,0,0,0.049,0.004,-0.020,0.020,-0.040,0.014,0.995,0.012,-0.004,-0.002,0.002,0.000,0.000,0.000,0.000,0,2,0,3,7,255,960,300,0,0,-89.399,0.801,-31.465
EX0521-092111,19,C13,prep,2357,2357,0,936859.092,0.685,-0.676,0.196,0.188,0,0,0,0,0,0,0,0,0,0.000,0,0,0.060,0.006,-0.020,-0.040,-0.040,0.014,0.996,0.011,-0.006,-0.002,0.012,0.000,0.000,0.000,0.000,0,2,0,3,7,255,960,300,0,0,-89.399,0.801,-31.465
EX0521-092111,19,C13,prep,2357,2357,0,936864.091,0.685,-0.676,0.196,0.188,0,0,0,0,0,0,0,0,0,0.000,0,0,0.060,0.004,-0.020,-0.040,-0.040,0.014,0.994,0.011,-0.004,0.002,0.012,0.000,0.000,0.000,0.000,0,2,0,3,7,255,960,300,0,0,-89.399,0.801,-31.465
EX0521-092111,19,C13,prep,2358,2358,0,936869.092,0.685,-0.676,0.196,0.188,0,0,0,0,0,0,0,0,0,0.000,0,0,0.069,0.006,0.040,-0.040,-0.040,0.014,0.993,0.011,-0.002,0.006,0.006,0.000,0.000,0.000,0.000,0,2,0,3,7,255,960,300,0,0,-89.399,0.801,-31.465
EX0521-092111,19,C13,prep,2358,2358,0,936874.092,0.685,-0.676,0.196,0.188,0,0,0,0,0,0,0,0,0,0.000,0,0,0.069,0.006,0.040,-0.040,-0.040,0.014,0.994,0.011,-0.002,0.006,0.002,0.000,0.000,0.000,0.000,0,2,0,3,7,255,960,300,0,0,-89.399,0.802,-31.465
EX0521-092111,19,C13,prep,2359,2359,0,936879.091,0.685,-0.676,0.196,0.188,0,0,0,0,0,0,0,0,0,0.000,0,0,0.049,0.006,-0.020,-0.040,0.020,0.015,0.994,0.012,-0.002,0.006,0.002,0.000,0.000,0.000,0.000,0,2,0,3,7,255,960,300,0,0,-89.399,0.802,-31.465
EX0521-092111,19,C13,prep,2359,2359,0,936884.092,0.685,-0.676,0.196,0.188,0,0,0,0,0,0,0,0,0,0.000,0,0,0.115,0.004,0.040,-0.100,-0.040,0.014,0.994,0.012,-0.004,-0.002,0.002,0.000,0.000,0.000,0.000,0,2,0,3,7,255,960,300,0,0,-89.400,0.802,-31.465
EX0521-092111,19,C13,prep,2367,2367,0,936889.092,0.685,-0.676,0.196,0.188,0,0,0,0,0,0,0,0,0,0.000,0,0,0.049,0.004,-0.020,-0.040,0.020,0.014,0.993,0.012,-0.004,-0.002,0.002,0.000,0.000,0.000,0.000,0,2,0,3,7,255,960,300,0,0,-89.400,0.802,-31.465
EX0521-092111,19,C13,prep,2367,2367,0,936894.091,0.685,-0.676,0.196,0.188,0,0,0,0,0,0,0,0,0,0.000,0,0,0.049,0.004,-0.020,0.020,-0.040,0.015,0.993,0.011,-0.004,-0.002,-0.004,0.000,0.000,0.000,0.000,0,2,0,3,7,255,960,300,0,0,-89.400,0.802,-31.465
EX0521-092111,19,C13,prep,2399,2399,0,936899.092,0.685,-0.676,0.196,0.188,0,0,0,0,0,0,0,0,0,0.000,0,0,0.060,0.002,-0.020,-0.040,-0.040,0.015,0.994,0.011,0.002,0.000,-0.004,0.000,0.000,0.000,0.000,0,2,0,3,7,255,960,300,0,0,-89.400,0.802,-31.465
EX0521-092111,19,C13,prep,2399,2399,0,936904.092,0.685,-0.676,0.196,0.188,0,0,0,0,0,0,0,0,0,0.000,0,0,0.060,0.002,-0.020,-0.040,-0.040,0.016,0.995,0.011,0.002,0.000,0.006,0.000,0.000,0.000,0.000,0,2,0,3,7,255,960,300,0,0,-89.400,0.802,-31.465
EX0521-092111,19,C13,prep,2399,2399,0,936909.093,0.685,-0.676,0.196,0.188,0,0,0,0,0,0,0,0,0,0.000,0,0,0.069,0.003,0.040,-0.040,-0.040,0.014,0.994,0.012,0.002,-0.002,0.006,0.000,0.000,0.000,0.000,0,2,0,3,7,255,960,300,0,0,-89.400,0.802,-31.465
EX0521-092111,19,C13,prep,2399,2399,0,936914.093,0.685,-0.676,0.196,0.188,0,0,0,0,0,0,0,0,0,0.000,0,0,0.060,0.006,-0.020,-0.040,-0.040,0.014,0.993,0.013,-0.004,-0.004,0.002,0.000,0.000,0.000,0.000,0,2,0,3,7,255,960,300,0,0,-89.400,0.802,-31.465
EX0521-092111,19,C13,prep,2424,2424,0,936919.092,0.685,-0.676,0.196,0.188,0,0,0,0,0,0,0,0,0,0.000,0,0,0.060,0.007,0.040,-0.040,0.020,0.015,0.993,0.012,-0.004,-0.006,-0.004,0.000,0.000,0.000,0.000,0,2,0,3,7,255,960,300,0,0,-89.400,0.802,-31.465
EX0521-092111,19,C13,prep,2424,2424,0,936924.091,0.685,-0.676,0.196,0.188,0,0,0,0,0,0,0,0,0,0.000,0,0,0.049,0.006,-0.020,-0.040,0.020,0.015,0.994,0.011,0.002,-0.006,-0.004,0.000,0.000,0.000,0.000,0,2,0,3,7,255,960,300,0,0,-89.400,0.802,-31.465
EX0521-092111,19,C13,prep,2425,2425,0,936929.092,0.685,-0.676,0.196,0.188,0,0,0,0,0,0,0,0,0,0.000,0,0,0.069,0.002,0.040,-0.040,-0.040,0.013,0.994,0.012,0.002,0.000,0.002,0.000,0.000,0.000,0.000,0,2,0,3,7,255,960,300,0,0,-89.400,0.802,-31.465
EX0521-092111,19,C13,prep,2425,2425,0,936934.091,0.685,-0.676,0.196,0.188,0,0,0,0,0,0,0,0,0,0.000,0,0,0.060,0.008,0.040,-0.040,0.020,0.014,0.994,0.012,-0.008,0.002,0.002,0.000,0.000,0.000,0.000,0,2,0,3,7,255,960,300,0,0,-89.400,0.802,-31.465
EX0521-092111,19,C13,prep,2426,2426,0,936939.091,0.685,-0.676,0.196,0.188,0,0,0,0,0,0,0,0,0,0.000,0,0,0.060,0.008,-0.020,-0.040,-0.040,0.014,0.994,0.011,-0.008,0.002,0.002,0.000,0.000,0.000,0.000,0,2,0,3,7,255,960,300,0,0,-89.400,0.802,-31.465
EX0521-092111,19,C13,prep,2426,2426,0,936944.092,0.685,-0.676,0.196,0.188,0,0,0,0,0,0,0,0,0,0.000,0,0,0.060,0.006,0.040,-0.040,0.020,0.014,0.994,0.012,-0.006,0.002,0.002,0.000,0.000,0.000,0.000,0,2,0,3,7,255,960,300,0,0,-89.400,0.802,-31.465
EX0521-092111,19,C13,prep,2431,2431,0,936949.092,0.685,-0.676,0.196,0.188,0,0,0,0,0,0,0,0,0,0.000,0,0,0.060,0.004,-0.020,-0.040,-0.040,0.015,0.995,0.012,-0.004,-0.002,0.002,0.000,0.000,0.000,0.000,0,2,0,3,7,255,960,300,0,0,-89.400,0.802,-31.465
EX0521-092111,19,C13,prep,2431,2431,0,936954.091,0.685,-0.676,0.196,0.188,0,0,0,0,0,0,0,0,0,0.000,0,0,0.049,0.006,-0.020,0.020,-0.040,0.015,0.994,0.012,-0.002,-0.006,0.002,0.000,0.000,0.000,0.000,0,2,0,3,7,255,960,300,0,0,-89.400,0.802,-31.465
EX0521-092111,19,C13,prep,2456,2456,0,936959.092,0.685,-0.676,0.196,0.188,0,0,0,0,0,0,0,0,0,0.000,0,0,0.049,0.007,-0.020,0.020,-0.040,0.015,0.994,0.011,0.004,-0.006,0.002,0.000,0.000,0.000,0.000,0,2,0,3,7,255,960,300,0,0,-89.400,0.802,-31.465
EX0521-092111,19,C13,prep,2456,2456,0,936964.093,0.685,-0.676,0.196,0.188,0,0,0,0,0,0,0,0,0,0.000,0,0,0.060,0.006,-0.020,-0.040,-0.040,0.015,0.994,0.012,0.004,-0.004,0.002,0.000,0.000,0.000,0.000,0,2,0,3,7,255,960,300,0,0,-89.400,0.802,-31.465
EX0521-092111,19,C13,prep,2456,2456,0,936969.092,0.685,-0.676,0.196,0.188,0,0,0,0,0,0,0,0,0,0.000,0,0,0.060,0.004,0.040,-0.040,0.020,0.015,0.995,0.012,0.002,-0.004,0.006,0.000,0.000,0.000,0.000,0,2,0,3,7,255,960,300,0,0,-89.400,0.802,-31.465
EX0521-092111,19,C13,prep,2456,2456,0,936974.092,0.685,-0.676,0.196,0.188,0,0,0,0,0,0,0,0,0,0.000,0,0,0.060,0.004,-0.020,-0.040,-0.040,0.015,0.994,0.012,0.000,-0.004,0.006,0.000,0.000,0.000,0.000,0,2,0,3,7,255,960,300,0,0,-89.400,0.802,-31.465
EX0521-092111,19,C13,prep,2463,2463,0,936979.091,0.685,-0.676,0.196,0.188,0,0,0,0,0,0,0,0,0,0.000,0,0,0.049,0.004,-0.020,0.020,-0.040,0.015,0.993,0.011,0.002,-0.004,0.006,0.000,0.000,0.000,0.000,0,2,0,3,7,255,960,300,0,0,-89.400,0.802,-31.465
