experiment_id,condition_order_index,condition_id,condition_phase,condition_phase_elapsed_ms,condition_elapsed_ms,is_stimulation_on,t_ms,R_q0,R_q1,R_q2,R_q3,R_heel1,R_mid1,R_fore1,R_heel2,R_fore3,R_mid2,R_fore4,R_fore2,R_cadence,R_speed,R_steps,R_zupt,R_gyroNorm,R_accH,R_gyro_x,R_gyro_y,R_gyro_z,R_acc_x,R_acc_y,R_acc_z,R_nav_ax,R_nav_ay,R_nav_az,R_stepVel,R_stepVelj,R_stepDispRaw,R_stepDispZUPT,R_gaitEvent,R_motorMode,R_motorActive,R_motorAlignment,R_motorRegionMask,R_motorAmplitude,R_motorIntervalMs,R_motorDurationMs,R_motorPhaseMs,R_motorCycleMs,R_roll,R_pitch,R_yaw
EX0521-092111,12,C10,prep,5,5,0,685959.095,0.683,-0.678,0.195,0.189,0,0,0,0,0,0,0,0,0,0.000,0,0,0.833,0.013,-0.680,-0.360,0.320,0.012,0.996,0.004,-0.004,-0.012,-0.034,0.000,0.000,0.000,0.000,0,3,0,3,7,255,1200,250,0,0,-89.710,0.565,-31.494
EX0521-092111,12,C10,prep,5,5,0,685964.092,0.683,-0.678,0.195,0.189,0,0,0,0,0,0,0,0,0,0.000,0,0,0.680,0.027,0.160,-0.660,-0.040,0.011,1.001,0.003,0.006,0.026,0.032,0.000,0.000,0.000,0.000,0,3,0,3,7,255,1200,250,0,0,-89.710,0.565,-31.497
EX0521-092111,12,C10,prep,5,5,0,685969.093,0.683,-0.678,0.195,0.189,0,0,0,0,0,0,0,0,0,0.000,0,0,0.484,0.027,0.420,-0.180,-0.160,0.013,0.991,0.005,0.008,0.026,0.032,0.000,0.000,0.000,0.000,0,3,0,3,7,255,1200,250,0,0,-89.710,0.565,-31.497
EX0521-092111,12,C10,prep,5,5,0,685974.092,0.683,-0.678,0.195,0.189,0,0,0,0,0,0,0,0,0,0.000,0,0,0.860,0.010,-0.740,-0.180,0.400,0.012,0.987,0.009,0.006,0.008,-0.016,0.000,0.000,0.000,0.000,0,3,0,3,7,255,1200,250,0,0,-89.706,0.565,-31.497
EX0521-092111,12,C10,prep,5,5,0,685979.092,0.683,-0.678,0.195,0.189,0,0,0,0,0,0,0,0,0,0.000,0,0,0.808,0.006,-0.740,0.060,0.320,0.012,0.997,0.007,-0.004,-0.004,-0.016,0.000,0.000,0.000,0.000,0,3,0,3,7,255,1200,250,0,0,-89.703,0.565,-31.497
EX0521-092111,12,C10,prep,5,5,0,685984.092,0.683,-0.678,0.195,0.189,0,0,0,0,0,0,0,0,0,0.000,0,0,0.885,0.006,0.780,-0.120,-0.400,0.013,0.998,0.005,-0.004,-0.004,0.040,0.000,0.000,0.000,0.000,0,3,0,3,7,255,1200,250,0,0,-89.707,0.565,-31.497
EX0521-092111,12,C10,prep,21,21,0,685989.091,0.683,-0.678,0.195,0.189,0,0,0,0,0,0,0,0,0,0.000,0,0,0.620,0.006,-0.560,-0.060,0.260,0.013,0.982,0.009,-0.004,-0.004,0.040,0.000,0.000,0.000,0.000,0,3,0,3,7,255,1200,250,0,0,-89.707,0.565,-31.497
EX0521-092111,12,C10,prep,21,21,0,685994.091,0.683,-0.678,0.195,0.189,0,0,0,0,0,0,0,0,0,0.000,0,0,0.793,0.009,-0.740,-0.120,0.260,0.012,1.002,0.006,-0.004,0.008,0.046,0.000,0.000,0.000,0.000,0,3,0,3,7,255,1200,250,0,0,-89.703,0.565,-31.497
EX0521-092111,12,C10,prep,55,55,0,685999.092,0.683,-0.678,0.195,0.189,0,0,0,0,0,0,0,0,0,0.000,0,0,1.495,0.009,1.320,-0.060,-0.700,0.012,0.991,0.005,-0.004,0.008,-0.022,0.000,0.000,0.000,0.000,0,3,0,3,7,255,1200,250,0,0,-89.710,0.561,-31.497
EX0521-092111,12,C10,prep,55,55,0,686004.092,0.683,-0.678,0.195,0.189,0,0,0,0,0,0,0,0,0,0.000,0,0,2.461,0.009,-2.220,-0.060,1.060,0.014,0.984,0.008,0.004,0.008,-0.022,0.000,0.000,0.000,0.000,0,3,0,3,7,255,1200,250,0,0,-89.699,0.567,-31.497
EX0521-092111,12,C10,prep,55,55,0,686009.091,0.683,-0.678,0.195,0.189,0,0,0,0,0,0,0,0,0,0.000,0,0,1.495,0.015,1.320,-0.060,-0.700,0.010,1.008,0.004,0.004,0.014,-0.022,0.000,0.000,0.000,0.000,0,3,0,3,7,255,1200,250,0,0,-89.706,0.563,-31.497
EX0521-092111,12,C10,prep,55,55,0,686014.092,0.683,-0.678,0.195,0.189,0,0,0,0,0,0,0,0,0,0.000,0,0,1.048,0.020,-0.940,0.060,0.460,0.016,0.971,0.011,0.004,-0.020,-0.088,0.000,0.000,0.000,0.000,0,3,0,3,7,255,1200,250,0,0,-89.699,0.564,-31.497
EX0521-092111,12,C10,prep,55,55,0,686019.092,0.683,-0.678,0.195,0.189,0,0,0,0,0,0,0,0,0,0.000,0,0,0.247,0.030,-0.200,-0.120,0.080,0.010,1.015,0.002,0.004,0.030,0.146,0.000,0.000,0.000,0.000,0,3,0,3,7,255,1200,250,0,0,-89.699,0.564,-31.497
EX0521-092111,12,C10,prep,55,55,0,686024.091,0.683,-0.678,0.195,0.189,0,0,0,0,0,0,0,0,0,0.000,0,0,1.200,0.056,1.080,0.060,-0.520,0.015,0.973,0.014,0.004,-0.056,-0.196,0.000,0.000,0.000,0.000,0,3,0,3,7,255,1200,250,0,0,-89.702,0.564,-31.497
EX0521-092111,12,C10,prep,85,85,0,686029.091,0.683,-0.678,0.195,0.189,0,0,0,0,0,0,0,0,0,0.000,0,0,1.806,0.048,-1.660,-0.120,0.700,0.011,1.008,-0.001,0.004,0.048,0.148,0.000,0.000,0.000,0.000,0,3,0,3,7,255,1200,250,0,0,-89.696,0.567,-31.497
EX0521-092111,12,C10,prep,85,85,0,686034.092,0.683,-0.678,0.195,0.189,0,0,0,0,0,0,0,0,0,0.000,0,0,1.787,0.062,1.640,-0.120,-0.700,0.014,0.985,0.013,-0.014,-0.060,-0.072,0.000,0.000,0.000,0.000,0,3,0,3,7,255,1200,250,0,0,-89.702,0.564,-31.497
EX0521-092111,12,C10,prep,85,85,0,686039.093,0.683,-0.678,0.195,0.189,0,0,0,0,0,0,0,0,0,0.000,0,0,1.079,0.048,-1.000,0.060,0.400,0.012,0.993,0.002,0.020,0.044,0.004,0.000,0.000,0.000,0.000,0,3,0,3,7,255,1200,250,0,0,-89.697,0.564,-31.497
EX0521-092111,12,C10,prep,85,85,0,686044.091,0.683,-0.678,0.195,0.189,0,0,0,0,0,0,0,0,0,0.000,0,0,0.341,0.022,0.220,-0.240,-0.100,0.011,1.000,0.009,-0.020,-0.010,0.004,0.000,0.000,0.000,0.000,0,3,0,3,7,255,1200,250,0,0,-89.697,0.564,-31.497
EX0521-092111,12,C10,prep,85,85,0,686049.092,0.683,-0.678,0.195,0.189,0,0,0,0,0,0,0,0,0,0.000,0,0,0.928,0.017,0.840,0.200,-0.340,0.014,0.982,0.007,0.014,-0.010,0.004,0.000,0.000,0.000,0.000,0,3,0,3,7,255,1200,250,0,0,-89.701,0.564,-31.497
EX0521-092111,12,C10,prep,85,85,0,686054.092,0.683,-0.678,0.195,0.189,0,0,0,0,0,0,0,0,0,0.000,0,0,1.049,0.013,-0.940,-0.240,0.400,0.011,1.008,0.002,0.008,-0.010,0.066,0.000,0.000,0.000,0.000,0,3,0,3,7,255,1200,250,0,0,-89.697,0.564,-31.497
EX0521-092111,12,C10,prep,101,101,0,686059.091,0.683,-0.678,0.195,0.189,0,0,0,0,0,0,0,0,0,0.000,0,0,0.944,0.016,0.900,-0.060,-0.280,0.014,0.982,0.013,0.008,-0.014,-0.106,0.000,0.000,0.000,0.000,0,3,0,3,7,255,1200,250,0,0,-89.699,0.564,-31.497
EX0521-092111,12,C10,prep,101,101,0,686064.093,0.683,-0.678,0.195,0.189,0,0,0,0,0,0,0,0,0,0.000,0,0,0.379,0.047,0.280,0.200,-0.160,0.013,0.997,0.000,0.008,0.046,0.038,0.000,0.000,0.000,0.000,0,3,0,3,7,255,1200,250,0,0,-89.704,0.564,-31.497
EX0521-092111,12,C10,prep,101,101,0,686069.092,0.683,-0.678,0.195,0.189,0,0,0,0,0,0,0,0,0,0.000,0,0,1.020,0.010,-0.940,-0.300,0.260,0.013,1.000,0.008,-0.002,-0.010,0.038,0.000,0.000,0.000,0.000,0,3,0,3,7,255,1200,250,0,0,-89.700,0.564,-31.497
EX0521-092111,12,C10,prep,101,101,0,686074.092,0.683,-0.678,0.195,0.189,0,0,0,0,0,0,0,0,0,0.000,0,0,0.545,0.011,0.540,0.060,-0.040,0.015,0.979,0.011,0.004,-0.010,0.038,0.000,0.000,0.000,0.000,0,3,0,3,7,255,1200,250,0,0,-89.695,0.565,-31.497
EX0521-092111,12,C10,prep,118,118,0,686079.092,0.683,-0.678,0.195,0.189,0,0,0,0,0,0,0,0,0,0.000,0,0,1.420,0.011,1.260,0.140,-0.640,0.010,1.006,0.000,0.004,-0.010,0.070,0.000,0.000,0.000,0.000,0,3,0,3,7,255,1200,250,0,0,-89.703,0.562,-31.497
EX0521-092111,12,C10,prep,118,118,0,686084.092,0.683,-0.678,0.195,0.189,0,0,0,0,0,0,0,0,0,0.000,0,0,2.441,0.034,-2.280,-0.300,0.820,0.013,0.990,0.011,0.004,-0.034,-0.030,0.000,0.000,0.000,0.000,0,3,0,3,7,255,1200,250,0,0,-89.690,0.566,-31.497
EX0521-092111,12,C10,prep,118,118,0,686089.092,0.683,-0.678,0.195,0.189,0,0,0,0,0,0,0,0,0,0.000,0,0,1.102,0.024,1.080,0.000,-0.220,0.014,0.989,0.009,0.000,-0.024,-0.030,0.000,0.000,0.000,0.000,0,3,0,3,7,255,1200,250,0,0,-89.695,0.566,-31.497
EX0521-092111,12,C10,prep,118,118,0,686094.091,0.683,-0.678,0.195,0.189,0,0,0,0,0,0,0,0,0,0.000,0,0,2.194,0.024,2.000,0.060,-0.900,0.011,0.998,0.002,0.000,-0.024,-0.030,0.000,0.000,0.000,0.000,0,3,0,3,7,255,1200,250,0,0,-89.705,0.562,-31.497
EX0521-092111,12,C10,prep,152,152,0,686099.091,0.683,-0.678,0.195,0.189,0,0,0,0,0,0,0,0,0,0.000,0,0,3.549,0.023,-3.320,-0.180,1.240,0.013,0.992,0.004,0.012,0.020,-0.006,0.000,0.000,0.000,0.000,0,3,0,3,7,255,1200,250,0,0,-89.689,0.568,-31.497
EX0521-092111,12,C10,prep,152,152,0,686104.092,0.683,-0.678,0.195,0.189,0,0,0,0,0,0,0,0,0,0.000,0,0,1.265,0.023,1.200,0.000,-0.400,0.012,0.991,0.011,0.012,0.020,-0.006,0.000,0.000,0.000,0.000,0,3,0,3,7,255,1200,250,0,0,-89.693,0.568,-31.497
EX0521-092111,12,C10,prep,153,153,0,686109.092,0.683,-0.678,0.195,0.189,0,0,0,0,0,0,0,0,0,0.000,0,0,1.265,0.018,1.200,0.000,-0.400,0.012,0.990,0.005,0.008,0.016,-0.020,0.000,0.000,0.000,0.000,0,3,0,3,7,255,1200,250,0,0,-89.699,0.568,-31.497
EX0521-092111,12,C10,prep,153,153,0,686114.091,0.683,-0.678,0.195,0.189,0,0,0,0,0,0,0,0,0,0.000,0,0,1.775,0.018,-1.660,-0.240,0.580,0.012,1.002,0.005,0.008,0.016,-0.020,0.000,0.000,0.000,0.000,0,3,0,3,7,255,1200,250,0,0,-89.691,0.568,-31.497
EX0521-092111,12,C10,prep,181,181,0,686119.092,0.683,-0.678,0.195,0.189,0,0,0,0,0,0,0,0,0,0.000,0,0,0.185,0.018,-0.140,0.120,0.020,0.013,0.985,0.014,0.008,0.016,-0.024,0.000,0.000,0.000,0.000,0,3,0,3,7,255,1200,250,0,0,-89.684,0.568,-31.497
EX0521-092111,12,C10,prep,181,181,0,686124.092,0.683,-0.678,0.195,0.189,0,0,0,0,0,0,0,0,0,0.000,0,0,0.221,0.022,0.220,0.000,0.020,0.012,0.995,0.003,0.008,0.020,0.018,0.000,0.000,0.000,0.000,0,3,0,3,7,255,1200,250,0,0,-89.684,0.568,-31.497
EX0521-092111,12,C10,prep,181,181,0,686129.091,0.683,-0.678,0.195,0.189,0,0,0,0,0,0,0,0,0,0.000,0,0,0.263,0.008,0.040,-0.240,-0.100,0.012,0.994,0.006,0.002,0.008,0.014,0.000,0.000,0.000,0.000,0,3,0,3,7,255,1200,250,0,0,-89.684,0.568,-31.497
EX0521-092111,12,C10,prep,181,181,0,686134.091,0.683,-0.678,0.195,0.189,0,0,0,0,0,0,0,0,0,0.000,0,0,0.598,0.008,-0.560,-0.060,0.200,0.015,0.987,0.010,0.002,0.008,0.014,0.000,0.000,0.000,0.000,0,3,0,3,7,255,1200,250,0,0,-89.684,0.568,-31.497
EX0521-092111,12,C10,prep,181,181,0,686139.093,0.683,-0.678,0.195,0.189,0,0,0,0,0,0,0,0,0,0.000,0,0,1.174,0.008,1.080,0.000,-0.460,0.013,1.001,0.006,0.002,0.008,0.014,0.000,0.000,0.000,0.000,0,3,0,3,7,255,1200,250,0,0,-89.690,0.568,-31.497
EX0521-092111,12,C10,prep,181,181,0,686144.092,0.683,-0.678,0.195,0.189,0,0,0,0,0,0,0,0,0,0.000,0,0,0.607,0.003,-0.560,-0.120,0.200,0.012,0.993,0.007,0.002,0.002,0.000,0.000,0.000,0.000,0.000,0,3,0,3,7,255,1200,250,0,0,-89.690,0.568,-31.497
EX0521-092111,12,C10,prep,197,197,0,686149.093,0.683,-0.678,0.195,0.189,0,0,0,0,0,0,0,0,0,0.000,0,0,0.446,0.004,-0.380,-0.120,0.200,0.013,0.993,0.007,0.004,0.002,0.000,0.000,0.000,0.000,0.000,0,3,0,3,7,255,1200,250,0,0,-89.690,0.568,-31.497
EX0521-092111,12,C10,prep,197,197,0,686154.092,0.683,-0.678,0.195,0.189,0,0,0,0,0,0,0,0,0,0.000,0,0,1.552,0.010,1.440,0.000,-0.580,0.012,0.992,0.008,-0.008,-0.006,0.000,0.000,0.000,0.000,0.000,0,3,0,3,7,255,1200,250,0,0,-89.697,0.565,-31.497
EX0521-092111,12,C10,prep,197,197,0,686159.095,0.683,-0.678,0.195,0.189,0,0,0,0,0,0,0,0,0,0.000,0,0,0.297,0.007,-0.260,-0.120,0.080,0.012,0.994,0.006,0.004,-0.006,0.000,0.000,0.000,0.000,0.000,0,3,0,3,7,255,1200,250,0,0,-89.697,0.565,-31.497
EX0521-092111,12,C10,prep,197,197,0,686164.091,0.683,-0.678,0.195,0.189,0,0,0,0,0,0,0,0,0,0.000,0,0,0.376,0.013,0.280,-0.120,-0.220,0.012,0.994,0.009,-0.008,-0.010,0.014,0.000,0.000,0.000,0.000,0,3,0,3,7,255,1200,250,0,0,-89.697,0.565,-31.497
EX0521-092111,12,C10,prep,197,197,0,686169.091,0.683,-0.678,0.195,0.189,0,0,0,0,0,0,0,0,0,0.000,0,0,0.851,0.012,0.780,0.000,-0.340,0.013,0.990,0.008,0.002,-0.012,0.014,0.000,0.000,0.000,0.000,0,3,0,3,7,255,1200,250,0,0,-89.701,0.565,-31.497
EX0521-092111,12,C10,prep,197,197,0,686174.092,0.683,-0.678,0.195,0.189,0,0,0,0,0,0,0,0,0,0.000,0,0,0.123,0.012,0.040,-0.060,-0.100,0.013,0.998,0.004,0.002,-0.012,0.014,0.000,0.000,0.000,0.000,0,3,0,3,7,255,1200,250,0,0,-89.701,0.565,-31.497
EX0521-092111,12,C10,prep,213,213,0,686179.092,0.683,-0.678,0.195,0.189,0,0,0,0,0,0,0,0,0,0.000,0,0,0.185,0.012,-0.140,-0.120,0.020,0.013,0.990,0.009,0.002,-0.012,-0.024,0.000,0.000,0.000,0.000,0,3,0,3,7,255,1200,250,0,0,-89.701,0.565,-31.497
EX0521-092111,12,C10,prep,213,213,0,686184.091,0.683,-0.678,0.195,0.189,0,0,0,0,0,0,0,0,0,0.000,0,0,0.528,0.004,0.480,0.000,-0.220,0.013,0.991,0.006,0.004,0.002,-0.016,0.000,0.000,0.000,0.000,0,3,0,3,7,255,1200,250,0,0,-89.701,0.565,-31.497
EX0521-092111,12,C10,prep,236,236,0,686189.091,0.683,-0.678,0.195,0.189,0,0,0,0,0,0,0,0,0,0.000,0,0,0.805,0.004,0.720,-0.120,-0.340,0.013,0.996,0.006,0.004,0.002,-0.016,0.000,0.000,0.000,0.000,0,3,0,3,7,255,1200,250,0,0,-89.705,0.565,-31.497
EX0521-092111,12,C10,prep,236,236,0,686194.092,0.683,-0.678,0.195,0.189,0,0,0,0,0,0,0,0,0,0.000,0,0,0.234,0.004,-0.200,-0.120,0.020,0.013,0.991,0.007,0.004,0.002,-0.016,0.000,0.000,0.000,0.000,0,3,0,3,7,255,1200,250,0,0,-89.705,0.565,-31.497
EX0521-092111,12,C10,prep,236,236,0,686199.091,0.683,-0.678,0.195,0.189,0,0,0,0,0,0,0,0,0,0.000,0,0,0.853,0.000,0.780,-0.060,-0.340,0.012,0.994,0.007,0.000,0.000,0.014,0.000,0.000,0.000,0.000,0,3,0,3,7,255,1200,250,0,0,-89.709,0.565,-31.497
EX0521-092111,12,C10,prep,236,236,0,686204.091,0.683,-0.678,0.195,0.189,0,0,0,0,0,0,0,0,0,0.000,0,0,0.457,0.004,0.400,0.000,-0.220,0.012,0.992,0.007,-0.002,-0.004,-0.006,0.000,0.000,0.000,0.000,0,3,0,3,7,255,1200,250,0,0,-89.709,0.565,-31.497
EX0521-092111,12,C10,prep,245,245,0,686209.092,0.683,-0.678,0.195,0.189,0,0,0,0,0,0,0,0,0,0.000,0,0,0.542,0.004,-0.500,-0.060,0.200,0.013,0.994,0.007,-0.002,-0.004,0.008,0.000,0.000,0.000,0.000,0,3,0,3,7,255,1200,250,0,0,-89.709,0.565,-31.497
EX0521-092111,12,C10,prep,245,245,0,686214.092,0.683,-0.678,0.195,0.189,0,0,0,0,0,0,0,0,0,0.000,0,0,0.662,0.008,0.600,0.000,-0.280,0.012,0.993,0.009,-0.006,-0.006,0.004,0.000,0.000,0.000,0.000,0,3,0,3,7,255,1200,250,0,0,-89.712,0.565,-31.497
EX0521-092111,12,C10,prep,246,246,0,686219.091,0.683,-0.678,0.195,0.189,0,0,0,0,0,0,0,0,0,0.000,0,0,0.322,0.006,0.280,0.000,-0.160,0.012,0.994,0.005,0.000,-0.006,0.008,0.000,0.000,0.000,0.000,0,3,0,3,7,255,1200,250,0,0,-89.712,0.565,-31.497
EX0521-092111,12,C10,prep,246,246,0,686224.091,0.683,-0.678,0.195,0.189,0,0,0,0,0,0,0,0,0,0.000,0,0,0.133,0.006,0.040,-0.120,-0.040,0.013,0.993,0.007,0.000,-0.006,0.004,0.000,0.000,0.000,0.000,0,3,0,3,7,255,1200,250,0,0,-89.712,0.565,-31.497
EX0521-092111,12,C10,prep,277,277,0,686229.092,0.683,-0.678,0.195,0.189,0,0,0,0,0,0,0,0,0,0.000,0,0,0.531,0.008,0.480,-0.060,-0.220,0.014,0.991,0.007,0.006,-0.006,0.004,0.000,0.000,0.000,0.000,0,3,0,3,7,255,1200,250,0,0,-89.712,0.565,-31.497
EX0521-092111,12,C10,prep,277,277,0,686234.092,0.683,-0.678,0.195,0.189,0,0,0,0,0,0,0,0,0,0.000,0,0,0.381,0.008,0.340,-0.060,-0.160,0.012,0.994,0.005,0.006,-0.006,0.004,0.000,0.000,0.000,0.000,0,3,0,3,7,255,1200,250,0,0,-89.713,0.565,-31.497
EX0521-092111,12,C10,prep,277,277,0,686239.093,0.683,-0.678,0.195,0.189,0,0,0,0,0,0,0,0,0,0.000,0,0,0.210,0.004,-0.200,-0.060,0.020,0.012,0.993,0.007,0.004,0.002,-0.002,0.000,0.000,0.000,0.000,0,3,0,3,7,255,1200,250,0,0,-89.713,0.565,-31.497
EX0521-092111,12,C10,prep,277,277,0,686244.092,0.683,-0.678,0.195,0.189,0,0,0,0,0,0,0,0,0,0.000,0,0,0.082,0.006,0.040,-0.060,-0.040,0.012,0.992,0.007,-0.006,0.002,-0.002,0.000,0.000,0.000,0.000,0,3,0,3,7,255,1200,250,0,0,-89.713,0.565,-31.497
EX0521-092111,12,C10,prep,277,277,0,686249.092,0.683,-0.678,0.195,0.189,0,0,0,0,0,0,0,0,0,0.000,0,0,0.556,0.006,0.480,0.000,-0.280,0.012,0.994,0.005,-0.006,0.002,-0.002,0.000,0.000,0.000,0.000,0,3,0,3,7,255,1200,250,0,0,-89.713,0.565,-31.497
EX0521-092111,12,C10,prep,277,277,0,686254.091,0.683,-0.678,0.195,0.189,0,0,0,0,0,0,0,0,0,0.000,0,0,0.128,0.007,-0.020,-0.120,-0.040,0.012,0.994,0.007,-0.006,-0.004,0.014,0.000,0.000,0.000,0.000,0,3,0,3,7,255,1200,250,0,0,-89.713,0.565,-31.497
EX0521-092111,12,C10,prep,308,308,0,686259.091,0.683,-0.678,0.195,0.189,0,0,0,0,0,0,0,0,0,0.000,0,0,0.344,0.004,0.280,-0.120,-0.160,0.013,0.993,0.007,0.002,-0.004,0.014,0.000,0.000,0.000,0.000,0,3,0,3,7,255,1200,250,0,0,-89.713,0.565,-31.497
EX0521-092111,12,C10,prep,308,308,0,686264.092,0.683,-0.678,0.195,0.189,0,0,0,0,0,0,0,0,0,0.000,0,0,0.642,0.004,0.600,-0.060,-0.220,0.013,0.993,0.006,0.002,-0.004,-0.002,0.000,0.000,0.000,0.000,0,3,0,3,7,255,1200,250,0,0,-89.716,0.565,-31.497
EX0521-092111,12,C10,prep,309,309,0,686269.092,0.683,-0.678,0.195,0.189,0,0,0,0,0,0,0,0,0,0.000,0,0,0.268,0.004,-0.260,-0.060,0.020,0.012,0.993,0.005,0.004,0.000,-0.002,0.000,0.000,0.000,0.000,0,3,0,3,7,255,1200,250,0,0,-89.716,0.565,-31.497
EX0521-092111,12,C10,prep,309,309,0,686274.091,0.683,-0.678,0.195,0.189,0,0,0,0,0,0,0,0,0,0.000,0,0,0.108,0.004,0.040,0.000,-0.100,0.013,0.993,0.007,0.004,0.000,-0.002,0.000,0.000,0.000,0.000,0,3,0,3,7,255,1200,250,0,0,-89.716,0.565,-31.497
EX0521-092111,12,C10,prep,309,309,0,686279.092,0.683,-0.678,0.195,0.189,0,0,0,0,0,0,0,0,0,0.000,0,0,0.242,0.010,0.220,0.000,-0.100,0.012,0.994,0.006,-0.002,0.010,-0.002,0.000,0.000,0.000,0.000,0,3,0,3,7,255,1200,250,0,0,-89.716,0.565,-31.497
EX0521-092111,12,C10,prep,309,309,0,686284.092,0.683,-0.678,0.195,0.189,0,0,0,0,0,0,0,0,0,0.000,0,0,0.075,0.010,-0.020,-0.060,-0.040,0.012,0.995,0.005,-0.002,0.010,0.012,0.000,0.000,0.000,0.000,0,3,0,3,7,255,1200,250,0,0,-89.716,0.565,-31.497
EX0521-092111,12,C10,prep,331,331,0,686289.091,0.683,-0.678,0.195,0.189,0,0,0,0,0,0,0,0,0,0.000,0,0,0.185,0.010,0.100,-0.120,-0.100,0.013,0.993,0.007,0.000,0.010,0.012,0.000,0.000,0.000,0.000,0,3,0,3,7,255,1200,250,0,0,-89.716,0.565,-31.497
EX0521-092111,12,C10,prep,331,331,0,686294.091,0.683,-0.678,0.195,0.189,0,0,0,0,0,0,0,0,0,0.000,0,0,0.460,0.014,0.400,-0.060,-0.220,0.012,0.994,0.005,0.000,0.014,0.008,0.000,0.000,0.000,0.000,0,3,0,3,7,255,1200,250,0,0,-89.716,0.565,-31.497
EX0521-092111,12,C10,prep,331,331,0,686299.092,0.683,-0.678,0.195,0.189,0,0,0,0,0,0,0,0,0,0.000,0,0,0.154,0.011,0.100,-0.060,-0.100,0.012,0.994,0.005,0.004,0.010,0.008,0.000,0.000,0.000,0.000,0,3,0,3,7,255,1200,250,0,0,-89.717,0.565,-31.497
EX0521-092111,12,C10,prep,332,332,0,686304.092,0.683,-0.678,0.195,0.189,0,0,0,0,0,0,0,0,0,0.000,0,0,0.157,0.010,-0.140,-0.060,-0.040,0.012,0.992,0.007,0.000,0.010,0.008,0.000,0.000,0.000,0.000,0,3,0,3,7,255,1200,250,0,0,-89.717,0.565,-31.497
EX0521-092111,12,C10,prep,341,341,0,686309.091,0.683,-0.678,0.195,0.189,0,0,0,0,0,0,0,0,0,0.000,0,0,0.328,0.010,0.280,-0.060,-0.160,0.012,0.993,0.006,-0.002,0.010,-0.002,0.000,0.000,0.000,0.000,0,3,0,3,7,255,1200,250,0,0,-89.717,0.565,-31.497
EX0521-092111,12,C10,prep,341,341,0,686314.092,0.683,-0.678,0.195,0.189,0,0,0,0,0,0,0,0,0,0.000,0,0,0.045,0.010,-0.020,0.000,-0.040,0.012,0.994,0.006,-0.002,0.010,-0.002,0.000,0.000,0.000,0.000,0,3,0,3,7,255,1200,250,0,0,-89.717,0.565,-31.497
EX0521-092111,12,C10,prep,342,342,0,686319.092,0.683,-0.678,0.195,0.189,0,0,0,0,0,0,0,0,0,0.000,0,0,0.150,0.010,-0.080,-0.120,-0.040,0.012,0.992,0.007,-0.002,0.010,-0.002,0.000,0.000,0.000,0.000,0,3,0,3,7,255,1200,250,0,0,-89.717,0.565,-31.497
EX0521-092111,12,C10,prep,342,342,0,686324.091,0.683,-0.678,0.195,0.189,0,0,0,0,0,0,0,0,0,0.000,0,0,0.376,0.004,0.340,0.000,-0.160,0.012,0.992,0.007,-0.004,-0.002,-0.006,0.000,0.000,0.000,0.000,0,3,0,3,7,255,1200,250,0,0,-89.717,0.565,-31.497
EX0521-092111,12,C10,prep,374,374,0,686329.091,0.683,-0.678,0.195,0.189,0,0,0,0,0,0,0,0,0,0.000,0,0,0.082,0.004,0.040,-0.060,-0.040,0.013,0.993,0.005,-0.004,-0.002,-0.006,0.000,0.000,0.000,0.000,0,3,0,3,7,255,1200,250,0,0,-89.717,0.565,-31.497
EX0521-092111,12,C10,prep,374,374,0,686334.092,0.683,-0.678,0.195,0.189,0,0,0,0,0,0,0,0,0,0.000,0,0,0.201,0.002,-0.200,0.000,0.020,0.012,0.993,0.006,0.000,0.002,-0.002,0.000,0.000,0.000,0.000,0,3,0,3,7,255,1200,250,0,0,-89.717,0.565,-31.497
EX0521-092111,12,C10,prep,374,374,0,686339.093,0.683,-0.678,0.195,0.189,0,0,0,0,0,0,0,0,0,0.000,0,0,0.123,0.006,0.100,-0.060,-0.040,0.012,0.993,0.006,0.002,0.006,-0.002,0.000,0.000,0.000,0.000,0,3,0,3,7,255,1200,250,0,0,-89.717,0.565,-31.497
EX0521-092111,12,C10,prep,374,374,0,686344.091,0.683,-0.678,0.195,0.189,0,0,0,0,0,0,0,0,0,0.000,0,0,0.075,0.006,-0.020,-0.060,-0.040,0.012,0.992,0.005,0.002,0.006,-0.002,0.000,0.000,0.000,0.000,0,3,0,3,7,255,1200,250,0,0,-89.717,0.564,-31.497
EX0521-092111,12,C10,prep,374,374,0,686349.092,0.683,-0.678,0.195,0.189,0,0,0,0,0,0,0,0,0,0.000,0,0,0.118,0.006,-0.020,-0.060,-0.100,0.012,0.993,0.007,0.002,0.006,-0.002,0.000,0.000,0.000,0.000,0,3,0,3,7,255,1200,250,0,0,-89.717,0.564,-31.497
EX0521-092111,12,C10,prep,374,374,0,686354.092,0.683,-0.678,0.195,0.189,0,0,0,0,0,0,0,0,0,0.000,0,0,0.322,0.002,0.280,0.000,-0.160,0.013,0.993,0.007,0.000,-0.002,-0.002,0.000,0.000,0.000,0.000,0,3,0,3,7,255,1200,250,0,0,-89.717,0.564,-31.497
EX0521-092111,12,C10,prep,405,405,0,686359.095,0.683,-0.678,0.195,0.189,0,0,0,0,0,0,0,0,0,0.000,0,0,0.279,0.002,0.220,-0.060,-0.160,0.012,0.994,0.006,0.000,-0.002,-0.002,0.000,0.000,0.000,0.000,0,3,0,3,7,255,1200,250,0,0,-89.717,0.564,-31.497
EX0521-092111,12,C10,prep,405,405,0,686364.091,0.683,-0.678,0.195,0.189,0,0,0,0,0,0,0,0,0,0.000,0,0,0.154,0.006,-0.140,-0.060,0.020,0.012,0.993,0.006,0.002,0.006,0.002,0.000,0.000,0.000,0.000,0,3,0,3,7,255,1200,250,0,0,-89.718,0.564,-31.497
EX0521-092111,12,C10,prep,405,405,0,686369.092,0.683,-0.678,0.195,0.189,0,0,0,0,0,0,0,0,0,0.000,0,0,0.108,0.006,0.100,0.000,-0.040,0.013,0.992,0.006,0.002,0.006,0.002,0.000,0.000,0.000,0.000,0,3,0,3,7,255,1200,250,0,0,-89.718,0.564,-31.497
EX0521-092111,12,C10,prep,405,405,0,686374.092,0.683,-0.678,0.195,0.189,0,0,0,0,0,0,0,0,0,0.000,0,0,0.057,0.010,0.040,0.000,-0.040,0.014,0.993,0.006,0.010,0.000,0.002,0.000,0.000,0.000,0.000,0,3,0,3,7,255,1200,250,0,0,-89.718,0.564,-31.497
EX0521-092111,12,C10,prep,405,405,0,686379.092,0.683,-0.678,0.195,0.189,0,0,0,0,0,0,0,0,0,0.000,0,0,0.146,0.010,-0.080,-0.120,0.020,0.012,0.994,0.007,0.010,-0.002,0.004,0.000,0.000,0.000,0.000,0,3,0,3,7,255,1200,250,0,0,-89.718,0.564,-31.497
EX0521-092111,12,C10,prep,405,405,0,686384.091,0.683,-0.678,0.195,0.189,0,0,0,0,0,0,0,0,0,0.000,0,0,0.198,0.008,0.160,-0.060,-0.100,0.012,0.992,0.007,-0.006,-0.006,0.004,0.000,0.000,0.000,0.000,0,3,0,3,7,255,1200,250,0,0,-89.718,0.564,-31.497
EX0521-092111,12,C10,prep,421,421,0,686389.092,0.683,-0.678,0.195,0.189,0,0,0,0,0,0,0,0,0,0.000,0,0,0.344,0.008,0.280,-0.120,-0.160,0.013,0.993,0.006,-0.006,-0.006,0.004,0.000,0.000,0.000,0.000,0,3,0,3,7,255,1200,250,0,0,-89.718,0.564,-31.497
EX0521-092111,12,C10,prep,421,421,0,686394.092,0.683,-0.678,0.195,0.189,0,0,0,0,0,0,0,0,0,0.000,0,0,0.150,0.004,-0.080,-0.120,-0.040,0.012,0.994,0.006,0.002,0.004,0.004,0.000,0.000,0.000,0.000,0,3,0,3,7,255,1200,250,0,0,-89.718,0.564,-31.497
EX0521-092111,12,C10,prep,437,437,0,686399.092,0.683,-0.678,0.195,0.189,0,0,0,0,0,0,0,0,0,0.000,0,0,0.075,0.007,-0.020,-0.060,-0.040,0.012,0.992,0.005,0.004,0.006,0.004,0.000,0.000,0.000,0.000,0,3,0,3,7,255,1200,250,0,0,-89.718,0.564,-31.497
EX0521-092111,12,C10,prep,437,437,0,686404.092,0.683,-0.678,0.195,0.189,0,0,0,0,0,0,0,0,0,0.000,0,0,0.123,0.010,0.100,-0.060,-0.040,0.011,0.992,0.005,0.002,0.010,-0.006,0.000,0.000,0.000,0.000,0,3,0,3,7,255,1200,250,0,0,-89.718,0.564,-31.497
EX0521-092111,12,C10,prep,437,437,0,686409.092,0.683,-0.678,0.195,0.189,0,0,0,0,0,0,0,0,0,0.000,0,0,0.075,0.012,-0.020,-0.060,-0.040,0.012,0.992,0.005,0.000,0.012,-0.012,0.000,0.000,0.000,0.000,0,3,0,3,7,255,1200,250,0,0,-89.718,0.564,-31.497
EX0521-092111,12,C10,prep,437,437,0,686414.091,0.683,-0.678,0.195,0.189,0,0,0,0,0,0,0,0,0,0.000,0,0,0.154,0.012,0.100,-0.060,-0.100,0.013,0.993,0.007,-0.002,0.012,-0.012,0.000,0.000,0.000,0.000,0,3,0,3,7,255,1200,250,0,0,-89.718,0.564,-31.497
EX0521-092111,12,C10,prep,453,453,0,686419.091,0.683,-0.678,0.195,0.189,0,0,0,0,0,0,0,0,0,0.000,0,0,0.531,0.004,0.480,-0.060,-0.220,0.013,0.994,0.006,0.000,0.004,-0.002,0.000,0.000,0.000,0.000,0,3,0,3,7,255,1200,250,0,0,-89.718,0.564,-31.497
EX0521-092111,12,C10,prep,453,453,0,686424.092,0.683,-0.678,0.195,0.189,0,0,0,0,0,0,0,0,0,0.000,0,0,0.344,0.003,0.280,-0.120,-0.160,0.011,0.993,0.007,-0.002,0.002,0.004,0.000,0.000,0.000,0.000,0,3,0,3,7,255,1200,250,0,0,-89.718,0.564,-31.497
EX0521-092111,12,C10,prep,485,485,0,686429.092,0.683,-0.678,0.195,0.189,0,0,0,0,0,0,0,0,0,0.000,0,0,0.279,0.002,0.220,-0.060,-0.160,0.012,0.993,0.006,0.000,0.002,0.004,0.000,0.000,0.000,0.000,0,3,0,3,7,255,1200,250,0,0,-89.719,0.564,-31.497
EX0521-092111,12,C10,prep,485,485,0,686434.091,0.683,-0.678,0.195,0.189,0,0,0,0,0,0,0,0,0,0.000,0,0,0.474,0.002,0.420,0.000,-0.220,0.012,0.992,0.005,0.000,0.002,-0.002,0.000,0.000,0.000,0.000,0,3,0,3,7,255,1200,250,0,0,-89.719,0.564,-31.497
EX0521-092111,12,C10,prep,485,485,0,686439.094,0.683,-0.678,0.195,0.189,0,0,0,0,0,0,0,0,0,0.000,0,0,0.272,0.006,0.220,0.000,-0.160,0.013,0.994,0.006,0.004,0.004,-0.002,0.000,0.000,0.000,0.000,0,3,0,3,7,255,1200,250,0,0,-89.719,0.564,-31.497
EX0521-092111,12,C10,prep,485,485,0,686444.092,0.683,-0.678,0.195,0.189,0,0,0,0,0,0,0,0,0,0.000,0,0,0.328,0.006,0.280,-0.060,-0.160,0.012,0.993,0.006,0.004,0.004,0.004,0.000,0.000,0.000,0.000,0,3,0,3,7,255,1200,250,0,0,-89.719,0.564,-31.497
EX0521-092111,12,C10,prep,485,485,0,686449.092,0.683,-0.678,0.195,0.189,0,0,0,0,0,0,0,0,0,0.000,0,0,0.559,0.003,0.480,-0.060,-0.280,0.011,0.994,0.007,-0.002,0.002,0.008,0.000,0.000,0.000,0.000,0,3,0,3,7,255,1200,250,0,0,-89.719,0.564,-31.497
EX0521-092111,12,C10,prep,485,485,0,686454.091,0.683,-0.678,0.195,0.189,0,0,0,0,0,0,0,0,0,0.000,0,0,0.361,0.003,0.280,-0.060,-0.220,0.012,0.994,0.006,-0.002,0.002,0.008,0.000,0.000,0.000,0.000,0,3,0,3,7,255,1200,250,0,0,-89.719,0.564,-31.497
EX0521-092111,12,C10,prep,507,507,0,686459.092,0.683,-0.678,0.195,0.189,0,0,0,0,0,0,0,0,0,0.000,0,0,0.249,0.003,0.220,-0.060,-0.100,0.013,0.993,0.007,-0.002,0.002,0.008,0.000,0.000,0.000,0.000,0,3,0,3,7,255,1200,250,0,0,-89.719,0.564,-31.497
EX0521-092111,12,C10,prep,507,507,0,686464.092,0.683,-0.678,0.195,0.189,0,0,0,0,0,0,0,0,0,0.000,0,0,0.328,0.002,0.280,-0.060,-0.160,0.013,0.992,0.004,0.000,0.002,-0.002,0.000,0.000,0.000,0.000,0,3,0,3,7,255,1200,250,0,0,-89.719,0.564,-31.497
EX0521-092111,12,C10,prep,508,508,0,686469.091,0.683,-0.678,0.195,0.189,0,0,0,0,0,0,0,0,0,0.000,0,0,0.141,0.002,0.100,0.000,-0.100,0.011,0.993,0.007,0.000,0.002,-0.002,0.000,0.000,0.000,0.000,0,3,0,3,7,255,1200,250,0,0,-89.719,0.564,-31.497
EX0521-092111,12,C10,prep,508,508,0,686474.092,0.683,-0.678,0.195,0.189,0,0,0,0,0,0,0,0,0,0.000,0,0,0.123,0.015,0.040,-0.060,-0.100,0.011,0.993,0.005,-0.004,0.014,-0.002,0.000,0.000,0.000,0.000,0,3,0,3,7,255,1200,250,0,0,-89.719,0.564,-31.497
EX0521-092111,12,C10,prep,508,508,0,686479.092,0.683,-0.678,0.195,0.189,0,0,0,0,0,0,0,0,0,0.000,0,0,0.279,0.012,0.220,-0.060,-0.160,0.011,0.993,0.007,-0.012,0.002,-0.002,0.000,0.000,0.000,0.000,0,3,0,3,7,255,1200,250,0,0,-89.719,0.564,-31.497
EX0521-092111,12,C10,prep,508,508,0,686484.091,0.683,-0.678,0.195,0.189,0,0,0,0,0,0,0,0,0,0.000,0,0,0.328,0.007,0.280,-0.060,-0.160,0.013,0.995,0.005,-0.004,0.006,-0.002,0.000,0.000,0.000,0.000,0,3,0,3,7,255,1200,250,0,0,-89.719,0.564,-31.497
EX0521-092111,12,C10,prep,517,517,0,686489.091,0.683,-0.678,0.195,0.189,0,0,0,0,0,0,0,0,0,0.000,0,0,0.198,0.008,0.160,-0.060,-0.100,0.013,0.993,0.006,0.008,0.002,0.002,0.000,0.000,0.000,0.000,0,3,0,3,7,255,1200,250,0,0,-89.719,0.564,-31.497
EX0521-092111,12,C10,prep,517,517,0,686494.092,0.683,-0.678,0.195,0.189,0,0,0,0,0,0,0,0,0,0.000,0,0,0.242,0.010,0.220,0.000,-0.100,0.012,0.994,0.005,0.008,0.006,0.012,0.000,0.000,0.000,0.000,0,3,0,3,7,255,1200,250,0,0,-89.720,0.564,-31.497
EX0521-092111,12,C10,prep,549,549,0,686499.092,0.683,-0.678,0.195,0.189,0,0,0,0,0,0,0,0,0,0.000,0,0,0.154,0.011,0.100,-0.060,-0.100,0.012,0.995,0.005,0.004,0.010,0.012,0.000,0.000,0.000,0.000,0,3,0,3,7,255,1200,250,0,0,-89.720,0.564,-31.497
EX0521-092111,12,C10,prep,549,549,0,686504.092,0.683,-0.678,0.195,0.189,0,0,0,0,0,0,0,0,0,0.000,0,0,0.066,0.012,-0.020,-0.060,0.020,0.011,0.994,0.005,0.000,0.012,0.012,0.000,0.000,0.000,0.000,0,3,0,3,7,255,1200,250,0,0,-89.720,0.564,-31.497
EX0521-092111,12,C10,prep,549,549,0,686509.092,0.683,-0.678,0.195,0.189,0,0,0,0,0,0,0,0,0,0.000,0,0,0.123,0.012,0.100,-0.060,-0.040,0.012,0.993,0.006,0.000,0.012,0.008,0.000,0.000,0.000,0.000,0,3,0,3,7,255,1200,250,0,0,-89.720,0.564,-31.497
EX0521-092111,12,C10,prep,549,549,0,686514.092,0.683,-0.678,0.195,0.189,0,0,0,0,0,0,0,0,0,0.000,0,0,0.198,0.010,0.160,-0.060,-0.100,0.013,0.995,0.005,0.002,0.010,0.008,0.000,0.000,0.000,0.000,0,3,0,3,7,255,1200,250,0,0,-89.720,0.564,-31.497
EX0521-092111,12,C10,prep,549,549,0,686519.092,0.683,-0.678,0.195,0.189,0,0,0,0,0,0,0,0,0,0.000,0,0,0.075,0.014,-0.020,-0.060,-0.040,0.013,0.993,0.004,0.010,0.010,-0.002,0.000,0.000,0.000,0.000,0,3,0,3,7,255,1200,250,0,0,-89.720,0.564,-31.497
EX0521-092111,12,C10,prep,549,549,0,686524.091,0.683,-0.678,0.195,0.189,0,0,0,0,0,0,0,0,0,0.000,0,0,0.082,0.017,0.040,-0.060,-0.040,0.012,0.993,0.005,0.010,0.014,0.002,0.000,0.000,0.000,0.000,0,3,0,3,7,255,1200,250,0,0,-89.720,0.564,-31.497
EX0521-092111,12,C10,prep,581,581,0,686529.092,0.683,-0.678,0.195,0.189,0,0,0,0,0,0,0,0,0,0.000,0,0,0.066,0.014,-0.020,-0.060,0.020,0.012,0.993,0.005,0.002,0.014,0.002,0.000,0.000,0.000,0.000,0,3,0,3,7,255,1200,250,0,0,-89.720,0.564,-31.497
EX0521-092111,12,C10,prep,581,581,0,686534.092,0.683,-0.678,0.195,0.189,0,0,0,0,0,0,0,0,0,0.000,0,0,0.157,0.012,-0.140,-0.060,-0.040,0.012,0.993,0.005,0.002,0.012,0.002,0.000,0.000,0.000,0.000,0,3,0,3,7,255,1200,250,0,0,-89.720,0.564,-31.497
EX0521-092111,12,C10,prep,581,581,0,686539.093,0.683,-0.678,0.195,0.189,0,0,0,0,0,0,0,0,0,0.000,0,0,0.066,0.012,-0.020,-0.060,0.020,0.012,0.993,0.005,0.002,0.012,0.002,0.000,0.000,0.000,0.000,0,3,0,3,7,255,1200,250,0,0,-89.720,0.564,-31.497
EX0521-092111,12,C10,prep,581,581,0,686544.091,0.683,-0.678,0.195,0.189,0,0,0,0,0,0,0,0,0,0.000,0,0,0.154,0.012,0.100,-0.060,-0.100,0.012,0.994,0.005,0.002,0.012,0.002,0.000,0.000,0.000,0.000,0,3,0,3,7,255,1200,250,0,0,-89.720,0.564,-31.497
EX0521-092111,12,C10,prep,581,581,0,686549.092,0.683,-0.678,0.195,0.189,0,0,0,0,0,0,0,0,0,0.000,0,0,0.123,0.010,0.100,-0.060,-0.040,0.011,0.994,0.006,0.000,0.010,0.006,0.000,0.000,0.000,0.000,0,3,0,3,7,255,1200,250,0,0,-89.720,0.564,-31.497
EX0521-092111,12,C10,prep,581,581,0,686554.092,0.683,-0.678,0.195,0.189,0,0,0,0,0,0,0,0,0,0.000,0,0,0.123,0.009,0.100,-0.060,-0.040,0.012,0.993,0.007,-0.008,0.004,0.006,0.000,0.000,0.000,0.000,0,3,0,3,7,255,1200,250,0,0,-89.720,0.564,-31.497
EX0521-092111,12,C10,prep,606,606,0,686559.094,0.683,-0.678,0.195,0.189,0,0,0,0,0,0,0,0,0,0.000,0,0,0.123,0.011,0.100,-0.060,-0.040,0.011,0.993,0.006,-0.010,0.004,0.002,0.000,0.000,0.000,0.000,0,3,0,3,7,255,1200,250,0,0,-89.721,0.564,-31.497
EX0521-092111,12,C10,prep,606,606,0,686564.092,0.683,-0.678,0.195,0.189,0,0,0,0,0,0,0,0,0,0.000,0,0,0.075,0.010,-0.020,-0.060,-0.040,0.012,0.993,0.006,-0.008,0.006,0.002,0.000,0.000,0.000,0.000,0,3,0,3,7,255,1200,250,0,0,-89.721,0.564,-31.497
EX0521-092111,12,C10,prep,606,606,0,686569.092,0.683,-0.678,0.195,0.189,0,0,0,0,0,0,0,0,0,0.000,0,0,0.082,0.012,0.040,-0.060,-0.040,0.011,0.993,0.006,-0.010,0.006,0.002,0.000,0.000,0.000,0.000,0,3,0,3,7,255,1200,250,0,0,-89.721,0.564,-31.497
EX0521-092111,12,C10,prep,606,606,0,686574.091,0.683,-0.678,0.195,0.189,0,0,0,0,0,0,0,0,0,0.000,0,0,0.198,0.006,0.160,-0.060,-0.100,0.012,0.993,0.005,-0.002,0.006,-0.002,0.000,0.000,0.000,0.000,0,3,0,3,7,255,1200,250,0,0,-89.721,0.564,-31.497
EX0521-092111,12,C10,prep,607,607,0,686579.092,0.683,-0.678,0.195,0.189,0,0,0,0,0,0,0,0,0,0.000,0,0,0.154,0.009,0.100,-0.060,-0.100,0.012,0.993,0.005,0.004,0.008,-0.002,0.000,0.000,0.000,0.000,0,3,0,3,7,255,1200,250,0,0,-89.721,0.564,-31.497
EX0521-092111,12,C10,prep,607,607,0,686584.092,0.683,-0.678,0.195,0.189,0,0,0,0,0,0,0,0,0,0.000,0,0,0.198,0.009,0.160,-0.060,-0.100,0.012,0.993,0.007,0.004,0.008,-0.002,0.000,0.000,0.000,0.000,0,3,0,3,7,255,1200,250,0,0,-89.721,0.564,-31.497
EX0521-092111,12,C10,prep,614,614,0,686589.092,0.683,-0.678,0.195,0.189,0,0,0,0,0,0,0,0,0,0.000,0,0,0.198,0.006,0.160,-0.060,-0.100,0.013,0.993,0.005,0.004,0.004,-0.002,0.000,0.000,0.000,0.000,0,3,0,3,7,255,1200,250,0,0,-89.721,0.564,-31.497
EX0521-092111,12,C10,prep,614,614,0,686594.091,0.683,-0.678,0.195,0.189,0,0,0,0,0,0,0,0,0,0.000,0,0,0.082,0.004,0.040,-0.060,-0.040,0.012,0.993,0.006,-0.002,0.004,-0.002,0.000,0.000,0.000,0.000,0,3,0,3,7,255,1200,250,0,0,-89.721,0.564,-31.497
EX0521-092111,12,C10,prep,650,650,0,686599.092,0.683,-0.678,0.195,0.189,0,0,0,0,0,0,0,0,0,0.000,0,0,0.108,0.006,0.040,0.000,-0.100,0.011,0.991,0.006,-0.002,0.006,-0.002,0.000,0.000,0.000,0.000,0,3,0,3,7,255,1200,250,0,0,-89.721,0.564,-31.497
EX0521-092111,12,C10,prep,650,650,0,686604.092,0.683,-0.678,0.195,0.189,0,0,0,0,0,0,0,0,0,0.000,0,0,0.189,0.008,0.160,0.000,-0.100,0.012,0.994,0.005,-0.002,0.008,-0.002,0.000,0.000,0.000,0.000,0,3,0,3,7,255,1200,250,0,0,-89.721,0.564,-31.497
EX0521-092111,12,C10,prep,651,651,0,686609.091,0.683,-0.678,0.195,0.189,0,0,0,0,0,0,0,0,0,0.000,0,0,0.198,0.010,0.160,-0.060,-0.100,0.012,0.993,0.005,0.000,0.010,0.002,0.000,0.000,0.000,0.000,0,3,0,3,7,255,1200,250,0,0,-89.721,0.564,-31.497
EX0521-092111,12,C10,prep,651,651,0,686614.091,0.683,-0.678,0.195,0.189,0,0,0,0,0,0,0,0,0,0.000,0,0,0.249,0.012,0.220,-0.060,-0.100,0.013,0.992,0.005,0.006,0.010,0.002,0.000,0.000,0.000,0.000,0,3,0,3,7,255,1200,250,0,0,-89.721,0.564,-31.497
EX0521-092111,12,C10,prep,652,652,0,686619.092,0.683,-0.678,0.195,0.189,0,0,0,0,0,0,0,0,0,0.000,0,0,0.270,0.004,0.220,-0.120,-0.100,0.011,0.993,0.006,0.000,0.004,0.002,0.000,0.000,0.000,0.000,0,3,0,3,7,255,1200,250,0,0,-89.721,0.564,-31.497
EX0521-092111,12,C10,prep,652,652,0,686624.092,0.683,-0.678,0.195,0.189,0,0,0,0,0,0,0,0,0,0.000,0,0,0.198,0.004,0.160,-0.060,-0.100,0.011,0.992,0.005,-0.002,0.004,-0.008,0.000,0.000,0.000,0.000,0,3,0,3,7,255,1200,250,0,0,-89.722,0.564,-31.497
EX0521-092111,12,C10,prep,677,677,0,686629.091,0.683,-0.678,0.195,0.189,0,0,0,0,0,0,0,0,0,0.000,0,0,0.082,0.016,0.040,-0.060,-0.040,0.011,0.993,0.004,-0.002,0.016,0.002,0.000,0.000,0.000,0.000,0,3,0,3,7,255,1200,250,0,0,-89.722,0.564,-31.497
EX0521-092111,12,C10,prep,677,677,0,686634.092,0.683,-0.678,0.195,0.189,0,0,0,0,0,0,0,0,0,0.000,0,0,0.082,0.016,0.040,-0.060,-0.040,0.012,0.992,0.006,0.000,0.016,-0.008,0.000,0.000,0.000,0.000,0,3,0,3,7,255,1200,250,0,0,-89.722,0.564,-31.497
EX0521-092111,12,C10,prep,677,677,0,686639.093,0.683,-0.678,0.195,0.189,0,0,0,0,0,0,0,0,0,0.000,0,0,0.154,0.008,0.100,-0.060,-0.100,0.012,0.994,0.005,0.000,0.008,0.002,0.000,0.000,0.000,0.000,0,3,0,3,7,255,1200,250,0,0,-89.722,0.564,-31.497
EX0521-092111,12,C10,prep,677,677,0,686644.091,0.683,-0.678,0.195,0.189,0,0,0,0,0,0,0,0,0,0.000,0,0,0.154,0.003,0.100,-0.060,-0.100,0.013,0.993,0.006,0.002,0.002,0.002,0.000,0.000,0.000,0.000,0,3,0,3,7,255,1200,250,0,0,-89.722,0.564,-31.497
EX0521-092111,12,C10,prep,677,677,0,686649.091,0.683,-0.678,0.195,0.189,0,0,0,0,0,0,0,0,0,0.000,0,0,0.198,0.004,0.160,-0.060,-0.100,0.013,0.993,0.007,0.000,-0.004,0.002,0.000,0.000,0.000,0.000,0,3,0,3,7,255,1200,250,0,0,-89.722,0.564,-31.497
EX0521-092111,12,C10,prep,677,677,0,686654.092,0.683,-0.678,0.195,0.189,0,0,0,0,0,0,0,0,0,0.000,0,0,0.198,0.004,0.160,-0.060,-0.100,0.012,0.992,0.006,0.000,-0.004,-0.002,0.000,0.000,0.000,0.000,0,3,0,3,7,255,1200,250,0,0,-89.722,0.564,-31.497
EX0521-092111,12,C10,prep,702,702,0,686659.092,0.683,-0.678,0.195,0.189,0,0,0,0,0,0,0,0,0,0.000,0,0,0.161,0.006,0.040,-0.120,-0.100,0.011,0.992,0.005,-0.006,0.000,-0.008,0.000,0.000,0.000,0.000,0,3,0,3,7,255,1200,250,0,0,-89.722,0.564,-31.497
EX0521-092111,12,C10,prep,702,702,0,686664.091,0.683,-0.678,0.195,0.189,0,0,0,0,0,0,0,0,0,0.000,0,0,0.123,0.013,0.040,-0.060,-0.100,0.013,0.994,0.004,-0.006,0.012,-0.008,0.000,0.000,0.000,0.000,0,3,0,3,7,255,1200,250,0,0,-89.722,0.564,-31.497
EX0521-092111,12,C10,prep,702,702,0,686669.092,0.683,-0.678,0.195,0.189,0,0,0,0,0,0,0,0,0,0.000,0,0,0.082,0.013,0.040,-0.060,-0.040,0.012,0.994,0.005,0.004,0.012,0.008,0.000,0.000,0.000,0.000,0,3,0,3,7,255,1200,250,0,0,-89.722,0.564,-31.497
EX0521-092111,12,C10,prep,702,702,0,686674.092,0.683,-0.678,0.195,0.189,0,0,0,0,0,0,0,0,0,0.000,0,0,0.075,0.013,-0.020,-0.060,-0.040,0.012,0.993,0.005,0.004,0.012,0.008,0.000,0.000,0.000,0.000,0,3,0,3,7,255,1200,250,0,0,-89.722,0.564,-31.497
EX0521-092111,12,C10,prep,703,703,0,686679.092,0.683,-0.678,0.195,0.189,0,0,0,0,0,0,0,0,0,0.000,0,0,0.249,0.013,0.220,-0.060,-0.100,0.012,0.993,0.004,0.004,0.012,-0.002,0.000,0.000,0.000,0.000,0,3,0,3,7,255,1200,250,0,0,-89.722,0.564,-31.497
EX0521-092111,12,C10,prep,703,703,0,686684.092,0.683,-0.678,0.195,0.189,0,0,0,0,0,0,0,0,0,0.000,0,0,0.256,0.013,0.160,-0.120,-0.160,0.013,0.994,0.005,0.004,0.012,-0.002,0.000,0.000,0.000,0.000,0,3,0,3,7,255,1200,250,0,0,-89.723,0.564,-31.497
EX0521-092111,12,C10,prep,738,738,0,686689.092,0.683,-0.678,0.195,0.189,0,0,0,0,0,0,0,0,0,0.000,0,0,0.154,0.006,0.100,-0.060,-0.100,0.012,0.993,0.006,0.004,0.004,-0.002,0.000,0.000,0.000,0.000,0,3,0,3,7,255,1200,250,0,0,-89.723,0.564,-31.497
EX0521-092111,12,C10,prep,738,738,0,686694.092,0.683,-0.678,0.195,0.189,0,0,0,0,0,0,0,0,0,0.000,0,0,0.123,0.004,0.100,-0.060,-0.040,0.012,0.994,0.005,0.002,0.004,0.006,0.000,0.000,0.000,0.000,0,3,0,3,7,255,1200,250,0,0,-89.723,0.564,-31.497
EX0521-092111,12,C10,prep,738,738,0,686699.091,0.683,-0.678,0.195,0.189,0,0,0,0,0,0,0,0,0,0.000,0,0,0.082,0.003,0.040,-0.060,-0.040,0.013,0.993,0.006,0.002,0.002,0.002,0.000,0.000,0.000,0.000,0,3,0,3,7,255,1200,250,0,0,-89.723,0.564,-31.497
EX0521-092111,12,C10,prep,738,738,0,686704.092,0.683,-0.678,0.195,0.189,0,0,0,0,0,0,0,0,0,0.000,0,0,0.075,0.012,-0.020,-0.060,-0.040,0.011,0.994,0.005,0.002,0.012,0.006,0.000,0.000,0.000,0.000,0,3,0,3,7,255,1200,250,0,0,-89.723,0.564,-31.497
EX0521-092111,12,C10,prep,739,739,0,686709.092,0.683,-0.678,0.195,0.189,0,0,0,0,0,0,0,0,0,0.000,0,0,0.123,0.012,0.100,-0.060,-0.040,0.012,0.993,0.005,0.002,0.012,0.002,0.000,0.000,0.000,0.000,0,3,0,3,7,255,1200,250,0,0,-89.723,0.564,-31.497
EX0521-092111,12,C10,prep,739,739,0,686714.092,0.683,-0.678,0.195,0.189,0,0,0,0,0,0,0,0,0,0.000,0,0,0.175,0.012,0.160,-0.060,-0.040,0.012,0.994,0.005,0.002,0.012,0.006,0.000,0.000,0.000,0.000,0,3,0,3,7,255,1200,250,0,0,-89.723,0.564,-31.497
EX0521-092111,12,C10,prep,771,771,0,686719.091,0.683,-0.678,0.195,0.189,0,0,0,0,0,0,0,0,0,0.000,0,0,0.082,0.012,0.040,-0.060,-0.040,0.011,0.994,0.004,0.002,0.012,0.006,0.000,0.000,0.000,0.000,0,3,0,3,7,255,1200,250,0,0,-89.723,0.564,-31.497
EX0521-092111,12,C10,prep,771,771,0,686724.092,0.683,-0.678,0.195,0.189,0,0,0,0,0,0,0,0,0,0.000,0,0,0.028,0.012,-0.020,0.000,0.020,0.012,0.993,0.005,0.002,0.012,0.006,0.000,0.000,0.000,0.000,0,3,0,3,7,255,1200,250,0,0,-89.723,0.564,-31.497
EX0521-092111,12,C10,prep,804,804,0,686729.092,0.683,-0.678,0.195,0.189,0,0,0,0,0,0,0,0,0,0.000,0,0,0.045,0.008,0.040,0.000,0.020,0.012,0.994,0.006,0.000,0.008,0.006,0.000,0.000,0.000,0.000,0,3,0,3,7,255,1200,250,0,0,-89.723,0.564,-31.497
EX0521-092111,12,C10,prep,804,804,0,686734.091,0.683,-0.678,0.195,0.189,0,0,0,0,0,0,0,0,0,0.000,0,0,0.082,0.006,0.040,-0.060,-0.040,0.012,0.993,0.006,-0.004,0.004,0.002,0.000,0.000,0.000,0.000,0,3,0,3,7,255,1200,250,0,0,-89.723,0.564,-31.497
EX0521-092111,12,C10,prep,804,804,0,686739.093,0.683,-0.678,0.195,0.189,0,0,0,0,0,0,0,0,0,0.000,0,0,0.175,0.006,0.160,-0.060,-0.040,0.012,0.993,0.005,-0.004,0.004,0.002,0.000,0.000,0.000,0.000,0,3,0,3,7,255,1200,250,0,0,-89.723,0.564,-31.497
EX0521-092111,12,C10,prep,804,804,0,686744.092,0.683,-0.678,0.195,0.189,0,0,0,0,0,0,0,0,0,0.000,0,0,0.242,0.004,0.220,0.000,-0.100,0.012,0.993,0.005,0.000,0.004,0.002,0.000,0.000,0.000,0.000,0,3,0,3,7,255,1200,250,0,0,-89.723,0.564,-31.497
EX0521-092111,12,C10,prep,806,806,0,686749.092,0.683,-0.678,0.195,0.189,0,0,0,0,0,0,0,0,0,0.000,0,0,0.154,0.004,0.100,-0.060,-0.100,0.012,0.992,0.006,0.000,0.004,-0.002,0.000,0.000,0.000,0.000,0,3,0,3,7,255,1200,250,0,0,-89.724,0.564,-31.497
EX0521-092111,12,C10,prep,806,806,0,686754.091,0.683,-0.678,0.195,0.189,0,0,0,0,0,0,0,0,0,0.000,0,0,0.108,0.004,0.100,0.000,-0.040,0.011,0.994,0.005,0.000,0.004,-0.002,0.000,0.000,0.000,0.000,0,3,0,3,7,255,1200,250,0,0,-89.724,0.564,-31.497
EX0521-092111,12,C10,prep,807,807,0,686759.094,0.683,-0.678,0.195,0.189,0,0,0,0,0,0,0,0,0,0.000,0,0,0.123,0.010,0.040,-0.060,-0.100,0.012,0.991,0.004,0.000,0.010,-0.008,0.000,0.000,0.000,0.000,0,3,0,3,7,255,1200,250,0,0,-89.724,0.564,-31.497
EX0521-092111,12,C10,prep,807,807,0,686764.092,0.683,-0.678,0.195,0.189,0,0,0,0,0,0,0,0,0,0.000,0,0,0.082,0.011,0.040,-0.060,-0.040,0.012,0.993,0.005,0.004,0.010,0.002,0.000,0.000,0.000,0.000,0,3,0,3,7,255,1200,250,0,0,-89.724,0.564,-31.497
EX0521-092111,12,C10,prep,808,808,0,686769.091,0.683,-0.678,0.195,0.189,0,0,0,0,0,0,0,0,0,0.000,0,0,0.082,0.010,0.040,-0.060,-0.040,0.012,0.993,0.005,0.006,0.008,-0.002,0.000,0.000,0.000,0.000,0,3,0,3,7,255,1200,250,0,0,-89.724,0.564,-31.497
EX0521-092111,12,C10,prep,808,808,0,686774.091,0.683,-0.678,0.195,0.189,0,0,0,0,0,0,0,0,0,0.000,0,0,0.123,0.007,0.100,-0.060,-0.040,0.013,0.993,0.005,0.006,0.004,0.002,0.000,0.000,0.000,0.000,0,3,0,3,7,255,1200,250,0,0,-89.724,0.564,-31.497
EX0521-092111,12,C10,prep,808,808,0,686779.092,0.683,-0.678,0.195,0.189,0,0,0,0,0,0,0,0,0,0.000,0,0,0.141,0.010,0.100,0.000,-0.100,0.011,0.993,0.006,0.006,0.008,-0.002,0.000,0.000,0.000,0.000,0,3,0,3,7,255,1200,250,0,0,-89.724,0.564,-31.497
EX0521-092111,12,C10,prep,808,808,0,686784.092,0.683,-0.678,0.195,0.189,0,0,0,0,0,0,0,0,0,0.000,0,0,0.082,0.009,0.040,-0.060,-0.040,0.011,0.993,0.005,-0.004,0.008,-0.002,0.000,0.000,0.000,0.000,0,3,0,3,7,255,1200,250,0,0,-89.724,0.564,-31.497
EX0521-092111,12,C10,prep,839,839,0,686789.091,0.683,-0.678,0.195,0.189,0,0,0,0,0,0,0,0,0,0.000,0,0,0.082,0.009,0.040,-0.060,-0.040,0.011,0.993,0.005,-0.004,0.008,-0.002,0.000,0.000,0.000,0.000,0,3,0,3,7,255,1200,250,0,0,-89.724,0.564,-31.497
EX0521-092111,12,C10,prep,839,839,0,686794.092,0.683,-0.678,0.195,0.189,0,0,0,0,0,0,0,0,0,0.000,0,0,0.102,0.009,-0.080,-0.060,0.020,0.013,0.993,0.005,-0.004,0.008,-0.002,0.000,0.000,0.000,0.000,0,3,0,3,7,255,1200,250,0,0,-89.724,0.564,-31.497
EX0521-092111,12,C10,prep,840,840,0,686799.092,0.683,-0.678,0.195,0.189,0,0,0,0,0,0,0,0,0,0.000,0,0,0.172,0.006,-0.140,-0.060,0.080,0.012,0.993,0.005,0.000,0.006,-0.002,0.000,0.000,0.000,0.000,0,3,0,3,7,255,1200,250,0,0,-89.724,0.564,-31.497
EX0521-092111,12,C10,prep,840,840,0,686804.091,0.683,-0.678,0.195,0.189,0,0,0,0,0,0,0,0,0,0.000,0,0,0.128,0.007,-0.080,-0.060,0.080,0.012,0.993,0.005,0.004,0.006,0.002,0.000,0.000,0.000,0.000,0,3,0,3,7,255,1200,250,0,0,-89.724,0.564,-31.497
EX0521-092111,12,C10,prep,841,841,0,686809.091,0.683,-0.678,0.195,0.189,0,0,0,0,0,0,0,0,0,0.000,0,0,0.102,0.006,-0.080,-0.060,0.020,0.012,0.993,0.005,0.002,0.006,-0.002,0.000,0.000,0.000,0.000,0,3,0,3,7,255,1200,250,0,0,-89.724,0.564,-31.497
EX0521-092111,12,C10,prep,841,841,0,686814.092,0.683,-0.678,0.195,0.189,0,0,0,0,0,0,0,0,0,0.000,0,0,0.172,0.004,-0.140,-0.060,0.080,0.011,0.993,0.006,0.002,0.004,0.002,0.000,0.000,0.000,0.000,0,3,0,3,7,255,1200,250,0,0,-89.725,0.564,-31.497
EX0521-092111,12,C10,prep,853,853,0,686819.092,0.683,-0.678,0.195,0.189,0,0,0,0,0,0,0,0,0,0.000,0,0,0.279,0.010,-0.260,-0.060,0.080,0.012,0.994,0.004,0.002,0.010,0.002,0.000,0.000,0.000,0.000,0,3,0,3,7,255,1200,250,0,0,-89.725,0.564,-31.497
EX0521-092111,12,C10,prep,853,853,0,686824.091,0.683,-0.678,0.195,0.189,0,0,0,0,0,0,0,0,0,0.000,0,0,0.279,0.009,-0.260,-0.060,0.080,0.012,0.992,0.005,0.004,0.008,0.002,0.000,0.000,0.000,0.000,0,3,0,3,7,255,1200,250,0,0,-89.725,0.564,-31.497
EX0521-092111,12,C10,prep,885,885,0,686829.092,0.683,-0.678,0.195,0.189,0,0,0,0,0,0,0,0,0,0.000,0,0,0.279,0.013,-0.260,-0.060,0.080,0.012,0.993,0.004,0.006,0.012,0.002,0.000,0.000,0.000,0.000,0,3,0,3,7,255,1200,250,0,0,-89.725,0.564,-31.497
EX0521-092111,12,C10,prep,885,885,0,686834.092,0.683,-0.678,0.195,0.189,0,0,0,0,0,0,0,0,0,0.000,0,0,0.279,0.010,-0.260,-0.060,0.080,0.012,0.992,0.005,0.006,0.008,-0.008,0.000,0.000,0.000,0.000,0,3,0,3,7,255,1200,250,0,0,-89.725,0.564,-31.497
EX0521-092111,12,C10,prep,885,885,0,686839.093,0.683,-0.678,0.195,0.189,0,0,0,0,0,0,0,0,0,0.000,0,0,0.295,0.013,-0.260,0.000,0.140,0.011,0.993,0.005,0.006,0.012,-0.002,0.000,0.000,0.000,0.000,0,3,0,3,7,255,1200,250,0,0,-89.725,0.564,-31.497
EX0521-092111,12,C10,prep,885,885,0,686844.091,0.683,-0.678,0.195,0.189,0,0,0,0,0,0,0,0,0,0.000,0,0,0.224,0.008,-0.200,-0.060,0.080,0.012,0.992,0.005,0.006,0.006,-0.008,0.000,0.000,0.000,0.000,0,3,0,3,7,255,1200,250,0,0,-89.725,0.564,-31.497
EX0521-092111,12,C10,prep,885,885,0,686849.092,0.683,-0.678,0.195,0.189,0,0,0,0,0,0,0,0,0,0.000,0,0,0.141,0.008,-0.140,0.000,0.020,0.012,0.993,0.005,0.006,0.006,-0.002,0.000,0.000,0.000,0.000,0,3,0,3,7,255,1200,250,0,0,-89.725,0.564,-31.497
EX0521-092111,12,C10,prep,885,885,0,686854.092,0.683,-0.678,0.195,0.189,0,0,0,0,0,0,0,0,0,0.000,0,0,0.146,0.008,-0.080,-0.120,0.020,0.013,0.993,0.005,0.006,0.006,-0.002,0.000,0.000,0.000,0.000,0,3,0,3,7,255,1200,250,0,0,-89.725,0.564,-31.497
EX0521-092111,12,C10,prep,906,906,0,686859.091,0.683,-0.678,0.195,0.189,0,0,0,0,0,0,0,0,0,0.000,0,0,0.066,0.006,-0.020,-0.060,0.020,0.012,0.993,0.006,0.006,0.000,0.002,0.000,0.000,0.000,0.000,0,3,0,3,7,255,1200,250,0,0,-89.725,0.564,-31.497
EX0521-092111,12,C10,prep,906,906,0,686864.091,0.683,-0.678,0.195,0.189,0,0,0,0,0,0,0,0,0,0.000,0,0,0.128,0.004,0.040,-0.120,0.020,0.013,0.993,0.006,0.004,-0.002,0.002,0.000,0.000,0.000,0.000,0,3,0,3,7,255,1200,250,0,0,-89.725,0.564,-31.497
EX0521-092111,12,C10,prep,907,907,0,686869.092,0.683,-0.678,0.195,0.189,0,0,0,0,0,0,0,0,0,0.000,0,0,0.082,0.002,0.040,-0.060,-0.040,0.012,0.992,0.006,0.000,-0.002,-0.002,0.000,0.000,0.000,0.000,0,3,0,3,7,255,1200,250,0,0,-89.725,0.564,-31.497
EX0521-092111,12,C10,prep,907,907,0,686874.092,0.683,-0.678,0.195,0.189,0,0,0,0,0,0,0,0,0,0.000,0,0,0.128,0.002,0.040,-0.120,0.020,0.012,0.992,0.005,-0.002,0.000,-0.008,0.000,0.000,0.000,0.000,0,3,0,3,7,255,1200,250,0,0,-89.725,0.564,-31.497
EX0521-092111,12,C10,prep,907,907,0,686879.092,0.683,-0.678,0.195,0.189,0,0,0,0,0,0,0,0,0,0.000,0,0,0.123,0.002,0.100,-0.060,-0.040,0.013,0.993,0.005,-0.002,0.000,-0.008,0.000,0.000,0.000,0.000,0,3,0,3,7,255,1200,250,0,0,-89.726,0.563,-31.497
EX0521-092111,12,C10,prep,907,907,0,686884.092,0.683,-0.678,0.195,0.189,0,0,0,0,0,0,0,0,0,0.000,0,0,0.082,0.004,0.040,-0.060,-0.040,0.012,0.993,0.005,-0.002,0.004,-0.002,0.000,0.000,0.000,0.000,0,3,0,3,7,255,1200,250,0,0,-89.726,0.563,-31.497
EX0521-092111,12,C10,prep,917,917,0,686889.092,0.683,-0.678,0.195,0.189,0,0,0,0,0,0,0,0,0,0.000,0,0,0.082,0.000,0.040,-0.060,-0.040,0.013,0.993,0.007,0.000,0.000,-0.002,0.000,0.000,0.000,0.000,0,3,0,3,7,255,1200,250,0,0,-89.726,0.563,-31.497
EX0521-092111,12,C10,prep,917,917,0,686894.091,0.683,-0.678,0.195,0.189,0,0,0,0,0,0,0,0,0,0.000,0,0,0.154,0.004,0.100,-0.060,-0.100,0.011,0.993,0.004,0.000,0.004,-0.002,0.000,0.000,0.000,0.000,0,3,0,3,7,255,1200,250,0,0,-89.726,0.563,-31.497
EX0521-092111,12,C10,prep,949,949,0,686899.092,0.683,-0.678,0.195,0.189,0,0,0,0,0,0,0,0,0,0.000,0,0,0.154,0.002,0.100,-0.060,-0.100,0.012,0.992,0.005,0.000,0.002,-0.002,0.000,0.000,0.000,0.000,0,3,0,3,7,255,1200,250,0,0,-89.726,0.563,-31.497
EX0521-092111,12,C10,prep,949,949,0,686904.092,0.683,-0.678,0.195,0.189,0,0,0,0,0,0,0,0,0,0.000,0,0,0.154,0.004,0.100,-0.060,-0.100,0.012,0.992,0.005,0.000,0.004,-0.008,0.000,0.000,0.000,0.000,0,3,0,3,7,255,1200,250,0,0,-89.726,0.563,-31.497
EX0521-092111,12,C10,prep,949,949,0,686909.092,0.683,-0.678,0.195,0.189,0,0,0,0,0,0,0,0,0,0.000,0,0,0.270,0.004,0.220,-0.120,-0.100,0.012,0.992,0.005,-0.002,0.004,-0.008,0.000,0.000,0.000,0.000,0,3,0,3,7,255,1200,250,0,0,-89.726,0.563,-31.497
EX0521-092111,12,C10,prep,949,949,0,686914.091,0.683,-0.678,0.195,0.189,0,0,0,0,0,0,0,0,0,0.000,0,0,0.198,0.004,0.160,-0.060,-0.100,0.011,0.992,0.005,-0.002,0.004,-0.012,0.000,0.000,0.000,0.000,0,3,0,3,7,255,1200,250,0,0,-89.726,0.563,-31.497
EX0521-092111,12,C10,prep,949,949,0,686919.091,0.683,-0.678,0.195,0.189,0,0,0,0,0,0,0,0,0,0.000,0,0,0.198,0.008,0.160,-0.060,-0.100,0.013,0.993,0.004,-0.002,0.008,-0.006,0.000,0.000,0.000,0.000,0,3,0,3,7,255,1200,250,0,0,-89.726,0.563,-31.497
EX0521-092111,12,C10,prep,949,949,0,686924.092,0.683,-0.678,0.195,0.189,0,0,0,0,0,0,0,0,0,0.000,0,0,0.154,0.010,0.100,-0.060,-0.100,0.011,0.993,0.005,-0.006,0.008,-0.002,0.000,0.000,0.000,0.000,0,3,0,3,7,255,1200,250,0,0,-89.726,0.563,-31.497
EX0521-092111,12,C10,prep,981,981,0,686929.091,0.683,-0.678,0.195,0.189,0,0,0,0,0,0,0,0,0,0.000,0,0,0.057,0.008,0.040,0.000,-0.040,0.012,0.993,0.005,0.002,0.008,-0.002,0.000,0.000,0.000,0.000,0,3,0,3,7,255,1200,250,0,0,-89.726,0.563,-31.497
EX0521-092111,12,C10,prep,981,981,0,686934.091,0.683,-0.678,0.195,0.189,0,0,0,0,0,0,0,0,0,0.000,0,0,0.123,0.008,0.100,-0.060,-0.040,0.012,0.993,0.005,-0.002,0.008,0.002,0.000,0.000,0.000,0.000,0,3,0,3,7,255,1200,250,0,0,-89.726,0.563,-31.497
EX0521-092111,12,C10,prep,981,981,0,686939.093,0.683,-0.678,0.195,0.189,0,0,0,0,0,0,0,0,0,0.000,0,0,0.075,0.004,-0.020,-0.060,-0.040,0.012,0.993,0.006,0.000,0.004,-0.002,0.000,0.000,0.000,0.000,0,3,0,3,7,255,1200,250,0,0,-89.726,0.563,-31.497
EX0521-092111,12,C10,prep,981,981,0,686944.092,0.683,-0.678,0.195,0.189,0,0,0,0,0,0,0,0,0,0.000,0,0,0.123,0.004,0.100,-0.060,-0.040,0.012,0.993,0.005,-0.002,0.004,-0.002,0.000,0.000,0.000,0.000,0,3,0,3,7,255,1200,250,0,0,-89.727,0.563,-31.497
EX0521-092111,12,C10,prep,981,981,0,686949.091,0.683,-0.678,0.195,0.189,0,0,0,0,0,0,0,0,0,0.000,0,0,0.154,0.004,0.100,-0.060,-0.100,0.011,0.993,0.004,0.000,0.004,-0.002,0.000,0.000,0.000,0.000,0,3,0,3,7,255,1200,250,0,0,-89.727,0.563,-31.497
EX0521-092111,12,C10,prep,981,981,0,686954.091,0.683,-0.678,0.195,0.189,0,0,0,0,0,0,0,0,0,0.000,0,0,0.154,0.004,0.100,-0.060,-0.100,0.011,0.991,0.006,-0.002,0.004,-0.002,0.000,0.000,0.000,0.000,0,3,0,3,7,255,1200,250,0,0,-89.727,0.563,-31.497
EX0521-092111,12,C10,prep,1005,1005,0,686959.095,0.683,-0.678,0.195,0.189,0,0,0,0,0,0,0,0,0,0.000,0,0,0.141,0.012,0.100,0.000,-0.100,0.012,0.993,0.004,0.000,0.012,-0.002,0.000,0.000,0.000,0.000,0,3,0,3,7,255,1200,250,0,0,-89.727,0.563,-31.497
EX0521-092111,12,C10,prep,1005,1005,0,686964.092,0.683,-0.678,0.195,0.189,0,0,0,0,0,0,0,0,0,0.000,0,0,0.185,0.008,0.100,-0.120,-0.100,0.012,0.992,0.005,0.002,0.008,-0.012,0.000,0.000,0.000,0.000,0,3,0,3,7,255,1200,250,0,0,-89.727,0.563,-31.497
EX0521-092111,12,C10,prep,1006,1006,0,686969.091,0.683,-0.678,0.195,0.189,0,0,0,0,0,0,0,0,0,0.000,0,0,0.175,0.009,0.160,-0.060,-0.040,0.012,0.993,0.005,0.004,0.008,-0.002,0.000,0.000,0.000,0.000,0,3,0,3,7,255,1200,250,0,0,-89.727,0.563,-31.497
EX0521-092111,12,C10,prep,1006,1006,0,686974.092,0.683,-0.678,0.195,0.189,0,0,0,0,0,0,0,0,0,0.000,0,0,0.123,0.008,0.100,-0.060,-0.040,0.013,0.992,0.005,0.006,0.006,-0.006,0.000,0.000,0.000,0.000,0,3,0,3,7,255,1200,250,0,0,-89.727,0.563,-31.497
EX0521-092111,12,C10,prep,1007,1007,0,686979.092,0.683,-0.678,0.195,0.189,0,0,0,0,0,0,0,0,0,0.000,0,0,0.123,0.008,0.100,-0.060,-0.040,0.011,0.993,0.005,0.006,0.006,0.004,0.000,0.000,0.000,0.000,0,3,0,3,7,255,1200,250,0,0,-89.727,0.563,-31.497
EX0521-092111,12,C10,prep,1007,1007,0,686984.091,0.683,-0.678,0.195,0.189,0,0,0,0,0,0,0,0,0,0.000,0,0,0.082,0.008,0.040,-0.060,-0.040,0.011,0.993,0.005,-0.006,0.006,0.004,0.000,0.000,0.000,0.000,0,3,0,3,7,255,1200,250,0,0,-89.727,0.563,-31.497
EX0521-092111,12,C10,prep,1038,1038,0,686989.091,0.683,-0.678,0.195,0.189,0,0,0,0,0,0,0,0,0,0.000,0,0,0.123,0.008,0.100,-0.060,-0.040,0.012,0.993,0.006,-0.006,0.006,0.004,0.000,0.000,0.000,0.000,0,3,0,3,7,255,1200,250,0,0,-89.727,0.563,-31.497
EX0521-092111,12,C10,prep,1038,1038,0,686994.092,0.683,-0.678,0.195,0.189,0,0,0,0,0,0,0,0,0,0.000,0,0,0.123,0.006,0.100,-0.060,-0.040,0.012,0.993,0.006,-0.006,0.000,0.004,0.000,0.000,0.000,0.000,0,3,0,3,7,255,1200,250,0,0,-89.727,0.563,-31.497
EX0521-092111,12,C10,prep,1038,1038,0,686999.092,0.683,-0.678,0.195,0.189,0,0,0,0,0,0,0,0,0,0.000,0,0,0.108,0.004,0.100,0.000,-0.040,0.012,0.993,0.005,-0.004,0.000,-0.002,0.000,0.000,0.000,0.000,0,3,0,3,7,255,1200,250,0,0,-89.727,0.563,-31.497
EX0521-092111,12,C10,prep,1038,1038,0,687004.091,0.683,-0.678,0.195,0.189,0,0,0,0,0,0,0,0,0,0.000,0,0,0.123,0.009,0.100,-0.060,-0.040,0.011,0.993,0.004,-0.004,0.008,0.002,0.000,0.000,0.000,0.000,0,3,0,3,7,255,1200,250,0,0,-89.727,0.563,-31.497
EX0521-092111,12,C10,prep,1039,1039,0,687009.092,0.683,-0.678,0.195,0.189,0,0,0,0,0,0,0,0,0,0.000,0,0,0.123,0.008,0.100,-0.060,-0.040,0.012,0.993,0.005,-0.002,0.008,0.002,0.000,0.000,0.000,0.000,0,3,0,3,7,255,1200,250,0,0,-89.728,0.563,-31.497
EX0521-092111,12,C10,prep,1039,1039,0,687014.092,0.683,-0.678,0.195,0.189,0,0,0,0,0,0,0,0,0,0.000,0,0,0.123,0.004,0.100,-0.060,-0.040,0.012,0.992,0.005,-0.002,0.004,0.002,0.000,0.000,0.000,0.000,0,3,0,3,7,255,1200,250,0,0,-89.728,0.563,-31.497
EX0521-092111,12,C10,prep,1070,1070,0,687019.092,0.683,-0.678,0.195,0.189,0,0,0,0,0,0,0,0,0,0.000,0,0,0.123,0.004,0.100,-0.060,-0.040,0.011,0.992,0.005,-0.002,0.004,-0.006,0.000,0.000,0.000,0.000,0,3,0,3,7,255,1200,250,0,0,-89.728,0.563,-31.497
EX0521-092111,12,C10,prep,1070,1070,0,687024.091,0.683,-0.678,0.195,0.189,0,0,0,0,0,0,0,0,0,0.000,0,0,0.154,0.008,0.100,-0.060,-0.100,0.012,0.992,0.005,0.002,0.008,-0.012,0.000,0.000,0.000,0.000,0,3,0,3,7,255,1200,250,0,0,-89.728,0.563,-31.497
EX0521-092111,12,C10,prep,1104,1104,0,687029.092,0.683,-0.678,0.195,0.189,0,0,0,0,0,0,0,0,0,0.000,0,0,0.198,0.008,0.160,-0.060,-0.100,0.012,0.991,0.005,0.002,0.008,-0.012,0.000,0.000,0.000,0.000,0,3,0,3,7,255,1200,250,0,0,-89.728,0.563,-31.497
EX0521-092111,12,C10,prep,1104,1104,0,687034.092,0.683,-0.678,0.195,0.189,0,0,0,0,0,0,0,0,0,0.000,0,0,0.154,0.006,0.100,-0.060,-0.100,0.012,0.992,0.005,0.002,0.006,-0.012,0.000,0.000,0.000,0.000,0,3,0,3,7,255,1200,250,0,0,-89.728,0.563,-31.497
EX0521-092111,12,C10,prep,1104,1104,0,687039.094,0.683,-0.678,0.195,0.189,0,0,0,0,0,0,0,0,0,0.000,0,0,0.123,0.006,0.040,-0.060,-0.100,0.012,0.993,0.005,0.002,0.006,-0.006,0.000,0.000,0.000,0.000,0,3,0,3,7,255,1200,250,0,0,-89.728,0.563,-31.497
EX0521-092111,12,C10,prep,1104,1104,0,687044.091,0.683,-0.678,0.195,0.189,0,0,0,0,0,0,0,0,0,0.000,0,0,0.108,0.008,0.100,0.000,-0.040,0.012,0.993,0.004,0.006,0.006,-0.002,0.000,0.000,0.000,0.000,0,3,0,3,7,255,1200,250,0,0,-89.728,0.563,-31.497
EX0521-092111,12,C10,prep,1104,1104,0,687049.092,0.683,-0.678,0.195,0.189,0,0,0,0,0,0,0,0,0,0.000,0,0,0.057,0.007,0.040,0.000,-0.040,0.012,0.992,0.005,0.006,0.004,-0.002,0.000,0.000,0.000,0.000,0,3,0,3,7,255,1200,250,0,0,-89.728,0.563,-31.497
EX0521-092111,12,C10,prep,1104,1104,0,687054.092,0.683,-0.678,0.195,0.189,0,0,0,0,0,0,0,0,0,0.000,0,0,0.075,0.003,-0.020,-0.060,-0.040,0.012,0.992,0.005,0.002,0.002,-0.006,0.000,0.000,0.000,0.000,0,3,0,3,7,255,1200,250,0,0,-89.728,0.563,-31.497
EX0521-092111,12,C10,prep,1104,1104,0,687059.091,0.683,-0.678,0.195,0.189,0,0,0,0,0,0,0,0,0,0.000,0,0,0.075,0.003,-0.020,-0.060,-0.040,0.012,0.993,0.005,0.002,0.002,-0.006,0.000,0.000,0.000,0.000,0,3,0,3,7,255,1200,250,0,0,-89.728,0.563,-31.497
EX0521-092111,12,C10,prep,1104,1104,0,687064.093,0.683,-0.678,0.195,0.189,0,0,0,0,0,0,0,0,0,0.000,0,0,0.215,0.004,-0.200,0.000,0.080,0.011,0.996,0.005,0.002,0.004,0.004,0.000,0.000,0.000,0.000,0,3,0,3,7,255,1200,250,0,0,-89.728,0.563,-31.497
EX0521-092111,12,C10,prep,1105,1105,0,687069.092,0.683,-0.678,0.195,0.189,0,0,0,0,0,0,0,0,0,0.000,0,0,1.040,0.006,-0.940,-0.060,0.440,0.013,0.990,0.006,0.004,0.004,0.004,0.000,0.000,0.000,0.000,0,3,0,3,7,255,1200,250,0,0,-89.724,0.563,-31.497
EX0521-092111,12,C10,prep,1105,1105,0,687074.091,0.683,-0.678,0.195,0.189,0,0,0,0,0,0,0,0,0,0.000,0,0,0.665,0.010,0.600,-0.060,-0.280,0.011,0.993,0.005,-0.002,0.010,-0.002,0.000,0.000,0.000,0.000,0,3,0,3,7,255,1200,250,0,0,-89.727,0.563,-31.497
EX0521-092111,12,C10,prep,1109,1109,0,687079.093,0.683,-0.678,0.195,0.189,0,0,0,0,0,0,0,0,0,0.000,0,0,0.198,0.003,0.160,-0.060,-0.100,0.012,0.993,0.005,-0.002,0.002,-0.002,0.000,0.000,0.000,0.000,0,3,0,3,7,255,1200,250,0,0,-89.727,0.563,-31.497
EX0521-092111,12,C10,prep,1109,1109,0,687084.092,0.683,-0.678,0.195,0.189,0,0,0,0,0,0,0,0,0,0.000,0,0,0.075,0.010,-0.020,-0.060,-0.040,0.011,0.993,0.005,-0.002,0.010,-0.002,0.000,0.000,0.000,0.000,0,3,0,3,7,255,1200,250,0,0,-89.727,0.563,-31.497
EX0521-092111,12,C10,prep,1131,1131,0,687089.092,0.683,-0.678,0.195,0.189,0,0,0,0,0,0,0,0,0,0.000,0,0,0.161,0.010,-0.140,0.000,0.080,0.011,0.994,0.004,-0.002,0.010,0.004,0.000,0.000,0.000,0.000,0,3,0,3,7,255,1200,250,0,0,-89.727,0.563,-31.497
EX0521-092111,12,C10,prep,1131,1131,0,687094.091,0.683,-0.678,0.195,0.189,0,0,0,0,0,0,0,0,0,0.000,0,0,0.539,0.010,-0.500,0.000,0.200,0.013,0.990,0.006,-0.002,0.010,-0.002,0.000,0.000,0.000,0.000,0,3,0,3,7,255,1200,250,0,0,-89.727,0.563,-31.497
EX0521-092111,12,C10,prep,1137,1137,0,687099.091,0.683,-0.678,0.195,0.189,0,0,0,0,0,0,0,0,0,0.000,0,0,0.611,0.008,0.540,-0.060,-0.280,0.011,0.993,0.005,-0.002,0.008,0.000,0.000,0.000,0.000,0.000,0,3,0,3,7,255,1200,250,0,0,-89.727,0.563,-31.497
EX0521-092111,12,C10,prep,1137,1137,0,687104.092,0.683,-0.678,0.195,0.189,0,0,0,0,0,0,0,0,0,0.000,0,0,0.123,0.002,0.040,-0.060,-0.100,0.012,0.993,0.005,0.002,0.000,0.000,0.000,0.000,0.000,0.000,0,3,0,3,7,255,1200,250,0,0,-89.727,0.563,-31.497
EX0521-092111,12,C10,prep,1137,1137,0,687109.092,0.683,-0.678,0.195,0.189,0,0,0,0,0,0,0,0,0,0.000,0,0,0.154,0.002,0.100,-0.060,-0.100,0.013,0.992,0.005,0.002,0.000,0.000,0.000,0.000,0.000,0.000,0,3,0,3,7,255,1200,250,0,0,-89.727,0.563,-31.497
EX0521-092111,12,C10,prep,1137,1137,0,687114.091,0.683,-0.678,0.195,0.189,0,0,0,0,0,0,0,0,0,0.000,0,0,0.082,0.002,0.040,-0.060,-0.040,0.011,0.993,0.004,0.002,0.000,0.000,0.000,0.000,0.000,0.000,0,3,0,3,7,255,1200,250,0,0,-89.727,0.563,-31.497
EX0521-092111,12,C10,prep,1163,1163,0,687119.092,0.683,-0.678,0.195,0.189,0,0,0,0,0,0,0,0,0,0.000,0,0,0.082,0.011,0.040,-0.060,-0.040,0.012,0.993,0.004,0.004,0.010,0.000,0.000,0.000,0.000,0.000,0,3,0,3,7,255,1200,250,0,0,-89.728,0.563,-31.497
EX0521-092111,12,C10,prep,1163,1163,0,687124.092,0.683,-0.678,0.195,0.189,0,0,0,0,0,0,0,0,0,0.000,0,0,0.045,0.010,-0.020,0.000,-0.040,0.011,0.993,0.005,0.000,0.010,0.000,0.000,0.000,0.000,0.000,0,3,0,3,7,255,1200,250,0,0,-89.728,0.563,-31.497
EX0521-092111,12,C10,prep,1202,1202,0,687129.091,0.683,-0.678,0.195,0.189,0,0,0,0,0,0,0,0,0,0.000,0,0,0.123,0.008,-0.020,-0.120,0.020,0.011,0.994,0.005,-0.006,0.006,0.000,0.000,0.000,0.000,0.000,0,3,0,3,7,255,1200,250,0,0,-89.728,0.563,-31.497
EX0521-092111,12,C10,prep,1202,1202,0,687134.091,0.683,-0.678,0.195,0.189,0,0,0,0,0,0,0,0,0,0.000,0,0,0.045,0.007,-0.020,0.000,-0.040,0.012,0.994,0.005,-0.006,0.004,0.008,0.000,0.000,0.000,0.000,0,3,0,3,7,255,1200,250,0,0,-89.728,0.563,-31.497
EX0521-092111,12,C10,prep,1202,1202,0,687139.093,0.683,-0.678,0.195,0.189,0,0,0,0,0,0,0,0,0,0.000,0,0,0.082,0.008,0.040,-0.060,-0.040,0.011,0.993,0.006,-0.008,0.000,0.008,0.000,0.000,0.000,0.000,0,3,0,3,7,255,1200,250,0,0,-89.728,0.563,-31.497
EX0521-092111,12,C10,prep,1202,1202,0,687144.092,0.683,-0.678,0.195,0.189,0,0,0,0,0,0,0,0,0,0.000,0,0,0.082,0.000,0.040,-0.060,-0.040,0.012,0.993,0.006,0.000,0.000,0.004,0.000,0.000,0.000,0.000,0,3,0,3,7,255,1200,250,0,0,-89.728,0.563,-31.497
EX0521-092111,12,C10,prep,1202,1202,0,687149.091,0.683,-0.678,0.195,0.189,0,0,0,0,0,0,0,0,0,0.000,0,0,0.108,0.000,0.100,0.000,-0.040,0.013,0.993,0.004,0.000,0.000,0.000,0.000,0.000,0.000,0.000,0,3,0,3,7,255,1200,250,0,0,-89.728,0.563,-31.497
EX0521-092111,12,C10,prep,1202,1202,0,687154.092,0.683,-0.678,0.195,0.189,0,0,0,0,0,0,0,0,0,0.000,0,0,0.123,0.002,0.100,-0.060,-0.040,0.012,0.993,0.005,0.002,0.000,0.000,0.000,0.000,0.000,0.000,0,3,0,3,7,255,1200,250,0,0,-89.728,0.563,-31.497
EX0521-092111,12,C10,prep,1202,1202,0,687159.095,0.683,-0.678,0.195,0.189,0,0,0,0,0,0,0,0,0,0.000,0,0,0.123,0.009,0.100,-0.060,-0.040,0.012,0.992,0.004,0.008,0.004,0.000,0.000,0.000,0.000,0.000,0,3,0,3,7,255,1200,250,0,0,-89.728,0.563,-31.497
EX0521-092111,12,C10,prep,1202,1202,0,687164.091,0.683,-0.678,0.195,0.189,0,0,0,0,0,0,0,0,0,0.000,0,0,0.123,0.009,0.040,-0.060,-0.100,0.012,0.993,0.004,0.004,0.008,0.000,0.000,0.000,0.000,0.000,0,3,0,3,7,255,1200,250,0,0,-89.728,0.563,-31.497
EX0521-092111,12,C10,prep,1203,1203,0,687169.091,0.683,-0.678,0.195,0.189,0,0,0,0,0,0,0,0,0,0.000,0,0,0.154,0.009,0.100,-0.060,-0.100,0.012,0.993,0.005,0.004,0.008,0.000,0.000,0.000,0.000,0.000,0,3,0,3,7,255,1200,250,0,0,-89.728,0.563,-31.497
EX0521-092111,12,C10,prep,1203,1203,0,687174.092,0.683,-0.678,0.195,0.189,0,0,0,0,0,0,0,0,0,0.000,0,0,0.123,0.010,0.040,-0.060,-0.100,0.010,0.994,0.005,-0.002,0.010,0.004,0.000,0.000,0.000,0.000,0,3,0,3,7,255,1200,250,0,0,-89.728,0.563,-31.497
EX0521-092111,12,C10,prep,1205,1205,0,687179.092,0.683,-0.678,0.195,0.189,0,0,0,0,0,0,0,0,0,0.000,0,0,0.912,0.014,-0.820,0.000,0.400,0.012,0.995,0.003,-0.002,0.014,0.014,0.000,0.000,0.000,0.000,0,3,0,3,7,255,1200,250,0,0,-89.724,0.563,-31.497
EX0521-092111,12,C10,prep,1205,1205,0,687184.091,0.683,-0.678,0.195,0.189,0,0,0,0,0,0,0,0,0,0.000,0,0,0.675,0.014,-0.620,-0.060,0.260,0.013,0.988,0.007,0.002,0.014,0.014,0.000,0.000,0.000,0.000,0,3,0,3,7,255,1200,250,0,0,-89.721,0.563,-31.497
EX0521-092111,12,C10,prep,1236,1236,0,687189.091,0.683,-0.678,0.195,0.189,0,0,0,0,0,0,0,0,0,0.000,0,0,0.198,0.018,0.160,-0.060,-0.100,0.011,0.993,0.004,0.002,0.018,0.004,0.000,0.000,0.000,0.000,0,3,0,3,7,255,1200,250,0,0,-89.721,0.563,-31.497
EX0521-092111,12,C10,prep,1236,1236,0,687194.092,0.683,-0.678,0.195,0.189,0,0,0,0,0,0,0,0,0,0.000,0,0,0.082,0.004,0.040,-0.060,-0.040,0.012,0.992,0.005,0.002,0.004,-0.006,0.000,0.000,0.000,0.000,0,3,0,3,7,255,1200,250,0,0,-89.722,0.563,-31.497
EX0521-092111,12,C10,prep,1238,1238,0,687199.092,0.683,-0.678,0.195,0.189,0,0,0,0,0,0,0,0,0,0.000,0,0,0.393,0.008,-0.380,-0.060,0.080,0.011,0.996,0.005,0.002,0.008,0.004,0.000,0.000,0.000,0.000,0,3,0,3,7,255,1200,250,0,0,-89.722,0.563,-31.497
EX0521-092111,12,C10,prep,1238,1238,0,687204.091,0.683,-0.678,0.195,0.189,0,0,0,0,0,0,0,0,0,0.000,0,0,0.075,0.004,-0.020,-0.060,-0.040,0.012,0.992,0.006,-0.002,0.004,-0.006,0.000,0.000,0.000,0.000,0,3,0,3,7,255,1200,250,0,0,-89.722,0.563,-31.497
EX0521-092111,12,C10,prep,1238,1238,0,687209.092,0.683,-0.678,0.195,0.189,0,0,0,0,0,0,0,0,0,0.000,0,0,0.154,0.008,0.100,-0.060,-0.100,0.011,0.992,0.005,-0.002,0.008,-0.006,0.000,0.000,0.000,0.000,0,3,0,3,7,255,1200,250,0,0,-89.722,0.563,-31.497
EX0521-092111,12,C10,prep,1238,1238,0,687214.092,0.683,-0.678,0.195,0.189,0,0,0,0,0,0,0,0,0,0.000,0,0,0.123,0.006,0.040,-0.060,-0.100,0.011,0.994,0.005,-0.004,0.004,-0.006,0.000,0.000,0.000,0.000,0,3,0,3,7,255,1200,250,0,0,-89.722,0.563,-31.497
EX0521-092111,12,C10,prep,1253,1253,0,687219.091,0.683,-0.678,0.195,0.189,0,0,0,0,0,0,0,0,0,0.000,0,0,0.082,0.006,0.040,-0.060,-0.040,0.012,0.994,0.006,-0.004,0.004,0.008,0.000,0.000,0.000,0.000,0,3,0,3,7,255,1200,250,0,0,-89.722,0.563,-31.497
EX0521-092111,12,C10,prep,1253,1253,0,687224.091,0.683,-0.678,0.195,0.189,0,0,0,0,0,0,0,0,0,0.000,0,0,0.123,0.006,0.100,-0.060,-0.040,0.011,0.994,0.006,-0.006,0.002,0.008,0.000,0.000,0.000,0.000,0,3,0,3,7,255,1200,250,0,0,-89.722,0.563,-31.497
EX0521-092111,12,C10,prep,1285,1285,0,687229.092,0.683,-0.678,0.195,0.189,0,0,0,0,0,0,0,0,0,0.000,0,0,0.141,0.004,0.100,0.000,-0.100,0.011,0.994,0.005,-0.004,0.002,0.008,0.000,0.000,0.000,0.000,0,3,0,3,7,255,1200,250,0,0,-89.722,0.563,-31.497
EX0521-092111,12,C10,prep,1285,1285,0,687234.092,0.683,-0.678,0.195,0.189,0,0,0,0,0,0,0,0,0,0.000,0,0,0.123,0.013,0.100,-0.060,-0.040,0.010,0.994,0.005,-0.012,0.004,0.008,0.000,0.000,0.000,0.000,0,3,0,3,7,255,1200,250,0,0,-89.722,0.563,-31.497
EX0521-092111,12,C10,prep,1285,1285,0,687239.093,0.683,-0.678,0.195,0.189,0,0,0,0,0,0,0,0,0,0.000,0,0,0.154,0.006,0.100,-0.060,-0.100,0.012,0.993,0.005,-0.004,0.004,0.008,0.000,0.000,0.000,0.000,0,3,0,3,7,255,1200,250,0,0,-89.722,0.563,-31.497
EX0521-092111,12,C10,prep,1285,1285,0,687244.091,0.683,-0.678,0.195,0.189,0,0,0,0,0,0,0,0,0,0.000,0,0,0.154,0.007,0.100,-0.060,-0.100,0.012,0.993,0.005,0.006,0.004,0.004,0.000,0.000,0.000,0.000,0,3,0,3,7,255,1200,250,0,0,-89.722,0.563,-31.497
EX0521-092111,12,C10,prep,1285,1285,0,687249.092,0.683,-0.678,0.195,0.189,0,0,0,0,0,0,0,0,0,0.000,0,0,0.118,0.007,-0.020,-0.060,-0.100,0.012,0.992,0.006,0.006,0.004,-0.002,0.000,0.000,0.000,0.000,0,3,0,3,7,255,1200,250,0,0,-89.722,0.563,-31.497
EX0521-092111,12,C10,prep,1285,1285,0,687254.092,0.683,-0.678,0.195,0.189,0,0,0,0,0,0,0,0,0,0.000,0,0,0.123,0.002,0.040,-0.060,-0.100,0.011,0.993,0.006,0.000,0.002,-0.002,0.000,0.000,0.000,0.000,0,3,0,3,7,255,1200,250,0,0,-89.722,0.563,-31.497
EX0521-092111,12,C10,prep,1301,1301,0,687259.091,0.683,-0.678,0.195,0.189,0,0,0,0,0,0,0,0,0,0.000,0,0,0.123,0.004,0.100,-0.060,-0.040,0.011,0.992,0.005,-0.004,0.002,-0.006,0.000,0.000,0.000,0.000,0,3,0,3,7,255,1200,250,0,0,-89.723,0.563,-31.497
EX0521-092111,12,C10,prep,1301,1301,0,687264.092,0.683,-0.678,0.195,0.189,0,0,0,0,0,0,0,0,0,0.000,0,0,0.123,0.006,0.100,-0.060,-0.040,0.012,0.992,0.005,-0.004,0.004,-0.006,0.000,0.000,0.000,0.000,0,3,0,3,7,255,1200,250,0,0,-89.723,0.563,-31.497
EX0521-092111,12,C10,prep,1301,1301,0,687269.092,0.683,-0.678,0.195,0.189,0,0,0,0,0,0,0,0,0,0.000,0,0,0.154,0.007,0.100,-0.060,-0.100,0.012,0.992,0.004,0.006,0.004,-0.010,0.000,0.000,0.000,0.000,0,3,0,3,7,255,1200,250,0,0,-89.723,0.563,-31.497
EX0521-092111,12,C10,prep,1301,1301,0,687274.091,0.683,-0.678,0.195,0.189,0,0,0,0,0,0,0,0,0,0.000,0,0,0.154,0.008,0.100,-0.060,-0.100,0.012,0.992,0.005,0.006,0.006,-0.006,0.000,0.000,0.000,0.000,0,3,0,3,7,255,1200,250,0,0,-89.723,0.563,-31.497
EX0521-092111,12,C10,prep,1317,1317,0,687279.092,0.683,-0.678,0.195,0.189,0,0,0,0,0,0,0,0,0,0.000,0,0,0.154,0.010,0.100,-0.060,-0.100,0.012,0.993,0.004,0.008,0.006,-0.006,0.000,0.000,0.000,0.000,0,3,0,3,7,255,1200,250,0,0,-89.723,0.563,-31.497
EX0521-092111,12,C10,prep,1317,1317,0,687284.092,0.683,-0.678,0.195,0.189,0,0,0,0,0,0,0,0,0,0.000,0,0,0.082,0.006,0.040,-0.060,-0.040,0.012,0.992,0.005,0.002,0.006,-0.006,0.000,0.000,0.000,0.000,0,3,0,3,7,255,1200,250,0,0,-89.723,0.563,-31.497
EX0521-092111,12,C10,prep,1317,1317,0,687289.092,0.683,-0.678,0.195,0.189,0,0,0,0,0,0,0,0,0,0.000,0,0,0.082,0.006,0.040,-0.060,-0.040,0.012,0.992,0.005,0.002,0.006,-0.006,0.000,0.000,0.000,0.000,0,3,0,3,7,255,1200,250,0,0,-89.723,0.563,-31.497
EX0521-092111,12,C10,prep,1317,1317,0,687294.091,0.683,-0.678,0.195,0.189,0,0,0,0,0,0,0,0,0,0.000,0,0,0.082,0.006,0.040,-0.060,-0.040,0.012,0.991,0.005,0.002,0.006,-0.006,0.000,0.000,0.000,0.000,0,3,0,3,7,255,1200,250,0,0,-89.723,0.563,-31.497
EX0521-092111,12,C10,prep,1333,1333,0,687299.092,0.683,-0.678,0.195,0.189,0,0,0,0,0,0,0,0,0,0.000,0,0,0.123,0.003,0.040,-0.060,-0.100,0.012,0.993,0.005,0.002,0.002,-0.006,0.000,0.000,0.000,0.000,0,3,0,3,7,255,1200,250,0,0,-89.723,0.563,-31.497
EX0521-092111,12,C10,prep,1333,1333,0,687304.092,0.683,-0.678,0.195,0.189,0,0,0,0,0,0,0,0,0,0.000,0,0,0.110,0.004,0.100,0.020,-0.040,0.012,0.992,0.005,0.004,0.002,-0.006,0.000,0.000,0.000,0.000,0,3,0,3,7,255,1200,250,0,0,-89.723,0.563,-31.497
EX0521-092111,12,C10,prep,1333,1333,0,687309.091,0.683,-0.678,0.195,0.189,0,0,0,0,0,0,0,0,0,0.000,0,0,0.082,0.002,0.040,-0.060,-0.040,0.012,0.993,0.005,0.000,0.002,0.000,0.000,0.000,0.000,0.000,0,3,0,3,7,255,1200,250,0,0,-89.723,0.563,-31.497
EX0521-092111,12,C10,prep,1333,1333,0,687314.091,0.683,-0.678,0.195,0.189,0,0,0,0,0,0,0,0,0,0.000,0,0,0.082,0.003,0.040,-0.060,-0.040,0.012,0.993,0.005,0.002,0.002,0.000,0.000,0.000,0.000,0.000,0,3,0,3,7,255,1200,250,0,0,-89.723,0.563,-31.497
EX0521-092111,12,C10,prep,1349,1349,0,687319.092,0.683,-0.678,0.195,0.189,0,0,0,0,0,0,0,0,0,0.000,0,0,0.082,0.002,0.040,-0.060,-0.040,0.012,0.993,0.005,0.000,0.002,0.000,0.000,0.000,0.000,0.000,0,3,0,3,7,255,1200,250,0,0,-89.723,0.563,-31.497
EX0521-092111,12,C10,prep,1349,1349,0,687324.092,0.683,-0.678,0.195,0.189,0,0,0,0,0,0,0,0,0,0.000,0,0,0.133,0.004,0.040,-0.120,-0.040,0.011,0.994,0.005,-0.002,0.004,0.004,0.000,0.000,0.000,0.000,0,3,0,3,7,255,1200,250,0,0,-89.724,0.563,-31.497
EX0521-092111,12,C10,prep,1381,1381,0,687329.091,0.683,-0.678,0.195,0.189,0,0,0,0,0,0,0,0,0,0.000,0,0,0.175,0.007,0.160,-0.060,-0.040,0.011,0.993,0.005,-0.006,0.004,0.000,0.000,0.000,0.000,0.000,0,3,0,3,7,255,1200,250,0,0,-89.724,0.563,-31.497
EX0521-092111,12,C10,prep,1381,1381,0,687334.091,0.683,-0.678,0.195,0.189,0,0,0,0,0,0,0,0,0,0.000,0,0,0.123,0.007,0.100,-0.060,-0.040,0.011,0.994,0.005,-0.006,0.004,0.008,0.000,0.000,0.000,0.000,0,3,0,3,7,255,1200,250,0,0,-89.724,0.563,-31.497
EX0521-092111,12,C10,prep,1381,1381,0,687339.095,0.683,-0.678,0.195,0.189,0,0,0,0,0,0,0,0,0,0.000,0,0,0.198,0.007,0.160,-0.060,-0.100,0.012,0.993,0.004,-0.006,0.004,0.000,0.000,0.000,0.000,0.000,0,3,0,3,7,255,1200,250,0,0,-89.724,0.563,-31.497
EX0521-092111,12,C10,prep,1381,1381,0,687344.092,0.683,-0.678,0.195,0.189,0,0,0,0,0,0,0,0,0,0.000,0,0,0.123,0.004,0.100,-0.060,-0.040,0.012,0.992,0.006,0.000,0.004,0.000,0.000,0.000,0.000,0.000,0,3,0,3,7,255,1200,250,0,0,-89.724,0.563,-31.497
EX0521-092111,12,C10,prep,1381,1381,0,687349.091,0.683,-0.678,0.195,0.189,0,0,0,0,0,0,0,0,0,0.000,0,0,0.057,0.006,0.040,0.000,-0.040,0.011,0.994,0.005,0.000,0.006,0.000,0.000,0.000,0.000,0.000,0,3,0,3,7,255,1200,250,0,0,-89.724,0.563,-31.497
EX0521-092111,12,C10,prep,1381,1381,0,687354.092,0.683,-0.678,0.195,0.189,0,0,0,0,0,0,0,0,0,0.000,0,0,1.370,0.010,-1.240,-0.060,0.580,0.012,0.997,0.004,0.000,0.010,0.008,0.000,0.000,0.000,0.000,0,3,0,3,7,255,1200,250,0,0,-89.718,0.565,-31.497
EX0521-092111,12,C10,prep,1402,1402,0,687359.095,0.683,-0.678,0.195,0.189,0,0,0,0,0,0,0,0,0,0.000,0,0,0.409,0.010,-0.380,-0.060,0.140,0.013,0.988,0.007,-0.002,0.010,0.008,0.000,0.000,0.000,0.000,0,3,0,3,7,255,1200,250,0,0,-89.718,0.565,-31.497
EX0521-092111,12,C10,prep,1402,1402,0,687364.091,0.683,-0.678,0.195,0.189,0,0,0,0,0,0,0,0,0,0.000,0,0,0.478,0.012,0.420,-0.060,-0.220,0.013,0.993,0.006,0.002,-0.012,0.004,0.000,0.000,0.000,0.000,0,3,0,3,7,255,1200,250,0,0,-89.718,0.565,-31.497
EX0521-092111,12,C10,prep,1403,1403,0,687369.092,0.683,-0.678,0.195,0.189,0,0,0,0,0,0,0,0,0,0.000,0,0,0.531,0.012,0.480,-0.060,-0.220,0.013,0.994,0.003,0.002,-0.012,0.004,0.000,0.000,0.000,0.000,0,3,0,3,7,255,1200,250,0,0,-89.718,0.565,-31.497
EX0521-092111,12,C10,prep,1403,1403,0,687374.092,0.683,-0.678,0.195,0.189,0,0,0,0,0,0,0,0,0,0.000,0,0,0.066,0.008,-0.020,-0.060,0.020,0.011,0.993,0.005,0.002,0.008,0.004,0.000,0.000,0.000,0.000,0,3,0,3,7,255,1200,250,0,0,-89.718,0.565,-31.497
EX0521-092111,12,C10,prep,1413,1413,0,687379.092,0.683,-0.678,0.195,0.189,0,0,0,0,0,0,0,0,0,0.000,0,0,0.154,0.008,-0.140,-0.060,0.020,0.011,0.993,0.006,-0.002,0.008,0.004,0.000,0.000,0.000,0.000,0,3,0,3,7,255,1200,250,0,0,-89.718,0.565,-31.497
EX0521-092111,12,C10,prep,1413,1413,0,687384.091,0.683,-0.678,0.195,0.189,0,0,0,0,0,0,0,0,0,0.000,0,0,0.066,0.003,-0.020,-0.060,0.020,0.012,0.992,0.006,-0.002,0.002,-0.002,0.000,0.000,0.000,0.000,0,3,0,3,7,255,1200,250,0,0,-89.718,0.565,-31.497
EX0521-092111,12,C10,prep,1434,1434,0,687389.091,0.683,-0.678,0.195,0.189,0,0,0,0,0,0,0,0,0,0.000,0,0,0.123,0.002,0.040,-0.060,-0.100,0.012,0.992,0.005,0.000,0.002,-0.010,0.000,0.000,0.000,0.000,0,3,0,3,7,255,1200,250,0,0,-89.718,0.565,-31.497
EX0521-092111,12,C10,prep,1434,1434,0,687394.092,0.683,-0.678,0.195,0.189,0,0,0,0,0,0,0,0,0,0.000,0,0,0.175,0.004,0.160,-0.060,-0.040,0.012,0.992,0.005,0.004,0.000,-0.010,0.000,0.000,0.000,0.000,0,3,0,3,7,255,1200,250,0,0,-89.718,0.565,-31.497
EX0521-092111,12,C10,prep,1434,1434,0,687399.092,0.683,-0.678,0.195,0.189,0,0,0,0,0,0,0,0,0,0.000,0,0,0.123,0.006,0.100,-0.060,-0.040,0.011,0.991,0.005,0.004,0.004,-0.010,0.000,0.000,0.000,0.000,0,3,0,3,7,255,1200,250,0,0,-89.719,0.565,-31.497
EX0521-092111,12,C10,prep,1434,1434,0,687404.091,0.683,-0.678,0.195,0.189,0,0,0,0,0,0,0,0,0,0.000,0,0,0.143,0.004,0.100,0.020,-0.100,0.013,0.992,0.005,0.004,0.000,-0.010,0.000,0.000,0.000,0.000,0,3,0,3,7,255,1200,250,0,0,-89.719,0.565,-31.497
EX0521-092111,12,C10,prep,1445,1445,0,687409.092,0.683,-0.678,0.195,0.189,0,0,0,0,0,0,0,0,0,0.000,0,0,0.133,0.008,0.040,-0.120,-0.040,0.011,0.993,0.005,-0.002,0.008,-0.010,0.000,0.000,0.000,0.000,0,3,0,3,7,255,1200,250,0,0,-89.719,0.565,-31.497
EX0521-092111,12,C10,prep,1445,1445,0,687414.092,0.683,-0.678,0.195,0.189,0,0,0,0,0,0,0,0,0,0.000,0,0,0.102,0.002,-0.080,-0.060,0.020,0.012,0.993,0.005,0.002,0.000,0.000,0.000,0.000,0.000,0.000,0,3,0,3,7,255,1200,250,0,0,-89.719,0.565,-31.497
EX0521-092111,12,C10,prep,1445,1445,0,687419.091,0.683,-0.678,0.195,0.189,0,0,0,0,0,0,0,0,0,0.000,0,0,0.082,0.006,0.040,-0.060,-0.040,0.012,0.995,0.005,0.002,0.006,0.004,0.000,0.000,0.000,0.000,0,3,0,3,7,255,1200,250,0,0,-89.719,0.565,-31.497
EX0521-092111,12,C10,prep,1445,1445,0,687424.091,0.683,-0.678,0.195,0.189,0,0,0,0,0,0,0,0,0,0.000,0,0,0.133,0.006,0.040,-0.120,-0.040,0.012,0.993,0.004,0.002,0.006,0.004,0.000,0.000,0.000,0.000,0,3,0,3,7,255,1200,250,0,0,-89.719,0.565,-31.497
EX0521-092111,12,C10,prep,1477,1477,0,687429.092,0.683,-0.678,0.195,0.189,0,0,0,0,0,0,0,0,0,0.000,0,0,0.075,0.006,-0.020,-0.060,-0.040,0.012,0.993,0.005,0.002,0.006,0.004,0.000,0.000,0.000,0.000,0,3,0,3,7,255,1200,250,0,0,-89.719,0.565,-31.497
EX0521-092111,12,C10,prep,1477,1477,0,687434.092,0.683,-0.678,0.195,0.189,0,0,0,0,0,0,0,0,0,0.000,0,0,0.066,0.008,-0.020,-0.060,0.020,0.011,0.993,0.004,-0.002,0.008,0.004,0.000,0.000,0.000,0.000,0,3,0,3,7,255,1200,250,0,0,-89.719,0.565,-31.497
EX0521-092111,12,C10,prep,1477,1477,0,687439.093,0.683,-0.678,0.195,0.189,0,0,0,0,0,0,0,0,0,0.000,0,0,0.082,0.008,0.040,-0.060,-0.040,0.013,0.993,0.004,-0.002,0.008,0.004,0.000,0.000,0.000,0.000,0,3,0,3,7,255,1200,250,0,0,-89.719,0.565,-31.497
EX0521-092111,12,C10,prep,1477,1477,0,687444.091,0.683,-0.678,0.195,0.189,0,0,0,0,0,0,0,0,0,0.000,0,0,0.045,0.008,-0.020,0.000,-0.040,0.012,0.992,0.005,0.002,0.008,0.000,0.000,0.000,0.000,0.000,0,3,0,3,7,255,1200,250,0,0,-89.719,0.565,-31.497
EX0521-092111,12,C10,prep,1477,1477,0,687449.092,0.683,-0.678,0.195,0.189,0,0,0,0,0,0,0,0,0,0.000,0,0,0.066,0.008,-0.020,-0.060,0.020,0.011,0.994,0.004,0.002,0.008,0.000,0.000,0.000,0.000,0.000,0,3,0,3,7,255,1200,250,0,0,-89.719,0.565,-31.497
EX0521-092111,12,C10,prep,1477,1477,0,687454.092,0.683,-0.678,0.195,0.189,0,0,0,0,0,0,0,0,0,0.000,0,0,0.066,0.012,-0.020,-0.060,0.020,0.012,0.992,0.004,0.002,0.012,-0.006,0.000,0.000,0.000,0.000,0,3,0,3,7,255,1200,250,0,0,-89.719,0.565,-31.497
EX0521-092111,12,C10,prep,1504,1504,0,687459.091,0.683,-0.678,0.195,0.189,0,0,0,0,0,0,0,0,0,0.000,0,0,0.133,0.013,0.040,-0.120,-0.040,0.012,0.993,0.004,0.004,0.012,0.004,0.000,0.000,0.000,0.000,0,3,0,3,7,255,1200,250,0,0,-89.719,0.565,-31.497
EX0521-092111,12,C10,prep,1504,1504,0,687464.092,0.683,-0.678,0.195,0.189,0,0,0,0,0,0,0,0,0,0.000,0,0,0.118,0.009,-0.020,-0.060,-0.100,0.011,0.993,0.005,0.004,0.008,0.004,0.000,0.000,0.000,0.000,0,3,0,3,7,255,1200,250,0,0,-89.720,0.565,-31.497
EX0521-092111,12,C10,prep,1505,1505,0,687469.092,0.683,-0.678,0.195,0.189,0,0,0,0,0,0,0,0,0,0.000,0,0,0.075,0.009,-0.020,-0.060,-0.040,0.012,0.993,0.005,0.004,0.008,0.004,0.000,0.000,0.000,0.000,0,3,0,3,7,255,1200,250,0,0,-89.720,0.565,-31.497
EX0521-092111,12,C10,prep,1505,1505,0,687474.091,0.683,-0.678,0.195,0.189,0,0,0,0,0,0,0,0,0,0.000,0,0,0.082,0.004,0.040,-0.060,-0.040,0.011,0.994,0.006,-0.004,0.002,0.004,0.000,0.000,0.000,0.000,0,3,0,3,7,255,1200,250,0,0,-89.720,0.565,-31.497
EX0521-092111,12,C10,prep,1506,1506,0,687479.092,0.683,-0.678,0.195,0.189,0,0,0,0,0,0,0,0,0,0.000,0,0,0.082,0.004,0.040,-0.060,-0.040,0.012,0.993,0.006,-0.004,0.000,0.004,0.000,0.000,0.000,0.000,0,3,0,3,7,255,1200,250,0,0,-89.720,0.565,-31.497
EX0521-092111,12,C10,prep,1506,1506,0,687484.092,0.683,-0.678,0.195,0.189,0,0,0,0,0,0,0,0,0,0.000,0,0,0.082,0.008,0.040,-0.060,-0.040,0.011,0.991,0.005,-0.008,0.000,0.004,0.000,0.000,0.000,0.000,0,3,0,3,7,255,1200,250,0,0,-89.720,0.565,-31.497
EX0521-092111,12,C10,prep,1538,1538,0,687489.092,0.683,-0.678,0.195,0.189,0,0,0,0,0,0,0,0,0,0.000,0,0,0.082,0.004,0.040,-0.060,-0.040,0.012,0.994,0.005,-0.004,0.002,0.004,0.000,0.000,0.000,0.000,0,3,0,3,7,255,1200,250,0,0,-89.720,0.565,-31.497
EX0521-092111,12,C10,prep,1538,1538,0,687494.091,0.683,-0.678,0.195,0.189,0,0,0,0,0,0,0,0,0,0.000,0,0,0.123,0.004,0.100,-0.060,-0.040,0.012,0.993,0.005,0.002,0.004,-0.002,0.000,0.000,0.000,0.000,0,3,0,3,7,255,1200,250,0,0,-89.720,0.565,-31.497
EX0521-092111,12,C10,prep,1538,1538,0,687499.092,0.683,-0.678,0.195,0.189,0,0,0,0,0,0,0,0,0,0.000,0,0,0.108,0.007,-0.080,-0.060,-0.040,0.012,0.992,0.004,0.006,0.004,-0.002,0.000,0.000,0.000,0.000,0,3,0,3,7,255,1200,250,0,0,-89.720,0.565,-31.497
EX0521-092111,12,C10,prep,1538,1538,0,687504.092,0.683,-0.678,0.195,0.189,0,0,0,0,0,0,0,0,0,0.000,0,0,0.128,0.007,-0.020,-0.120,-0.040,0.012,0.992,0.005,0.006,0.004,-0.006,0.000,0.000,0.000,0.000,0,3,0,3,7,255,1200,250,0,0,-89.720,0.565,-31.497
EX0521-092111,12,C10,prep,1538,1538,0,687509.091,0.683,-0.678,0.195,0.189,0,0,0,0,0,0,0,0,0,0.000,0,0,0.075,0.011,-0.020,-0.060,-0.040,0.013,0.993,0.004,0.010,0.004,-0.006,0.000,0.000,0.000,0.000,0,3,0,3,7,255,1200,250,0,0,-89.720,0.565,-31.497
EX0521-092111,12,C10,prep,1538,1538,0,687514.091,0.683,-0.678,0.195,0.189,0,0,0,0,0,0,0,0,0,0.000,0,0,0.082,0.007,0.040,-0.060,-0.040,0.012,0.993,0.004,0.006,0.004,0.000,0.000,0.000,0.000,0.000,0,3,0,3,7,255,1200,250,0,0,-89.720,0.565,-31.497
EX0521-092111,12,C10,prep,1571,1571,0,687519.092,0.683,-0.678,0.195,0.189,0,0,0,0,0,0,0,0,0,0.000,0,0,0.161,0.006,0.040,-0.120,-0.100,0.012,0.994,0.005,0.004,0.004,0.004,0.000,0.000,0.000,0.000,0,3,0,3,7,255,1200,250,0,0,-89.720,0.565,-31.497
EX0521-092111,12,C10,prep,1571,1571,0,687524.092,0.683,-0.678,0.195,0.189,0,0,0,0,0,0,0,0,0,0.000,0,0,0.224,0.004,0.100,-0.120,-0.160,0.011,0.993,0.005,0.000,0.004,0.004,0.000,0.000,0.000,0.000,0,3,0,3,7,255,1200,250,0,0,-89.720,0.565,-31.497
EX0521-092111,12,C10,prep,1574,1574,0,687529.091,0.683,-0.678,0.195,0.189,0,0,0,0,0,0,0,0,0,0.000,0,0,0.154,0.004,0.100,-0.060,-0.100,0.012,0.994,0.005,0.000,0.004,0.008,0.000,0.000,0.000,0.000,0,3,0,3,7,255,1200,250,0,0,-89.721,0.565,-31.497
EX0521-092111,12,C10,prep,1574,1574,0,687534.091,0.683,-0.678,0.195,0.189,0,0,0,0,0,0,0,0,0,0.000,0,0,0.123,0.004,0.100,-0.060,-0.040,0.012,0.993,0.005,0.000,0.004,0.004,0.000,0.000,0.000,0.000,0,3,0,3,7,255,1200,250,0,0,-89.721,0.565,-31.497
EX0521-092111,12,C10,prep,1574,1574,0,687539.093,0.683,-0.678,0.195,0.189,0,0,0,0,0,0,0,0,0,0.000,0,0,0.224,0.004,0.160,-0.120,-0.100,0.012,0.993,0.004,0.000,0.004,-0.002,0.000,0.000,0.000,0.000,0,3,0,3,7,255,1200,250,0,0,-89.721,0.565,-31.497
EX0521-092111,12,C10,prep,1574,1574,0,687544.092,0.683,-0.678,0.195,0.189,0,0,0,0,0,0,0,0,0,0.000,0,0,0.224,0.006,0.160,-0.120,-0.100,0.012,0.993,0.005,0.004,0.004,-0.002,0.000,0.000,0.000,0.000,0,3,0,3,7,255,1200,250,0,0,-89.721,0.565,-31.497
EX0521-092111,12,C10,prep,1575,1575,0,687549.091,0.683,-0.678,0.195,0.189,0,0,0,0,0,0,0,0,0,0.000,0,0,0.249,0.004,0.220,-0.060,-0.100,0.012,0.994,0.005,0.004,0.002,0.004,0.000,0.000,0.000,0.000,0,3,0,3,7,255,1200,250,0,0,-89.721,0.565,-31.497
EX0521-092111,12,C10,prep,1575,1575,0,687554.092,0.683,-0.678,0.195,0.189,0,0,0,0,0,0,0,0,0,0.000,0,0,0.328,0.003,0.280,-0.060,-0.160,0.012,0.993,0.005,0.002,-0.002,0.004,0.000,0.000,0.000,0.000,0,3,0,3,7,255,1200,250,0,0,-89.721,0.565,-31.497
EX0521-092111,12,C10,prep,1605,1605,0,687559.095,0.683,-0.678,0.195,0.189,0,0,0,0,0,0,0,0,0,0.000,0,0,0.270,0.003,0.220,-0.120,-0.100,0.012,0.994,0.004,0.002,-0.002,0.008,0.000,0.000,0.000,0.000,0,3,0,3,7,255,1200,250,0,0,-89.721,0.565,-31.497
EX0521-092111,12,C10,prep,1605,1605,0,687564.091,0.683,-0.678,0.195,0.189,0,0,0,0,0,0,0,0,0,0.000,0,0,0.297,0.007,0.220,-0.120,-0.160,0.013,0.992,0.004,0.004,0.006,-0.002,0.000,0.000,0.000,0.000,0,3,0,3,7,255,1200,250,0,0,-89.721,0.565,-31.497
EX0521-092111,12,C10,prep,1605,1605,0,687569.091,0.683,-0.678,0.195,0.189,0,0,0,0,0,0,0,0,0,0.000,0,0,0.270,0.010,0.220,-0.120,-0.100,0.013,0.993,0.005,0.008,0.006,-0.002,0.000,0.000,0.000,0.000,0,3,0,3,7,255,1200,250,0,0,-89.721,0.565,-31.497
EX0521-092111,12,C10,prep,1605,1605,0,687574.092,0.683,-0.678,0.195,0.189,0,0,0,0,0,0,0,0,0,0.000,0,0,0.198,0.008,0.160,-0.060,-0.100,0.012,0.994,0.005,0.008,0.002,-0.002,0.000,0.000,0.000,0.000,0,3,0,3,7,255,1200,250,0,0,-89.721,0.565,-31.497
EX0521-092111,12,C10,prep,1605,1605,0,687579.092,0.683,-0.678,0.195,0.189,0,0,0,0,0,0,0,0,0,0.000,0,0,0.270,0.004,0.220,-0.120,-0.100,0.012,0.994,0.005,0.004,-0.002,0.008,0.000,0.000,0.000,0.000,0,3,0,3,7,255,1200,250,0,0,-89.721,0.565,-31.497
EX0521-092111,12,C10,prep,1605,1605,0,687584.091,0.683,-0.678,0.195,0.189,0,0,0,0,0,0,0,0,0,0.000,0,0,0.249,0.003,0.220,-0.060,-0.100,0.011,0.994,0.005,0.002,0.002,0.008,0.000,0.000,0.000,0.000,0,3,0,3,7,255,1200,250,0,0,-89.721,0.565,-31.497
EX0521-092111,12,C10,prep,1636,1636,0,687589.092,0.683,-0.678,0.195,0.189,0,0,0,0,0,0,0,0,0,0.000,0,0,0.224,0.006,0.160,-0.120,-0.100,0.011,0.993,0.004,-0.006,0.002,0.008,0.000,0.000,0.000,0.000,0,3,0,3,7,255,1200,250,0,0,-89.721,0.565,-31.497
EX0521-092111,12,C10,prep,1636,1636,0,687594.092,0.683,-0.678,0.195,0.189,0,0,0,0,0,0,0,0,0,0.000,0,0,0.198,0.012,0.160,-0.060,-0.100,0.011,0.992,0.004,-0.006,0.010,0.004,0.000,0.000,0.000,0.000,0,3,0,3,7,255,1200,250,0,0,-89.722,0.565,-31.497
EX0521-092111,12,C10,prep,1647,1647,0,687599.092,0.683,-0.678,0.195,0.189,0,0,0,0,0,0,0,0,0,0.000,0,0,0.279,0.010,0.220,-0.060,-0.160,0.012,0.993,0.004,-0.002,0.010,-0.002,0.000,0.000,0.000,0.000,0,3,0,3,7,255,1200,250,0,0,-89.722,0.565,-31.497
EX0521-092111,12,C10,prep,1647,1647,0,687604.091,0.683,-0.678,0.195,0.189,0,0,0,0,0,0,0,0,0,0.000,0,0,0.270,0.010,0.220,-0.120,-0.100,0.011,0.993,0.004,0.002,0.010,-0.002,0.000,0.000,0.000,0.000,0,3,0,3,7,255,1200,250,0,0,-89.722,0.565,-31.497
EX0521-092111,12,C10,prep,1649,1649,0,687609.092,0.683,-0.678,0.195,0.189,0,0,0,0,0,0,0,0,0,0.000,0,0,0.303,0.008,0.280,-0.060,-0.100,0.012,0.995,0.005,0.002,0.008,-0.002,0.000,0.000,0.000,0.000,0,3,0,3,7,255,1200,250,0,0,-89.722,0.565,-31.497
EX0521-092111,12,C10,prep,1649,1649,0,687614.092,0.683,-0.678,0.195,0.189,0,0,0,0,0,0,0,0,0,0.000,0,0,0.279,0.008,0.220,-0.060,-0.160,0.011,0.993,0.005,0.000,0.008,0.004,0.000,0.000,0.000,0.000,0,3,0,3,7,255,1200,250,0,0,-89.722,0.565,-31.497
EX0521-092111,12,C10,prep,1650,1650,0,687619.091,0.683,-0.678,0.195,0.189,0,0,0,0,0,0,0,0,0,0.000,0,0,0.328,0.008,0.280,-0.060,-0.160,0.012,0.993,0.004,0.000,0.008,0.004,0.000,0.000,0.000,0.000,0,3,0,3,7,255,1200,250,0,0,-89.722,0.565,-31.497
EX0521-092111,12,C10,prep,1650,1650,0,687624.091,0.683,-0.678,0.195,0.189,0,0,0,0,0,0,0,0,0,0.000,0,0,0.321,0.008,0.280,-0.120,-0.100,0.011,0.993,0.004,0.002,0.008,-0.002,0.000,0.000,0.000,0.000,0,3,0,3,7,255,1200,250,0,0,-89.722,0.565,-31.497
EX0521-092111,12,C10,prep,1685,1685,0,687629.092,0.683,-0.678,0.195,0.189,0,0,0,0,0,0,0,0,0,0.000,0,0,0.344,0.014,0.280,-0.120,-0.160,0.011,0.994,0.004,0.002,0.014,-0.002,0.000,0.000,0.000,0.000,0,3,0,3,7,255,1200,250,0,0,-89.722,0.565,-31.497
EX0521-092111,12,C10,prep,1685,1685,0,687634.092,0.683,-0.678,0.195,0.189,0,0,0,0,0,0,0,0,0,0.000,0,0,0.321,0.014,0.280,-0.120,-0.100,0.012,0.994,0.005,0.002,0.014,0.008,0.000,0.000,0.000,0.000,0,3,0,3,7,255,1200,250,0,0,-89.722,0.565,-31.497
EX0521-092111,12,C10,prep,1685,1685,0,687639.093,0.683,-0.678,0.195,0.189,0,0,0,0,0,0,0,0,0,0.000,0,0,0.256,0.002,0.160,-0.120,-0.160,0.012,0.994,0.005,0.000,0.002,0.008,0.000,0.000,0.000,0.000,0,3,0,3,7,255,1200,250,0,0,-89.722,0.565,-31.497
EX0521-092111,12,C10,prep,1685,1685,0,687644.092,0.683,-0.678,0.195,0.189,0,0,0,0,0,0,0,0,0,0.000,0,0,0.232,0.002,0.220,-0.060,-0.040,0.011,0.993,0.004,0.000,0.002,0.008,0.000,0.000,0.000,0.000,0,3,0,3,7,255,1200,250,0,0,-89.722,0.565,-31.497
EX0521-092111,12,C10,prep,1685,1685,0,687649.092,0.683,-0.678,0.195,0.189,0,0,0,0,0,0,0,0,0,0.000,0,0,0.198,0.008,0.160,-0.060,-0.100,0.011,0.993,0.004,-0.002,0.008,0.002,0.000,0.000,0.000,0.000,0,3,0,3,7,255,1200,250,0,0,-89.722,0.565,-31.497
EX0521-092111,12,C10,prep,1685,1685,0,687654.091,0.683,-0.678,0.195,0.189,0,0,0,0,0,0,0,0,0,0.000,0,0,0.123,0.016,0.100,-0.060,-0.040,0.011,0.993,0.004,-0.002,0.016,0.002,0.000,0.000,0.000,0.000,0,3,0,3,7,255,1200,250,0,0,-89.722,0.565,-31.497
EX0521-092111,12,C10,prep,1701,1701,0,687659.091,0.683,-0.678,0.195,0.189,0,0,0,0,0,0,0,0,0,0.000,0,0,0.123,0.008,0.100,-0.060,-0.040,0.012,0.993,0.004,-0.002,0.008,0.002,0.000,0.000,0.000,0.000,0,3,0,3,7,255,1200,250,0,0,-89.723,0.565,-31.497
EX0521-092111,12,C10,prep,1701,1701,0,687664.092,0.683,-0.678,0.195,0.189,0,0,0,0,0,0,0,0,0,0.000,0,0,0.154,0.008,0.100,-0.060,-0.100,0.011,0.993,0.004,-0.002,0.008,0.002,0.000,0.000,0.000,0.000,0,3,0,3,7,255,1200,250,0,0,-89.723,0.565,-31.497
EX0521-092111,12,C10,prep,1701,1701,0,687669.092,0.683,-0.678,0.195,0.189,0,0,0,0,0,0,0,0,0,0.000,0,0,0.110,0.006,0.100,0.020,-0.040,0.011,0.992,0.005,-0.002,0.006,0.002,0.000,0.000,0.000,0.000,0,3,0,3,7,255,1200,250,0,0,-89.723,0.565,-31.497
EX0521-092111,12,C10,prep,1701,1701,0,687674.091,0.683,-0.678,0.195,0.189,0,0,0,0,0,0,0,0,0,0.000,0,0,0.198,0.006,0.160,-0.060,-0.100,0.011,0.992,0.005,-0.004,0.004,-0.006,0.000,0.000,0.000,0.000,0,3,0,3,7,255,1200,250,0,0,-89.723,0.565,-31.497
EX0521-092111,12,C10,prep,1717,1717,0,687679.092,0.683,-0.678,0.195,0.189,0,0,0,0,0,0,0,0,0,0.000,0,0,0.273,0.007,0.220,0.020,-0.160,0.011,0.993,0.004,-0.006,0.004,-0.006,0.000,0.000,0.000,0.000,0,3,0,3,7,255,1200,250,0,0,-89.723,0.565,-31.497
EX0521-092111,12,C10,prep,1717,1717,0,687684.092,0.683,-0.678,0.195,0.189,0,0,0,0,0,0,0,0,0,0.000,0,0,0.198,0.006,0.160,-0.060,-0.100,0.012,0.993,0.006,-0.006,0.002,-0.002,0.000,0.000,0.000,0.000,0,3,0,3,7,255,1200,250,0,0,-89.723,0.565,-31.497
EX0521-092111,12,C10,prep,1717,1717,0,687689.092,0.683,-0.678,0.195,0.189,0,0,0,0,0,0,0,0,0,0.000,0,0,0.234,0.006,0.160,-0.060,-0.160,0.012,0.994,0.004,-0.004,0.004,-0.002,0.000,0.000,0.000,0.000,0,3,0,3,7,255,1200,250,0,0,-89.723,0.565,-31.497
EX0521-092111,12,C10,prep,1717,1717,0,687694.091,0.683,-0.678,0.195,0.189,0,0,0,0,0,0,0,0,0,0.000,0,0,0.154,0.007,0.100,-0.060,-0.100,0.012,0.994,0.004,0.006,0.004,0.012,0.000,0.000,0.000,0.000,0,3,0,3,7,255,1200,250,0,0,-89.723,0.565,-31.497
EX0521-092111,12,C10,prep,1736,1736,0,687699.092,0.683,-0.678,0.195,0.189,0,0,0,0,0,0,0,0,0,0.000,0,0,0.123,0.010,0.100,-0.060,-0.040,0.011,0.993,0.004,0.006,0.008,0.012,0.000,0.000,0.000,0.000,0,3,0,3,7,255,1200,250,0,0,-89.723,0.565,-31.497
EX0521-092111,12,C10,prep,1736,1736,0,687704.092,0.683,-0.678,0.195,0.189,0,0,0,0,0,0,0,0,0,0.000,0,0,0.082,0.013,0.040,-0.060,-0.040,0.012,0.992,0.003,0.010,0.008,-0.002,0.000,0.000,0.000,0.000,0,3,0,3,7,255,1200,250,0,0,-89.723,0.565,-31.497
EX0521-092111,12,C10,prep,1749,1749,0,687709.091,0.683,-0.678,0.195,0.189,0,0,0,0,0,0,0,0,0,0.000,0,0,0.123,0.008,0.100,-0.060,-0.040,0.012,0.992,0.005,0.002,0.008,-0.006,0.000,0.000,0.000,0.000,0,3,0,3,7,255,1200,250,0,0,-89.723,0.565,-31.497
EX0521-092111,12,C10,prep,1749,1749,0,687714.091,0.683,-0.678,0.195,0.189,0,0,0,0,0,0,0,0,0,0.000,0,0,0.154,0.012,0.100,-0.060,-0.100,0.010,0.994,0.004,0.002,0.012,-0.006,0.000,0.000,0.000,0.000,0,3,0,3,7,255,1200,250,0,0,-89.723,0.565,-31.497
EX0521-092111,12,C10,prep,1749,1749,0,687719.092,0.683,-0.678,0.195,0.189,0,0,0,0,0,0,0,0,0,0.000,0,0,0.123,0.007,0.100,-0.060,-0.040,0.012,0.993,0.006,-0.004,-0.006,0.002,0.000,0.000,0.000,0.000,0,3,0,3,7,255,1200,250,0,0,-89.723,0.565,-31.497
EX0521-092111,12,C10,prep,1749,1749,0,687724.092,0.683,-0.678,0.195,0.189,0,0,0,0,0,0,0,0,0,0.000,0,0,0.123,0.013,0.100,-0.060,-0.040,0.011,0.993,0.003,-0.004,0.012,0.002,0.000,0.000,0.000,0.000,0,3,0,3,7,255,1200,250,0,0,-89.724,0.565,-31.497
EX0521-092111,12,C10,prep,1781,1781,0,687729.091,0.683,-0.678,0.195,0.189,0,0,0,0,0,0,0,0,0,0.000,0,0,0.082,0.004,0.040,-0.060,-0.040,0.012,0.993,0.004,0.004,0.002,0.002,0.000,0.000,0.000,0.000,0,3,0,3,7,255,1200,250,0,0,-89.724,0.565,-31.497
EX0521-092111,12,C10,prep,1781,1781,0,687734.092,0.683,-0.678,0.195,0.189,0,0,0,0,0,0,0,0,0,0.000,0,0,0.118,0.007,0.100,-0.060,0.020,0.011,0.993,0.005,0.004,0.006,0.002,0.000,0.000,0.000,0.000,0,3,0,3,7,255,1200,250,0,0,-89.724,0.565,-31.497
EX0521-092111,12,C10,prep,1781,1781,0,687739.093,0.683,-0.678,0.195,0.189,0,0,0,0,0,0,0,0,0,0.000,0,0,0.133,0.007,0.040,-0.120,-0.040,0.011,0.993,0.003,0.004,0.006,0.002,0.000,0.000,0.000,0.000,0,3,0,3,7,255,1200,250,0,0,-89.724,0.565,-31.497
EX0521-092111,12,C10,prep,1781,1781,0,687744.091,0.683,-0.678,0.195,0.189,0,0,0,0,0,0,0,0,0,0.000,0,0,0.123,0.017,0.100,-0.060,-0.040,0.010,0.994,0.004,-0.006,0.016,0.002,0.000,0.000,0.000,0.000,0,3,0,3,7,255,1200,250,0,0,-89.724,0.565,-31.497
EX0521-092111,12,C10,prep,1781,1781,0,687749.091,0.683,-0.678,0.195,0.189,0,0,0,0,0,0,0,0,0,0.000,0,0,0.133,0.017,0.040,-0.120,-0.040,0.010,0.993,0.005,-0.006,0.016,0.002,0.000,0.000,0.000,0.000,0,3,0,3,7,255,1200,250,0,0,-89.724,0.565,-31.497
EX0521-092111,12,C10,prep,1781,1781,0,687754.092,0.683,-0.678,0.195,0.189,0,0,0,0,0,0,0,0,0,0.000,0,0,0.082,0.013,0.040,-0.060,-0.040,0.011,0.994,0.004,-0.006,0.012,0.008,0.000,0.000,0.000,0.000,0,3,0,3,7,255,1200,250,0,0,-89.724,0.565,-31.497
EX0521-092111,12,C10,prep,1803,1803,0,687759.095,0.683,-0.678,0.195,0.189,0,0,0,0,0,0,0,0,0,0.000,0,0,0.123,0.010,0.040,-0.060,-0.100,0.012,0.993,0.003,0.002,0.010,0.002,0.000,0.000,0.000,0.000,0,3,0,3,7,255,1200,250,0,0,-89.724,0.565,-31.497
EX0521-092111,12,C10,prep,1803,1803,0,687764.091,0.683,-0.678,0.195,0.189,0,0,0,0,0,0,0,0,0,0.000,0,0,0.123,0.010,0.040,-0.060,-0.100,0.012,0.992,0.004,0.002,0.010,0.002,0.000,0.000,0.000,0.000,0,3,0,3,7,255,1200,250,0,0,-89.724,0.565,-31.497
EX0521-092111,12,C10,prep,1804,1804,0,687769.091,0.683,-0.678,0.195,0.189,0,0,0,0,0,0,0,0,0,0.000,0,0,0.154,0.010,0.100,-0.060,-0.100,0.011,0.994,0.004,0.002,0.010,0.002,0.000,0.000,0.000,0.000,0,3,0,3,7,255,1200,250,0,0,-89.724,0.565,-31.497
EX0521-092111,12,C10,prep,1804,1804,0,687774.092,0.683,-0.678,0.195,0.189,0,0,0,0,0,0,0,0,0,0.000,0,0,0.185,0.006,0.100,-0.120,-0.100,0.012,0.993,0.004,0.002,0.006,0.002,0.000,0.000,0.000,0.000,0,3,0,3,7,255,1200,250,0,0,-89.724,0.565,-31.497
EX0521-092111,12,C10,prep,1805,1805,0,687779.092,0.683,-0.678,0.195,0.189,0,0,0,0,0,0,0,0,0,0.000,0,0,0.224,0.010,0.160,-0.120,-0.100,0.011,0.994,0.004,-0.002,0.010,0.008,0.000,0.000,0.000,0.000,0,3,0,3,7,255,1200,250,0,0,-89.724,0.565,-31.497
EX0521-092111,12,C10,prep,1805,1805,0,687784.091,0.683,-0.678,0.195,0.189,0,0,0,0,0,0,0,0,0,0.000,0,0,0.141,0.012,0.100,0.000,-0.100,0.012,0.993,0.004,0.010,0.006,0.002,0.000,0.000,0.000,0.000,0,3,0,3,7,255,1200,250,0,0,-89.725,0.565,-31.497
EX0521-092111,12,C10,prep,1813,1813,0,687789.092,0.683,-0.678,0.195,0.189,0,0,0,0,0,0,0,0,0,0.000,0,0,0.123,0.014,0.100,-0.060,-0.040,0.010,0.993,0.003,-0.002,0.014,0.002,0.000,0.000,0.000,0.000,0,3,0,3,7,255,1200,250,0,0,-89.725,0.565,-31.497
EX0521-092111,12,C10,prep,1813,1813,0,687794.092,0.683,-0.678,0.195,0.189,0,0,0,0,0,0,0,0,0,0.000,0,0,0.154,0.006,0.100,-0.060,-0.100,0.012,0.993,0.004,0.002,0.006,0.002,0.000,0.000,0.000,0.000,0,3,0,3,7,255,1200,250,0,0,-89.725,0.565,-31.497
EX0521-092111,12,C10,prep,1845,1845,0,687799.091,0.683,-0.678,0.195,0.189,0,0,0,0,0,0,0,0,0,0.000,0,0,0.108,0.006,0.100,0.000,-0.040,0.011,0.994,0.005,-0.004,0.004,0.002,0.000,0.000,0.000,0.000,0,3,0,3,7,255,1200,250,0,0,-89.725,0.565,-31.497
EX0521-092111,12,C10,prep,1845,1845,0,687804.091,0.683,-0.678,0.195,0.189,0,0,0,0,0,0,0,0,0,0.000,0,0,0.108,0.004,0.100,0.000,-0.040,0.011,0.993,0.004,-0.002,0.004,0.002,0.000,0.000,0.000,0.000,0,3,0,3,7,255,1200,250,0,0,-89.725,0.565,-31.497
EX0521-092111,12,C10,prep,1845,1845,0,687809.092,0.683,-0.678,0.195,0.189,0,0,0,0,0,0,0,0,0,0.000,0,0,0.082,0.006,0.040,-0.060,-0.040,0.011,0.993,0.004,-0.002,0.006,0.002,0.000,0.000,0.000,0.000,0,3,0,3,7,255,1200,250,0,0,-89.725,0.565,-31.497
EX0521-092111,12,C10,prep,1845,1845,0,687814.092,0.683,-0.678,0.195,0.189,0,0,0,0,0,0,0,0,0,0.000,0,0,0.128,0.012,0.040,-0.120,0.020,0.011,0.992,0.003,-0.002,0.012,-0.002,0.000,0.000,0.000,0.000,0,3,0,3,7,255,1200,250,0,0,-89.725,0.565,-31.497
EX0521-092111,12,C10,prep,1845,1845,0,687819.091,0.683,-0.678,0.195,0.189,0,0,0,0,0,0,0,0,0,0.000,0,0,0.082,0.013,0.040,-0.060,-0.040,0.012,0.992,0.004,0.004,0.012,-0.008,0.000,0.000,0.000,0.000,0,3,0,3,7,255,1200,250,0,0,-89.725,0.565,-31.497
EX0521-092111,12,C10,prep,1845,1845,0,687824.092,0.683,-0.678,0.195,0.189,0,0,0,0,0,0,0,0,0,0.000,0,0,0.123,0.011,0.100,-0.060,-0.040,0.011,0.993,0.004,0.004,0.010,-0.008,0.000,0.000,0.000,0.000,0,3,0,3,7,255,1200,250,0,0,-89.725,0.565,-31.497
EX0521-092111,12,C10,prep,1877,1877,0,687829.092,0.683,-0.678,0.195,0.189,0,0,0,0,0,0,0,0,0,0.000,0,0,0.123,0.008,0.100,-0.060,-0.040,0.011,0.993,0.005,0.002,0.008,-0.002,0.000,0.000,0.000,0.000,0,3,0,3,7,255,1200,250,0,0,-89.725,0.565,-31.497
EX0521-092111,12,C10,prep,1877,1877,0,687834.092,0.683,-0.678,0.195,0.189,0,0,0,0,0,0,0,0,0,0.000,0,0,0.075,0.010,-0.020,-0.060,-0.040,0.011,0.994,0.004,0.002,0.010,-0.002,0.000,0.000,0.000,0.000,0,3,0,3,7,255,1200,250,0,0,-89.725,0.565,-31.497
EX0521-092111,12,C10,prep,1877,1877,0,687839.093,0.683,-0.678,0.195,0.189,0,0,0,0,0,0,0,0,0,0.000,0,0,0.075,0.002,-0.020,-0.060,-0.040,0.012,0.993,0.005,0.000,0.002,-0.002,0.000,0.000,0.000,0.000,0,3,0,3,7,255,1200,250,0,0,-89.725,0.565,-31.497
EX0521-092111,12,C10,prep,1877,1877,0,687844.092,0.683,-0.678,0.195,0.189,0,0,0,0,0,0,0,0,0,0.000,0,0,0.075,0.010,-0.020,-0.060,-0.040,0.011,0.992,0.004,0.002,0.010,-0.002,0.000,0.000,0.000,0.000,0,3,0,3,7,255,1200,250,0,0,-89.725,0.565,-31.497
EX0521-092111,12,C10,prep,1877,1877,0,687849.092,0.683,-0.678,0.195,0.189,0,0,0,0,0,0,0,0,0,0.000,0,0,0.108,0.010,-0.080,-0.060,-0.040,0.011,0.993,0.004,0.002,0.010,-0.002,0.000,0.000,0.000,0.000,0,3,0,3,7,255,1200,250,0,0,-89.726,0.565,-31.497
EX0521-092111,12,C10,prep,1877,1877,0,687854.091,0.683,-0.678,0.195,0.189,0,0,0,0,0,0,0,0,0,0.000,0,0,0.075,0.010,-0.020,-0.060,-0.040,0.010,0.993,0.003,0.002,0.010,0.002,0.000,0.000,0.000,0.000,0,3,0,3,7,255,1200,250,0,0,-89.726,0.565,-31.497
EX0521-092111,12,C10,prep,1904,1904,0,687859.091,0.683,-0.678,0.195,0.189,0,0,0,0,0,0,0,0,0,0.000,0,0,0.075,0.010,-0.020,-0.060,-0.040,0.012,0.993,0.004,0.002,0.010,0.002,0.000,0.000,0.000,0.000,0,3,0,3,7,255,1200,250,0,0,-89.726,0.565,-31.497
EX0521-092111,12,C10,prep,1904,1904,0,687864.092,0.683,-0.678,0.195,0.189,0,0,0,0,0,0,0,0,0,0.000,0,0,0.082,0.009,0.040,-0.060,-0.040,0.011,0.993,0.004,-0.004,0.008,0.002,0.000,0.000,0.000,0.000,0,3,0,3,7,255,1200,250,0,0,-89.726,0.565,-31.497
EX0521-092111,12,C10,prep,1905,1905,0,687869.092,0.683,-0.678,0.195,0.189,0,0,0,0,0,0,0,0,0,0.000,0,0,0.049,0.008,-0.020,0.020,-0.040,0.011,0.993,0.003,0.002,0.008,-0.002,0.000,0.000,0.000,0.000,0,3,0,3,7,255,1200,250,0,0,-89.726,0.565,-31.497
EX0521-092111,12,C10,prep,1905,1905,0,687874.091,0.683,-0.678,0.195,0.189,0,0,0,0,0,0,0,0,0,0.000,0,0,0.082,0.008,0.040,-0.060,-0.040,0.012,0.993,0.005,0.002,0.008,-0.002,0.000,0.000,0.000,0.000,0,3,0,3,7,255,1200,250,0,0,-89.726,0.565,-31.497
EX0521-092111,12,C10,prep,1906,1906,0,687879.092,0.683,-0.678,0.195,0.189,0,0,0,0,0,0,0,0,0,0.000,0,0,0.123,0.008,0.100,-0.060,-0.040,0.011,0.992,0.004,0.002,0.008,-0.002,0.000,0.000,0.000,0.000,0,3,0,3,7,255,1200,250,0,0,-89.726,0.564,-31.497
EX0521-092111,12,C10,prep,1906,1906,0,687884.092,0.683,-0.678,0.195,0.189,0,0,0,0,0,0,0,0,0,0.000,0,0,0.198,0.007,0.160,-0.060,-0.100,0.012,0.992,0.004,0.004,0.006,-0.006,0.000,0.000,0.000,0.000,0,3,0,3,7,255,1200,250,0,0,-89.726,0.564,-31.497
EX0521-092111,12,C10,prep,1936,1936,0,687889.091,0.683,-0.678,0.195,0.189,0,0,0,0,0,0,0,0,0,0.000,0,0,0.198,0.010,0.160,-0.060,-0.100,0.012,0.993,0.003,0.006,0.008,-0.006,0.000,0.000,0.000,0.000,0,3,0,3,7,255,1200,250,0,0,-89.726,0.564,-31.497
EX0521-092111,12,C10,prep,1936,1936,0,687894.091,0.683,-0.678,0.195,0.189,0,0,0,0,0,0,0,0,0,0.000,0,0,0.154,0.012,0.100,-0.060,-0.100,0.011,0.992,0.003,0.006,0.010,-0.006,0.000,0.000,0.000,0.000,0,3,0,3,7,255,1200,250,0,0,-89.726,0.564,-31.497
EX0521-092111,12,C10,prep,1936,1936,0,687899.092,0.683,-0.678,0.195,0.189,0,0,0,0,0,0,0,0,0,0.000,0,0,0.123,0.011,0.100,-0.060,-0.040,0.011,0.991,0.004,0.004,0.010,-0.006,0.000,0.000,0.000,0.000,0,3,0,3,7,255,1200,250,0,0,-89.726,0.564,-31.497
EX0521-092111,12,C10,prep,1936,1936,0,687904.092,0.683,-0.678,0.195,0.189,0,0,0,0,0,0,0,0,0,0.000,0,0,0.082,0.006,0.040,-0.060,-0.040,0.011,0.993,0.004,-0.002,0.006,-0.006,0.000,0.000,0.000,0.000,0,3,0,3,7,255,1200,250,0,0,-89.726,0.564,-31.497
EX0521-092111,12,C10,prep,1937,1937,0,687909.091,0.683,-0.678,0.195,0.189,0,0,0,0,0,0,0,0,0,0.000,0,0,0.161,0.006,0.100,-0.120,-0.040,0.011,0.994,0.004,-0.002,0.006,0.002,0.000,0.000,0.000,0.000,0,3,0,3,7,255,1200,250,0,0,-89.726,0.564,-31.497
EX0521-092111,12,C10,prep,1937,1937,0,687914.092,0.683,-0.678,0.195,0.189,0,0,0,0,0,0,0,0,0,0.000,0,0,0.133,0.008,0.040,-0.120,-0.040,0.012,0.994,0.003,0.000,0.008,0.012,0.000,0.000,0.000,0.000,0,3,0,3,7,255,1200,250,0,0,-89.727,0.564,-31.497
EX0521-092111,12,C10,prep,1965,1965,0,687919.092,0.683,-0.678,0.195,0.189,0,0,0,0,0,0,0,0,0,0.000,0,0,0.133,0.008,0.040,-0.120,-0.040,0.012,0.994,0.005,0.000,0.008,0.012,0.000,0.000,0.000,0.000,0,3,0,3,7,255,1200,250,0,0,-89.727,0.564,-31.497
EX0521-092111,12,C10,prep,1965,1965,0,687924.092,0.683,-0.678,0.195,0.189,0,0,0,0,0,0,0,0,0,0.000,0,0,0.082,0.013,0.040,-0.060,-0.040,0.012,0.992,0.003,0.008,0.010,0.008,0.000,0.000,0.000,0.000,0,3,0,3,7,255,1200,250,0,0,-89.727,0.564,-31.497
EX0521-092111,12,C10,prep,2002,2002,0,687929.091,0.683,-0.678,0.195,0.189,0,0,0,0,0,0,0,0,0,0.000,0,0,0.082,0.010,0.040,-0.060,-0.040,0.011,0.992,0.003,0.000,0.010,-0.006,0.000,0.000,0.000,0.000,0,3,0,3,7,255,1200,250,0,0,-89.727,0.564,-31.497
EX0521-092111,12,C10,prep,2002,2002,0,687934.092,0.683,-0.678,0.195,0.189,0,0,0,0,0,0,0,0,0,0.000,0,0,0.082,0.010,0.040,-0.060,-0.040,0.011,0.993,0.004,0.000,0.010,-0.006,0.000,0.000,0.000,0.000,0,3,0,3,7,255,1200,250,0,0,-89.727,0.564,-31.497
EX0521-092111,12,C10,prep,2002,2002,0,687939.094,0.683,-0.678,0.195,0.189,0,0,0,0,0,0,0,0,0,0.000,0,0,0.128,0.006,-0.020,-0.120,-0.040,0.012,0.993,0.004,0.000,0.006,-0.002,0.000,0.000,0.000,0.000,0,3,0,3,7,255,1200,250,0,0,-89.727,0.564,-31.497
EX0521-092111,12,C10,prep,2002,2002,0,687944.091,0.683,-0.678,0.195,0.189,0,0,0,0,0,0,0,0,0,0.000,0,0,0.075,0.007,-0.020,-0.060,-0.040,0.012,0.993,0.003,0.004,0.006,0.002,0.000,0.000,0.000,0.000,0,3,0,3,7,255,1200,250,0,0,-89.727,0.564,-31.497
EX0521-092111,12,C10,prep,2002,2002,0,687949.091,0.683,-0.678,0.195,0.189,0,0,0,0,0,0,0,0,0,0.000,0,0,0.133,0.010,0.040,-0.120,-0.040,0.013,0.993,0.003,0.008,0.006,0.002,0.000,0.000,0.000,0.000,0,3,0,3,7,255,1200,250,0,0,-89.727,0.564,-31.497
EX0521-092111,12,C10,prep,2002,2002,0,687954.092,0.683,-0.678,0.195,0.189,0,0,0,0,0,0,0,0,0,0.000,0,0,0.075,0.013,-0.020,-0.060,-0.040,0.011,0.992,0.003,0.008,0.010,-0.002,0.000,0.000,0.000,0.000,0,3,0,3,7,255,1200,250,0,0,-89.727,0.564,-31.497
EX0521-092111,12,C10,prep,2002,2002,0,687959.095,0.683,-0.678,0.195,0.189,0,0,0,0,0,0,0,0,0,0.000,0,0,0.082,0.004,0.040,-0.060,-0.040,0.012,0.993,0.004,0.002,0.004,-0.002,0.000,0.000,0.000,0.000,0,3,0,3,7,255,1200,250,0,0,-89.727,0.564,-31.497
EX0521-092111,12,C10,prep,2002,2002,0,687964.091,0.683,-0.678,0.195,0.189,0,0,0,0,0,0,0,0,0,0.000,0,0,0.075,0.004,-0.020,-0.060,-0.040,0.012,0.993,0.004,0.002,0.004,-0.002,0.000,0.000,0.000,0.000,0,3,0,3,7,255,1200,250,0,0,-89.727,0.564,-31.497
EX0521-092111,12,C10,prep,2003,2003,0,687969.092,0.683,-0.678,0.195,0.189,0,0,0,0,0,0,0,0,0,0.000,0,0,0.075,0.004,-0.020,-0.060,-0.040,0.011,0.993,0.004,0.002,0.004,-0.002,0.000,0.000,0.000,0.000,0,3,0,3,7,255,1200,250,0,0,-89.727,0.564,-31.497
EX0521-092111,12,C10,prep,2003,2003,0,687974.092,0.683,-0.678,0.195,0.189,0,0,0,0,0,0,0,0,0,0.000,0,0,0.118,0.006,-0.020,-0.060,-0.100,0.012,0.993,0.004,0.004,0.004,-0.002,0.000,0.000,0.000,0.000,0,3,0,3,7,255,1200,250,0,0,-89.727,0.564,-31.497
EX0521-092111,12,C10,prep,2035,2035,0,687979.092,0.683,-0.678,0.195,0.189,0,0,0,0,0,0,0,0,0,0.000,0,0,0.082,0.004,0.040,-0.060,-0.040,0.011,0.992,0.003,0.002,0.004,-0.002,0.000,0.000,0.000,0.000,0,3,0,3,7,255,1200,250,0,0,-89.728,0.564,-31.497
EX0521-092111,12,C10,prep,2035,2035,0,687984.091,0.683,-0.678,0.195,0.189,0,0,0,0,0,0,0,0,0,0.000,0,0,0.082,0.008,0.040,-0.060,-0.040,0.011,0.995,0.004,0.002,0.008,-0.002,0.000,0.000,0.000,0.000,0,3,0,3,7,255,1200,250,0,0,-89.728,0.564,-31.497
EX0521-092111,12,C10,prep,2035,2035,0,687989.092,0.683,-0.678,0.195,0.189,0,0,0,0,0,0,0,0,0,0.000,0,0,0.102,0.012,-0.020,0.000,-0.100,0.010,0.994,0.004,0.000,0.012,0.012,0.000,0.000,0.000,0.000,0,3,0,3,7,255,1200,250,0,0,-89.728,0.564,-31.497
EX0521-092111,12,C10,prep,2035,2035,0,687994.092,0.683,-0.678,0.195,0.189,0,0,0,0,0,0,0,0,0,0.000,0,0,0.075,0.014,-0.020,-0.060,-0.040,0.010,0.994,0.004,-0.008,0.012,0.012,0.000,0.000,0.000,0.000,0,3,0,3,7,255,1200,250,0,0,-89.728,0.564,-31.497
EX0521-092111,12,C10,prep,2036,2036,0,687999.091,0.683,-0.678,0.195,0.189,0,0,0,0,0,0,0,0,0,0.000,0,0,0.082,0.014,-0.080,0.000,0.020,0.012,0.993,0.004,-0.008,0.012,0.008,0.000,0.000,0.000,0.000,0,3,0,3,7,255,1200,250,0,0,-89.728,0.564,-31.497
EX0521-092111,12,C10,prep,2036,2036,0,688004.091,0.683,-0.678,0.195,0.189,0,0,0,0,0,0,0,0,0,0.000,0,0,0.089,0.008,-0.080,0.000,-0.040,0.012,0.993,0.003,0.002,0.008,0.002,0.000,0.000,0.000,0.000,0,3,0,3,7,255,1200,250,0,0,-89.728,0.564,-31.497
EX0521-092111,12,C10,prep,2037,2037,0,688009.092,0.683,-0.678,0.195,0.189,0,0,0,0,0,0,0,0,0,0.000,0,0,0.154,0.008,-0.140,-0.060,0.020,0.011,0.993,0.003,0.002,0.008,-0.002,0.000,0.000,0.000,0.000,0,3,0,3,7,255,1200,250,0,0,-89.728,0.564,-31.497
EX0521-092111,12,C10,prep,2037,2037,0,688014.092,0.683,-0.678,0.195,0.189,0,0,0,0,0,0,0,0,0,0.000,0,0,0.146,0.008,-0.080,-0.120,0.020,0.011,0.992,0.005,0.002,0.008,-0.002,0.000,0.000,0.000,0.000,0,3,0,3,7,255,1200,250,0,0,-89.728,0.564,-31.497
EX0521-092111,12,C10,prep,2071,2071,0,688019.091,0.683,-0.678,0.195,0.189,0,0,0,0,0,0,0,0,0,0.000,0,0,0.154,0.008,-0.140,-0.060,0.020,0.012,0.992,0.003,0.002,0.008,-0.012,0.000,0.000,0.000,0.000,0,3,0,3,7,255,1200,250,0,0,-89.728,0.564,-31.497
EX0521-092111,12,C10,prep,2071,2071,0,688024.092,0.683,-0.678,0.195,0.189,0,0,0,0,0,0,0,0,0,0.000,0,0,0.082,0.002,-0.080,0.000,0.020,0.012,0.994,0.004,0.002,0.000,-0.012,0.000,0.000,0.000,0.000,0,3,0,3,7,255,1200,250,0,0,-89.728,0.564,-31.497
EX0521-092111,12,C10,prep,2105,2105,0,688029.092,0.683,-0.678,0.195,0.189,0,0,0,0,0,0,0,0,0,0.000,0,0,0.154,0.006,-0.140,-0.060,0.020,0.012,0.993,0.004,0.004,0.004,0.002,0.000,0.000,0.000,0.000,0,3,0,3,7,255,1200,250,0,0,-89.728,0.564,-31.497
EX0521-092111,12,C10,prep,2105,2105,0,688034.091,0.683,-0.678,0.195,0.189,0,0,0,0,0,0,0,0,0,0.000,0,0,0.172,0.003,-0.140,-0.060,0.080,0.011,0.994,0.004,0.002,0.002,0.008,0.000,0.000,0.000,0.000,0,3,0,3,7,255,1200,250,0,0,-89.728,0.564,-31.497
EX0521-092111,12,C10,prep,2105,2105,0,688039.093,0.683,-0.678,0.195,0.189,0,0,0,0,0,0,0,0,0,0.000,0,0,0.201,0.004,-0.200,0.000,0.020,0.011,0.993,0.004,-0.002,0.004,0.002,0.000,0.000,0.000,0.000,0,3,0,3,7,255,1200,250,0,0,-89.728,0.564,-31.497
EX0521-092111,12,C10,prep,2105,2105,0,688044.092,0.683,-0.678,0.195,0.189,0,0,0,0,0,0,0,0,0,0.000,0,0,0.172,0.004,-0.140,-0.060,0.080,0.011,0.993,0.005,-0.004,0.002,0.002,0.000,0.000,0.000,0.000,0,3,0,3,7,255,1200,250,0,0,-89.729,0.564,-31.497
EX0521-092111,12,C10,prep,2105,2105,0,688049.092,0.683,-0.678,0.195,0.189,0,0,0,0,0,0,0,0,0,0.000,0,0,0.141,0.006,-0.140,0.000,0.020,0.012,0.992,0.004,-0.004,0.004,0.002,0.000,0.000,0.000,0.000,0,3,0,3,7,255,1200,250,0,0,-89.729,0.564,-31.497
EX0521-092111,12,C10,prep,2105,2105,0,688054.091,0.683,-0.678,0.195,0.189,0,0,0,0,0,0,0,0,0,0.000,0,0,0.210,0.006,-0.200,-0.060,0.020,0.010,0.993,0.004,-0.004,0.004,0.002,0.000,0.000,0.000,0.000,0,3,0,3,7,255,1200,250,0,0,-89.729,0.564,-31.497
EX0521-092111,12,C10,prep,2107,2107,0,688059.092,0.683,-0.678,0.195,0.189,0,0,0,0,0,0,0,0,0,0.000,0,0,0.210,0.009,-0.200,-0.060,0.020,0.011,0.992,0.004,-0.004,0.008,-0.006,0.000,0.000,0.000,0.000,0,3,0,3,7,255,1200,250,0,0,-89.729,0.564,-31.497
EX0521-092111,12,C10,prep,2107,2107,0,688064.093,0.683,-0.678,0.195,0.189,0,0,0,0,0,0,0,0,0,0.000,0,0,0.224,0.013,-0.200,-0.060,0.080,0.011,0.993,0.003,-0.004,0.012,-0.002,0.000,0.000,0.000,0.000,0,3,0,3,7,255,1200,250,0,0,-89.729,0.564,-31.497
EX0521-092111,12,C10,prep,2107,2107,0,688069.093,0.683,-0.678,0.195,0.189,0,0,0,0,0,0,0,0,0,0.000,0,0,0.154,0.008,-0.140,-0.060,0.020,0.011,0.993,0.004,-0.002,0.008,-0.002,0.000,0.000,0.000,0.000,0,3,0,3,7,255,1200,250,0,0,-89.729,0.564,-31.497
EX0521-092111,12,C10,prep,2107,2107,0,688074.091,0.683,-0.678,0.195,0.189,0,0,0,0,0,0,0,0,0,0.000,0,0,0.154,0.012,-0.140,-0.060,0.020,0.011,0.993,0.002,-0.002,0.012,-0.002,0.000,0.000,0.000,0.000,0,3,0,3,7,255,1200,250,0,0,-89.729,0.564,-31.497
EX0521-092111,12,C10,prep,2108,2108,0,688079.092,0.683,-0.678,0.195,0.189,0,0,0,0,0,0,0,0,0,0.000,0,0,0.154,0.003,-0.140,-0.060,0.020,0.011,0.994,0.005,-0.002,0.002,0.002,0.000,0.000,0.000,0.000,0,3,0,3,7,255,1200,250,0,0,-89.729,0.564,-31.497
EX0521-092111,12,C10,prep,2108,2108,0,688084.092,0.683,-0.678,0.195,0.189,0,0,0,0,0,0,0,0,0,0.000,0,0,0.185,0.006,-0.140,-0.120,0.020,0.011,0.993,0.004,0.000,0.006,0.002,0.000,0.000,0.000,0.000,0,3,0,3,7,255,1200,250,0,0,-89.729,0.564,-31.497
EX0521-092111,12,C10,prep,2117,2117,0,688089.091,0.683,-0.678,0.195,0.189,0,0,0,0,0,0,0,0,0,0.000,0,0,0.146,0.002,-0.080,-0.120,0.020,0.012,0.992,0.005,0.000,-0.002,0.002,0.000,0.000,0.000,0.000,0,3,0,3,7,255,1200,250,0,0,-89.729,0.564,-31.497
EX0521-092111,12,C10,prep,2117,2117,0,688094.091,0.683,-0.678,0.195,0.189,0,0,0,0,0,0,0,0,0,0.000,0,0,0.157,0.004,-0.140,-0.060,-0.040,0.012,0.993,0.004,0.000,0.004,0.002,0.000,0.000,0.000,0.000,0,3,0,3,7,255,1200,250,0,0,-89.729,0.564,-31.497
EX0521-092111,12,C10,prep,2133,2133,0,688099.092,0.683,-0.678,0.195,0.189,0,0,0,0,0,0,0,0,0,0.000,0,0,0.224,0.006,-0.200,-0.060,0.080,0.012,0.994,0.004,0.004,0.004,0.002,0.000,0.000,0.000,0.000,0,3,0,3,7,255,1200,250,0,0,-89.729,0.564,-31.497
EX0521-092111,12,C10,prep,2133,2133,0,688104.092,0.683,-0.678,0.195,0.189,0,0,0,0,0,0,0,0,0,0.000,0,0,0.393,0.006,-0.380,-0.060,0.080,0.012,0.992,0.005,0.004,0.004,0.002,0.000,0.000,0.000,0.000,0,3,0,3,7,255,1200,250,0,0,-89.729,0.564,-31.497
EX0521-092111,12,C10,prep,2149,2149,0,688109.091,0.683,-0.678,0.195,0.189,0,0,0,0,0,0,0,0,0,0.000,0,0,0.060,0.004,-0.020,-0.040,-0.040,0.011,0.994,0.004,0.000,0.004,0.008,0.000,0.000,0.000,0.000,0,3,0,3,7,255,1200,250,0,0,-89.730,0.564,-31.497
EX0521-092111,12,C10,prep,2149,2149,0,688114.092,0.683,-0.678,0.195,0.189,0,0,0,0,0,0,0,0,0,0.000,0,0,0.092,0.002,-0.080,-0.040,0.020,0.012,0.993,0.004,0.000,-0.002,0.002,0.000,0.000,0.000,0.000,0,3,0,3,7,255,1200,250,0,0,-89.730,0.564,-31.497
EX0521-092111,12,C10,prep,2149,2149,0,688119.092,0.683,-0.678,0.195,0.189,0,0,0,0,0,0,0,0,0,0.000,0,0,0.147,0.006,-0.140,-0.040,0.020,0.011,0.993,0.004,0.000,0.006,0.002,0.000,0.000,0.000,0.000,0,3,0,3,7,255,1200,250,0,0,-89.730,0.564,-31.497
EX0521-092111,12,C10,prep,2149,2149,0,688124.091,0.683,-0.678,0.195,0.189,0,0,0,0,0,0,0,0,0,0.000,0,0,0.219,0.006,-0.200,-0.040,0.080,0.011,0.994,0.004,0.000,0.006,0.002,0.000,0.000,0.000,0.000,0,3,0,3,7,255,1200,250,0,0,-89.730,0.564,-31.497
EX0521-092111,12,C10,prep,2181,2181,0,688129.091,0.683,-0.678,0.195,0.189,0,0,0,0,0,0,0,0,0,0.000,0,0,0.162,0.006,-0.140,0.020,0.080,0.012,0.994,0.004,0.000,0.006,0.012,0.000,0.000,0.000,0.000,0,3,0,3,7,255,1200,250,0,0,-89.730,0.564,-31.497
EX0521-092111,12,C10,prep,2181,2181,0,688134.092,0.683,-0.678,0.195,0.189,0,0,0,0,0,0,0,0,0,0.000,0,0,0.143,0.008,-0.140,0.020,0.020,0.012,0.994,0.003,0.002,0.008,0.012,0.000,0.000,0.000,0.000,0,3,0,3,7,255,1200,250,0,0,-89.730,0.564,-31.497
EX0521-092111,12,C10,prep,2181,2181,0,688139.093,0.683,-0.678,0.195,0.189,0,0,0,0,0,0,0,0,0,0.000,0,0,0.201,0.006,-0.140,-0.120,0.080,0.011,0.993,0.004,0.002,0.006,0.006,0.000,0.000,0.000,0.000,0,3,0,3,7,255,1200,250,0,0,-89.730,0.564,-31.497
EX0521-092111,12,C10,prep,2181,2181,0,688144.091,0.683,-0.678,0.195,0.189,0,0,0,0,0,0,0,0,0,0.000,0,0,0.085,0.008,-0.080,0.020,0.020,0.012,0.993,0.004,0.006,0.006,0.002,0.000,0.000,0.000,0.000,0,3,0,3,7,255,1200,250,0,0,-89.730,0.564,-31.497
EX0521-092111,12,C10,prep,2197,2197,0,688149.092,0.683,-0.678,0.195,0.189,0,0,0,0,0,0,0,0,0,0.000,0,0,0.092,0.002,-0.080,-0.040,0.020,0.011,0.994,0.004,0.000,0.002,0.002,0.000,0.000,0.000,0.000,0,3,0,3,7,255,1200,250,0,0,-89.730,0.564,-31.497
EX0521-092111,12,C10,prep,2197,2197,0,688154.092,0.683,-0.678,0.195,0.189,0,0,0,0,0,0,0,0,0,0.000,0,0,0.123,0.007,-0.020,-0.120,0.020,0.012,0.993,0.004,0.006,-0.004,-0.002,0.000,0.000,0.000,0.000,0,3,0,3,7,255,1200,250,0,0,-89.730,0.564,-31.497
EX0521-092111,12,C10,prep,2197,2197,0,688159.095,0.683,-0.678,0.195,0.189,0,0,0,0,0,0,0,0,0,0.000,0,0,0.102,0.003,-0.080,-0.060,0.020,0.012,0.993,0.004,0.002,-0.002,-0.002,0.000,0.000,0.000,0.000,0,3,0,3,7,255,1200,250,0,0,-89.730,0.564,-31.497
EX0521-092111,12,C10,prep,2197,2197,0,688164.091,0.683,-0.678,0.195,0.189,0,0,0,0,0,0,0,0,0,0.000,0,0,0.075,0.003,-0.020,-0.060,-0.040,0.011,0.993,0.004,0.002,-0.002,-0.002,0.000,0.000,0.000,0.000,0,3,0,3,7,255,1200,250,0,0,-89.730,0.564,-31.497
EX0521-092111,12,C10,prep,2197,2197,0,688169.092,0.683,-0.678,0.195,0.189,0,0,0,0,0,0,0,0,0,0.000,0,0,0.102,0.003,-0.080,-0.060,0.020,0.011,0.993,0.004,-0.002,0.002,-0.002,0.000,0.000,0.000,0.000,0,3,0,3,7,255,1200,250,0,0,-89.730,0.564,-31.497
EX0521-092111,12,C10,prep,2197,2197,0,688174.092,0.683,-0.678,0.195,0.189,0,0,0,0,0,0,0,0,0,0.000,0,0,0.108,0.007,-0.080,-0.060,-0.040,0.011,0.992,0.004,-0.006,0.004,-0.002,0.000,0.000,0.000,0.000,0,3,0,3,7,255,1200,250,0,0,-89.731,0.564,-31.497
EX0521-092111,12,C10,prep,2213,2213,0,688179.092,0.683,-0.678,0.195,0.189,0,0,0,0,0,0,0,0,0,0.000,0,0,0.082,0.007,-0.080,0.000,0.020,0.011,0.993,0.004,-0.006,0.004,0.002,0.000,0.000,0.000,0.000,0,3,0,3,7,255,1200,250,0,0,-89.731,0.564,-31.497
EX0521-092111,12,C10,prep,2213,2213,0,688184.091,0.683,-0.678,0.195,0.189,0,0,0,0,0,0,0,0,0,0.000,0,0,0.089,0.007,-0.080,0.000,-0.040,0.011,0.992,0.004,-0.006,0.004,-0.008,0.000,0.000,0.000,0.000,0,3,0,3,7,255,1200,250,0,0,-89.731,0.564,-31.497
EX0521-092111,12,C10,prep,2230,2230,0,688189.092,0.683,-0.678,0.195,0.189,0,0,0,0,0,0,0,0,0,0.000,0,0,0.154,0.007,-0.140,-0.060,0.020,0.011,0.993,0.003,-0.006,0.004,-0.002,0.000,0.000,0.000,0.000,0,3,0,3,7,255,1200,250,0,0,-89.731,0.564,-31.497
EX0521-092111,12,C10,prep,2230,2230,0,688194.092,0.683,-0.678,0.195,0.189,0,0,0,0,0,0,0,0,0,0.000,0,0,0.082,0.004,-0.080,0.000,0.020,0.011,0.994,0.004,0.000,0.004,-0.002,0.000,0.000,0.000,0.000,0,3,0,3,7,255,1200,250,0,0,-89.731,0.564,-31.497
EX0521-092111,12,C10,prep,2230,2230,0,688199.091,0.683,-0.678,0.195,0.189,0,0,0,0,0,0,0,0,0,0.000,0,0,0.172,0.008,-0.140,-0.060,0.080,0.011,0.993,0.003,0.000,0.008,0.002,0.000,0.000,0.000,0.000,0,3,0,3,7,255,1200,250,0,0,-89.731,0.564,-31.497
EX0521-092111,12,C10,prep,2230,2230,0,688204.092,0.683,-0.678,0.195,0.189,0,0,0,0,0,0,0,0,0,0.000,0,0,0.102,0.004,-0.080,-0.060,0.020,0.012,0.993,0.005,0.000,0.004,0.002,0.000,0.000,0.000,0.000,0,3,0,3,7,255,1200,250,0,0,-89.731,0.564,-31.497
EX0521-092111,12,C10,prep,2245,2245,0,688209.092,0.683,-0.678,0.195,0.189,0,0,0,0,0,0,0,0,0,0.000,0,0,0.108,0.002,-0.080,-0.060,-0.040,0.012,0.993,0.004,0.000,-0.002,0.002,0.000,0.000,0.000,0.000,0,3,0,3,7,255,1200,250,0,0,-89.731,0.564,-31.497
EX0521-092111,12,C10,prep,2245,2245,0,688214.091,0.683,-0.678,0.195,0.189,0,0,0,0,0,0,0,0,0,0.000,0,0,0.146,0.002,-0.080,-0.120,0.020,0.011,0.994,0.004,0.000,-0.002,0.002,0.000,0.000,0.000,0.000,0,3,0,3,7,255,1200,250,0,0,-89.731,0.564,-31.497
EX0521-092111,12,C10,prep,2262,2262,0,688219.091,0.683,-0.678,0.195,0.189,0,0,0,0,0,0,0,0,0,0.000,0,0,0.075,0.003,-0.020,-0.060,-0.040,0.011,0.992,0.005,-0.002,-0.002,0.002,0.000,0.000,0.000,0.000,0,3,0,3,7,255,1200,250,0,0,-89.731,0.564,-31.497
EX0521-092111,12,C10,prep,2262,2262,0,688224.092,0.683,-0.678,0.195,0.189,0,0,0,0,0,0,0,0,0,0.000,0,0,0.075,0.002,-0.020,-0.060,-0.040,0.011,0.994,0.004,-0.002,0.000,0.012,0.000,0.000,0.000,0.000,0,3,0,3,7,255,1200,250,0,0,-89.731,0.564,-31.497
EX0521-092111,12,C10,prep,2298,2298,0,688229.092,0.683,-0.678,0.195,0.189,0,0,0,0,0,0,0,0,0,0.000,0,0,0.066,0.002,-0.020,-0.060,0.020,0.011,0.993,0.004,-0.002,0.000,-0.002,0.000,0.000,0.000,0.000,0,3,0,3,7,255,1200,250,0,0,-89.731,0.564,-31.497
EX0521-092111,12,C10,prep,2298,2298,0,688234.091,0.683,-0.678,0.195,0.189,0,0,0,0,0,0,0,0,0,0.000,0,0,0.118,0.002,-0.020,-0.060,-0.100,0.011,0.992,0.005,-0.002,0.000,-0.002,0.000,0.000,0.000,0.000,0,3,0,3,7,255,1200,250,0,0,-89.731,0.564,-31.497
EX0521-092111,12,C10,prep,2298,2298,0,688239.093,0.683,-0.678,0.195,0.189,0,0,0,0,0,0,0,0,0,0.000,0,0,0.082,0.011,0.040,-0.060,-0.040,0.010,0.994,0.004,-0.010,0.004,-0.002,0.000,0.000,0.000,0.000,0,3,0,3,7,255,1200,250,0,0,-89.732,0.564,-31.497
EX0521-092111,12,C10,prep,2298,2298,0,688244.092,0.683,-0.678,0.195,0.189,0,0,0,0,0,0,0,0,0,0.000,0,0,0.075,0.011,-0.020,-0.060,-0.040,0.011,0.995,0.004,-0.010,0.004,0.006,0.000,0.000,0.000,0.000,0,3,0,3,7,255,1200,250,0,0,-89.732,0.564,-31.497
EX0521-092111,12,C10,prep,2298,2298,0,688249.092,0.683,-0.678,0.195,0.189,0,0,0,0,0,0,0,0,0,0.000,0,0,0.075,0.007,-0.020,-0.060,-0.040,0.011,0.993,0.004,-0.006,0.004,0.006,0.000,0.000,0.000,0.000,0,3,0,3,7,255,1200,250,0,0,-89.732,0.564,-31.497
EX0521-092111,12,C10,prep,2298,2298,0,688254.091,0.683,-0.678,0.195,0.189,0,0,0,0,0,0,0,0,0,0.000,0,0,0.075,0.004,-0.020,-0.060,-0.040,0.011,0.992,0.003,-0.002,0.004,0.002,0.000,0.000,0.000,0.000,0,3,0,3,7,255,1200,250,0,0,-89.732,0.564,-31.497
EX0521-092111,12,C10,prep,2298,2298,0,688259.092,0.683,-0.678,0.195,0.189,0,0,0,0,0,0,0,0,0,0.000,0,0,0.108,0.002,-0.080,-0.060,-0.040,0.011,0.993,0.004,-0.002,0.000,0.002,0.000,0.000,0.000,0.000,0,3,0,3,7,255,1200,250,0,0,-89.732,0.564,-31.497
EX0521-092111,12,C10,prep,2298,2298,0,688264.092,0.683,-0.678,0.195,0.189,0,0,0,0,0,0,0,0,0,0.000,0,0,0.089,0.002,-0.080,0.000,-0.040,0.012,0.993,0.004,0.002,0.000,0.002,0.000,0.000,0.000,0.000,0,3,0,3,7,255,1200,250,0,0,-89.732,0.564,-31.497
EX0521-092111,12,C10,prep,2299,2299,0,688269.091,0.683,-0.678,0.195,0.189,0,0,0,0,0,0,0,0,0,0.000,0,0,0.075,0.000,-0.020,-0.060,-0.040,0.011,0.994,0.004,0.000,0.000,0.002,0.000,0.000,0.000,0.000,0,3,0,3,7,255,1200,250,0,0,-89.732,0.564,-31.497
EX0521-092111,12,C10,prep,2299,2299,0,688274.091,0.683,-0.678,0.195,0.189,0,0,0,0,0,0,0,0,0,0.000,0,0,0.082,0.004,0.040,-0.060,-0.040,0.012,0.993,0.004,0.004,0.002,0.002,0.000,0.000,0.000,0.000,0,3,0,3,7,255,1200,250,0,0,-89.732,0.564,-31.497
EX0521-092111,12,C10,prep,2309,2309,0,688279.092,0.683,-0.678,0.195,0.189,0,0,0,0,0,0,0,0,0,0.000,0,0,0.123,0.004,0.040,-0.060,-0.100,0.011,0.993,0.003,0.000,0.004,-0.002,0.000,0.000,0.000,0.000,0,3,0,3,7,255,1200,250,0,0,-89.732,0.564,-31.497
EX0521-092111,12,C10,prep,2309,2309,0,688284.092,0.683,-0.678,0.195,0.189,0,0,0,0,0,0,0,0,0,0.000,0,0,0.102,0.003,0.100,0.000,0.020,0.011,0.994,0.004,-0.002,0.002,-0.002,0.000,0.000,0.000,0.000,0,3,0,3,7,255,1200,250,0,0,-89.732,0.564,-31.497
EX0521-092111,12,C10,prep,2333,2333,0,688289.091,0.683,-0.678,0.195,0.189,0,0,0,0,0,0,0,0,0,0.000,0,0,0.123,0.003,0.100,-0.060,-0.040,0.011,0.992,0.004,-0.002,0.002,-0.002,0.000,0.000,0.000,0.000,0,3,0,3,7,255,1200,250,0,0,-89.732,0.564,-31.497
EX0521-092111,12,C10,prep,2333,2333,0,688294.092,0.683,-0.678,0.195,0.189,0,0,0,0,0,0,0,0,0,0.000,0,0,0.123,0.006,0.040,-0.060,-0.100,0.010,0.993,0.004,-0.006,0.002,0.002,0.000,0.000,0.000,0.000,0,3,0,3,7,255,1200,250,0,0,-89.732,0.564,-31.497
EX0521-092111,12,C10,prep,2333,2333,0,688299.092,0.683,-0.678,0.195,0.189,0,0,0,0,0,0,0,0,0,0.000,0,0,0.133,0.010,0.040,-0.120,-0.040,0.011,0.993,0.003,-0.006,0.008,0.002,0.000,0.000,0.000,0.000,0,3,0,3,7,255,1200,250,0,0,-89.733,0.564,-31.497
EX0521-092111,12,C10,prep,2333,2333,0,688304.091,0.683,-0.678,0.195,0.189,0,0,0,0,0,0,0,0,0,0.000,0,0,0.082,0.013,0.040,-0.060,-0.040,0.010,0.993,0.004,-0.010,0.008,0.002,0.000,0.000,0.000,0.000,0,3,0,3,7,255,1200,250,0,0,-89.733,0.564,-31.497
EX0521-092111,12,C10,prep,2341,2341,0,688309.091,0.683,-0.678,0.195,0.189,0,0,0,0,0,0,0,0,0,0.000,0,0,0.082,0.007,0.040,-0.060,-0.040,0.011,0.993,0.004,-0.006,0.004,0.002,0.000,0.000,0.000,0.000,0,3,0,3,7,255,1200,250,0,0,-89.733,0.564,-31.497
EX0521-092111,12,C10,prep,2341,2341,0,688314.092,0.683,-0.678,0.195,0.189,0,0,0,0,0,0,0,0,0,0.000,0,0,0.082,0.006,0.040,-0.060,-0.040,0.011,0.993,0.004,-0.006,0.002,-0.002,0.000,0.000,0.000,0.000,0,3,0,3,7,255,1200,250,0,0,-89.733,0.564,-31.497
EX0521-092111,12,C10,prep,2362,2362,0,688319.092,0.683,-0.678,0.195,0.189,0,0,0,0,0,0,0,0,0,0.000,0,0,0.075,0.006,0.040,-0.060,0.020,0.011,0.993,0.005,-0.006,0.002,-0.002,0.000,0.000,0.000,0.000,0,3,0,3,7,255,1200,250,0,0,-89.733,0.564,-31.497
EX0521-092111,12,C10,prep,2362,2362,0,688324.091,0.683,-0.678,0.195,0.189,0,0,0,0,0,0,0,0,0,0.000,0,0,0.066,0.006,-0.020,-0.060,0.020,0.011,0.993,0.004,-0.006,0.002,-0.002,0.000,0.000,0.000,0.000,0,3,0,3,7,255,1200,250,0,0,-89.733,0.564,-31.497
EX0521-092111,12,C10,prep,2399,2399,0,688329.091,0.683,-0.678,0.195,0.189,0,0,0,0,0,0,0,0,0,0.000,0,0,0.060,0.006,0.040,0.020,-0.040,0.011,0.993,0.003,-0.006,0.002,0.002,0.000,0.000,0.000,0.000,0,3,0,3,7,255,1200,250,0,0,-89.733,0.564,-31.497
EX0521-092111,12,C10,prep,2399,2399,0,688334.092,0.683,-0.678,0.195,0.189,0,0,0,0,0,0,0,0,0,0.000,0,0,0.035,0.004,-0.020,0.020,0.020,0.013,0.993,0.004,0.004,0.002,0.002,0.000,0.000,0.000,0.000,0,3,0,3,7,255,1200,250,0,0,-89.733,0.564,-31.497
EX0521-092111,12,C10,prep,2399,2399,0,688339.093,0.683,-0.678,0.195,0.189,0,0,0,0,0,0,0,0,0,0.000,0,0,0.102,0.006,-0.080,-0.060,0.020,0.011,0.993,0.005,0.004,-0.004,0.002,0.000,0.000,0.000,0.000,0,3,0,3,7,255,1200,250,0,0,-89.733,0.564,-31.497
EX0521-092111,12,C10,prep,2399,2399,0,688344.091,0.683,-0.678,0.195,0.189,0,0,0,0,0,0,0,0,0,0.000,0,0,0.075,0.006,-0.020,-0.060,-0.040,0.011,0.994,0.005,-0.004,-0.004,0.002,0.000,0.000,0.000,0.000,0,3,0,3,7,255,1200,250,0,0,-89.733,0.564,-31.497
EX0521-092111,12,C10,prep,2399,2399,0,688349.092,0.683,-0.678,0.195,0.189,0,0,0,0,0,0,0,0,0,0.000,0,0,0.092,0.004,-0.080,0.020,-0.040,0.011,0.993,0.004,-0.004,-0.002,0.002,0.000,0.000,0.000,0.000,0,3,0,3,7,255,1200,250,0,0,-89.733,0.564,-31.497
EX0521-092111,12,C10,prep,2399,2399,0,688354.092,0.683,-0.678,0.195,0.189,0,0,0,0,0,0,0,0,0,0.000,0,0,0.154,0.006,-0.140,-0.060,0.020,0.011,0.994,0.004,-0.006,0.002,0.006,0.000,0.000,0.000,0.000,0,3,0,3,7,255,1200,250,0,0,-89.733,0.564,-31.497
EX0521-092111,12,C10,prep,2399,2399,0,688359.095,0.683,-0.678,0.195,0.189,0,0,0,0,0,0,0,0,0,0.000,0,0,0.102,0.006,-0.080,-0.060,0.020,0.011,0.993,0.004,-0.004,0.004,-0.004,0.000,0.000,0.000,0.000,0,3,0,3,7,255,1200,250,0,0,-89.733,0.564,-31.497
EX0521-092111,12,C10,prep,2399,2399,0,688364.091,0.683,-0.678,0.195,0.189,0,0,0,0,0,0,0,0,0,0.000,0,0,0.102,0.003,-0.080,-0.060,0.020,0.011,0.994,0.004,-0.002,0.002,0.006,0.000,0.000,0.000,0.000,0,3,0,3,7,255,1200,250,0,0,-89.734,0.564,-31.497
EX0521-092111,12,C10,prep,2400,2400,0,688369.092,0.683,-0.678,0.195,0.189,0,0,0,0,0,0,0,0,0,0.000,0,0,0.210,0.000,-0.200,-0.060,0.020,0.012,0.993,0.004,0.000,0.000,0.002,0.000,0.000,0.000,0.000,0,3,0,3,7,255,1200,250,0,0,-89.734,0.564,-31.497
EX0521-092111,12,C10,prep,2400,2400,0,688374.092,0.683,-0.678,0.195,0.189,0,0,0,0,0,0,0,0,0,0.000,0,0,0.301,0.002,-0.260,-0.060,0.140,0.010,0.994,0.004,-0.002,0.000,0.006,0.000,0.000,0.000,0.000,0,3,0,3,7,255,1200,250,0,0,-89.734,0.564,-31.497
EX0521-092111,12,C10,prep,2405,2405,0,688379.092,0.683,-0.678,0.195,0.189,0,0,0,0,0,0,0,0,0,0.000,0,0,0.279,0.003,-0.260,-0.060,0.080,0.012,0.993,0.004,0.002,-0.002,0.002,0.000,0.000,0.000,0.000,0,3,0,3,7,255,1200,250,0,0,-89.734,0.564,-31.497
EX0521-092111,12,C10,prep,2405,2405,0,688384.092,0.683,-0.678,0.195,0.189,0,0,0,0,0,0,0,0,0,0.000,0,0,0.279,0.003,-0.260,-0.060,0.080,0.012,0.994,0.005,-0.002,-0.002,0.006,0.000,0.000,0.000,0.000,0,3,0,3,7,255,1200,250,0,0,-89.734,0.564,-31.497
EX0521-092111,12,C10,prep,2435,2435,0,688389.092,0.683,-0.678,0.195,0.189,0,0,0,0,0,0,0,0,0,0.000,0,0,0.244,0.003,-0.200,0.000,0.140,0.012,0.993,0.004,0.002,-0.002,0.002,0.000,0.000,0.000,0.000,0,3,0,3,7,255,1200,250,0,0,-89.734,0.564,-31.497
EX0521-092111,12,C10,prep,2435,2435,0,688394.091,0.683,-0.678,0.195,0.189,0,0,0,0,0,0,0,0,0,0.000,0,0,0.154,0.002,-0.140,-0.060,0.020,0.011,0.992,0.004,0.000,0.002,-0.004,0.000,0.000,0.000,0.000,0,3,0,3,7,255,1200,250,0,0,-89.734,0.564,-31.497
EX0521-092111,12,C10,prep,2435,2435,0,688399.091,0.683,-0.678,0.195,0.189,0,0,0,0,0,0,0,0,0,0.000,0,0,0.102,0.002,-0.080,-0.060,0.020,0.011,0.992,0.004,0.000,0.002,-0.008,0.000,0.000,0.000,0.000,0,3,0,3,7,255,1200,250,0,0,-89.734,0.564,-31.497
EX0521-092111,12,C10,prep,2435,2435,0,688404.092,0.683,-0.678,0.195,0.189,0,0,0,0,0,0,0,0,0,0.000,0,0,0.057,0.002,0.040,0.000,-0.040,0.012,0.992,0.005,0.000,0.002,-0.008,0.000,0.000,0.000,0.000,0,3,0,3,7,255,1200,250,0,0,-89.734,0.564,-31.497
EX0521-092111,12,C10,prep,2436,2436,0,688409.092,0.683,-0.678,0.195,0.189,0,0,0,0,0,0,0,0,0,0.000,0,0,0.082,0.004,0.040,-0.060,-0.040,0.012,0.994,0.004,0.004,0.002,-0.008,0.000,0.000,0.000,0.000,0,3,0,3,7,255,1200,250,0,0,-89.734,0.564,-31.497
