experiment_id,condition_order_index,condition_id,condition_phase,condition_phase_elapsed_ms,condition_elapsed_ms,is_stimulation_on,t_ms,R_q0,R_q1,R_q2,R_q3,R_heel1,R_mid1,R_fore1,R_heel2,R_fore3,R_mid2,R_fore4,R_fore2,R_cadence,R_speed,R_steps,R_zupt,R_gyroNorm,R_accH,R_gyro_x,R_gyro_y,R_gyro_z,R_acc_x,R_acc_y,R_acc_z,R_nav_ax,R_nav_ay,R_nav_az,R_stepVel,R_stepVelj,R_stepDispRaw,R_stepDispZUPT,R_gaitEvent,R_motorMode,R_motorActive,R_motorAlignment,R_motorRegionMask,R_motorAmplitude,R_motorIntervalMs,R_motorDurationMs,R_motorPhaseMs,R_motorCycleMs,R_roll,R_pitch,R_yaw
EX0521-092111,6,C23,prep,67,67,0,484049.091,0.685,-0.677,0.193,0.187,0,0,0,0,0,0,0,0,0,0.000,0,0,1.093,0.010,0.980,0.200,-0.440,0.014,0.994,0.011,0.006,0.008,0.002,0.000,0.000,0.000,0.000,0,2,0,3,7,255,1440,300,0,0,-89.496,0.597,-31.187
EX0521-092111,6,C23,prep,67,67,0,484054.092,0.685,-0.677,0.193,0.187,0,0,0,0,0,0,0,0,0,0.000,0,0,1.102,0.006,-0.980,-0.280,0.420,0.015,0.998,0.012,0.000,0.006,0.022,0.000,0.000,0.000,0.000,0,2,0,3,7,255,1440,300,0,0,-89.491,0.596,-31.187
EX0521-092111,6,C23,prep,67,67,0,484059.092,0.685,-0.677,0.193,0.187,0,0,0,0,0,0,0,0,0,0.000,0,0,1.662,0.006,1.520,0.260,-0.620,0.016,0.985,0.010,0.000,0.006,0.002,0.000,0.000,0.000,0.000,0,2,0,3,7,255,1440,300,0,0,-89.499,0.594,-31.187
EX0521-092111,6,C23,prep,67,67,0,484064.092,0.685,-0.677,0.193,0.187,0,0,0,0,0,0,0,0,0,0.000,0,0,1.881,0.008,-1.700,-0.460,0.660,0.013,1.011,0.011,-0.002,0.008,0.040,0.000,0.000,0.000,0.000,0,2,0,3,7,255,1440,300,0,0,-89.491,0.597,-31.187
EX0521-092111,6,C23,prep,68,68,0,484069.093,0.685,-0.677,0.193,0.187,0,0,0,0,0,0,0,0,0,0.000,0,0,3.495,0.020,3.180,0.500,-1.360,0.017,0.972,0.012,0.018,0.008,-0.084,0.000,0.000,0.000,0.000,0,2,0,3,7,255,1440,300,0,0,-89.507,0.590,-31.187
EX0521-092111,6,C23,prep,68,68,0,484074.093,0.685,-0.677,0.193,0.187,0,0,0,0,0,0,0,0,0,0.000,0,0,4.000,0.016,-3.660,-0.540,1.520,0.011,1.020,0.008,-0.008,0.014,0.174,0.000,0.000,0.000,0.000,0,2,0,3,7,255,1440,300,0,0,-89.489,0.598,-31.187
EX0521-092111,6,C23,prep,69,69,0,484079.091,0.685,-0.677,0.193,0.187,0,0,0,0,0,0,0,0,0,0.000,0,0,3.831,0.016,3.480,0.440,-1.540,0.018,0.968,0.017,0.000,-0.016,-0.208,0.000,0.000,0.000,0.000,0,2,0,3,7,255,1440,300,0,0,-89.504,0.591,-31.187
EX0521-092111,6,C23,prep,69,69,0,484084.092,0.685,-0.677,0.193,0.187,0,0,0,0,0,0,0,0,0,0.000,0,0,3.040,0.054,-2.800,0.320,1.140,0.008,1.019,0.002,-0.006,0.054,0.250,0.000,0.000,0.000,0.000,0,2,0,3,7,255,1440,300,0,0,-89.492,0.596,-31.187
EX0521-092111,6,C23,prep,79,79,0,484089.092,0.685,-0.677,0.193,0.187,0,0,0,0,0,0,0,0,0,0.000,0,0,2.481,0.052,0.000,-2.480,-0.080,0.016,0.977,0.017,-0.006,-0.052,-0.160,0.000,0.000,0.000,0.000,0,2,0,3,7,255,1440,300,0,0,-89.490,0.597,-31.199
EX0521-092111,6,C23,prep,79,79,0,484094.092,0.685,-0.677,0.193,0.187,0,0,0,0,0,0,0,0,0,0.000,0,0,3.803,0.010,2.380,2.820,-0.920,0.019,0.996,0.008,-0.006,0.008,0.020,0.000,0.000,0.000,0.000,0,2,0,3,7,255,1440,300,0,0,-89.502,0.593,-31.185
EX0521-092111,6,C23,prep,79,79,0,484099.092,0.685,-0.677,0.193,0.187,0,0,0,0,0,0,0,0,0,0.000,0,0,3.380,0.018,-2.940,-1.320,1.020,0.000,1.007,0.011,-0.016,0.008,0.020,0.000,0.000,0.000,0.000,0,2,0,3,7,255,1440,300,0,0,-89.488,0.597,-31.192
EX0521-092111,6,C23,prep,79,79,0,484104.093,0.685,-0.677,0.193,0.187,0,0,0,0,0,0,0,0,0,0.000,0,0,3.209,0.059,1.840,-2.540,-0.680,0.030,0.978,0.013,0.058,0.008,0.020,0.000,0.000,0.000,0.000,0,2,0,3,7,255,1440,300,0,0,-89.497,0.595,-31.204
EX0521-092111,6,C23,prep,95,95,0,484109.091,0.685,-0.677,0.193,0.187,0,0,0,0,0,0,0,0,0,0.000,0,0,4.162,0.078,0.060,4.160,0.120,0.007,1.010,0.014,-0.074,0.024,0.134,0.000,0.000,0.000,0.000,0,2,0,3,7,255,1440,300,0,0,-89.497,0.595,-31.183
EX0521-092111,6,C23,prep,95,95,0,484114.092,0.685,-0.677,0.193,0.187,0,0,0,0,0,0,0,0,0,0.000,0,0,2.505,0.040,-2.080,-1.260,0.600,0.015,0.983,0.006,0.032,0.024,-0.100,0.000,0.000,0.000,0.000,0,2,0,3,7,255,1440,300,0,0,-89.487,0.597,-31.190
EX0521-092111,6,C23,prep,95,95,0,484119.092,0.685,-0.677,0.193,0.187,0,0,0,0,0,0,0,0,0,0.000,0,0,1.640,0.025,1.580,0.020,-0.440,0.017,0.993,0.017,-0.008,0.024,-0.002,0.000,0.000,0.000,0.000,0,2,0,3,7,255,1440,300,0,0,-89.493,0.598,-31.190
EX0521-092111,6,C23,prep,95,95,0,484124.092,0.685,-0.677,0.193,0.187,0,0,0,0,0,0,0,0,0,0.000,0,0,0.770,0.056,0.740,-0.160,-0.140,0.012,1.005,0.002,0.028,0.048,-0.002,0.000,0.000,0.000,0.000,0,2,0,3,7,255,1440,300,0,0,-89.503,0.598,-31.190
EX0521-092111,6,C23,prep,95,95,0,484129.092,0.685,-0.677,0.193,0.187,0,0,0,0,0,0,0,0,0,0.000,0,0,2.340,0.033,-2.260,-0.100,0.600,0.016,0.984,0.015,-0.006,-0.032,-0.002,0.000,0.000,0.000,0.000,0,2,0,3,7,255,1440,300,0,0,-89.490,0.601,-31.190
EX0521-092111,6,C23,prep,95,95,0,484134.091,0.685,-0.677,0.193,0.187,0,0,0,0,0,0,0,0,0,0.000,0,0,0.713,0.027,0.680,0.080,-0.200,0.014,0.998,0.015,-0.006,-0.026,0.044,0.000,0.000,0.000,0.000,0,2,0,3,7,255,1440,300,0,0,-89.488,0.601,-31.190
EX0521-092111,6,C23,prep,95,95,0,484139.092,0.685,-0.677,0.193,0.187,0,0,0,0,0,0,0,0,0,0.000,0,0,1.660,0.027,1.580,-0.100,-0.500,0.015,0.997,0.006,-0.006,-0.026,0.034,0.000,0.000,0.000,0.000,0,2,0,3,7,255,1440,300,0,0,-89.496,0.601,-31.190
EX0521-092111,6,C23,prep,95,95,0,484144.092,0.685,-0.677,0.193,0.187,0,0,0,0,0,0,0,0,0,0.000,0,0,2.264,0.016,-2.140,-0.160,0.720,0.014,0.991,0.010,0.004,0.016,0.034,0.000,0.000,0.000,0.000,0,2,0,3,7,255,1440,300,0,0,-89.486,0.604,-31.190
EX0521-092111,6,C23,prep,111,111,0,484149.092,0.685,-0.677,0.193,0.187,0,0,0,0,0,0,0,0,0,0.000,0,0,0.500,0.016,0.420,0.080,-0.260,0.014,0.995,0.015,0.004,0.016,0.010,0.000,0.000,0.000,0.000,0,2,0,3,7,255,1440,300,0,0,-89.481,0.604,-31.190
EX0521-092111,6,C23,prep,111,111,0,484154.092,0.685,-0.677,0.193,0.187,0,0,0,0,0,0,0,0,0,0.000,0,0,1.014,0.016,0.980,0.020,-0.260,0.014,0.994,0.009,0.004,0.016,0.000,0.000,0.000,0.000,0.000,0,2,0,3,7,255,1440,300,0,0,-89.486,0.604,-31.190
EX0521-092111,6,C23,prep,127,127,0,484159.093,0.685,-0.677,0.193,0.187,0,0,0,0,0,0,0,0,0,0.000,0,0,0.910,0.030,-0.860,-0.100,0.280,0.014,0.997,0.007,0.012,0.028,0.010,0.000,0.000,0.000,0.000,0,2,0,3,7,255,1440,300,0,0,-89.482,0.604,-31.190
EX0521-092111,6,C23,prep,127,127,0,484164.093,0.685,-0.677,0.193,0.187,0,0,0,0,0,0,0,0,0,0.000,0,0,0.244,0.030,-0.240,-0.040,-0.020,0.015,0.990,0.015,0.012,0.028,0.000,0.000,0.000,0.000,0.000,0,2,0,3,7,255,1440,300,0,0,-89.477,0.603,-31.190
EX0521-092111,6,C23,prep,127,127,0,484169.091,0.685,-0.677,0.193,0.187,0,0,0,0,0,0,0,0,0,0.000,0,0,0.606,0.014,0.600,0.020,-0.080,0.016,0.993,0.012,0.010,-0.010,-0.010,0.000,0.000,0.000,0.000,0,2,0,3,7,255,1440,300,0,0,-89.480,0.605,-31.190
EX0521-092111,6,C23,prep,127,127,0,484174.092,0.685,-0.677,0.193,0.187,0,0,0,0,0,0,0,0,0,0.000,0,0,0.189,0.010,0.120,-0.040,-0.140,0.013,0.998,0.009,0.000,-0.010,-0.010,0.000,0.000,0.000,0.000,0,2,0,3,7,255,1440,300,0,0,-89.480,0.605,-31.190
EX0521-092111,6,C23,prep,143,143,0,484179.092,0.685,-0.677,0.193,0.187,0,0,0,0,0,0,0,0,0,0.000,0,0,1.024,0.011,-0.980,-0.100,0.280,0.016,0.990,0.014,0.004,-0.010,-0.010,0.000,0.000,0.000,0.000,0,2,0,3,7,255,1440,300,0,0,-89.476,0.605,-31.190
EX0521-092111,6,C23,prep,143,143,0,484184.092,0.685,-0.677,0.193,0.187,0,0,0,0,0,0,0,0,0,0.000,0,0,0.547,0.004,0.540,-0.040,-0.080,0.014,0.995,0.012,0.000,0.004,0.010,0.000,0.000,0.000,0.000,0,2,0,3,7,255,1440,300,0,0,-89.476,0.605,-31.190
EX0521-092111,6,C23,prep,163,163,0,484189.092,0.685,-0.677,0.193,0.187,0,0,0,0,0,0,0,0,0,0.000,0,0,0.467,0.006,0.420,-0.040,-0.200,0.015,0.994,0.008,0.004,0.004,0.004,0.000,0.000,0.000,0.000,0,2,0,3,7,255,1440,300,0,0,-89.476,0.605,-31.190
EX0521-092111,6,C23,prep,163,163,0,484194.091,0.685,-0.677,0.193,0.187,0,0,0,0,0,0,0,0,0,0.000,0,0,0.967,0.004,-0.920,-0.100,0.280,0.014,0.993,0.012,-0.002,0.004,0.004,0.000,0.000,0.000,0.000,0,2,0,3,7,255,1440,300,0,0,-89.472,0.604,-31.190
EX0521-092111,6,C23,prep,164,164,0,484199.092,0.685,-0.677,0.193,0.187,0,0,0,0,0,0,0,0,0,0.000,0,0,0.467,0.004,0.420,-0.040,-0.200,0.014,0.994,0.014,-0.004,0.000,0.004,0.000,0.000,0.000,0.000,0,2,0,3,7,255,1440,300,0,0,-89.472,0.604,-31.190
EX0521-092111,6,C23,prep,164,164,0,484204.093,0.685,-0.677,0.193,0.187,0,0,0,0,0,0,0,0,0,0.000,0,0,0.371,0.004,0.360,-0.040,-0.080,0.014,0.993,0.009,-0.004,0.000,-0.004,0.000,0.000,0.000,0.000,0,2,0,3,7,255,1440,300,0,0,-89.472,0.604,-31.190
EX0521-092111,6,C23,prep,164,164,0,484209.092,0.685,-0.677,0.193,0.187,0,0,0,0,0,0,0,0,0,0.000,0,0,0.691,0.013,-0.680,0.020,0.120,0.014,0.996,0.011,-0.004,0.012,0.004,0.000,0.000,0.000,0.000,0,2,0,3,7,255,1440,300,0,0,-89.469,0.604,-31.190
EX0521-092111,6,C23,prep,164,164,0,484214.092,0.685,-0.677,0.193,0.187,0,0,0,0,0,0,0,0,0,0.000,0,0,0.189,0.013,0.120,-0.040,-0.140,0.016,0.992,0.013,0.006,0.012,-0.006,0.000,0.000,0.000,0.000,0,2,0,3,7,255,1440,300,0,0,-89.469,0.605,-31.190
EX0521-092111,6,C23,prep,200,200,0,484219.092,0.685,-0.677,0.193,0.187,0,0,0,0,0,0,0,0,0,0.000,0,0,0.313,0.013,0.300,-0.040,-0.080,0.014,0.994,0.010,0.004,0.012,0.000,0.000,0.000,0.000,0.000,0,2,0,3,7,255,1440,300,0,0,-89.470,0.605,-31.190
EX0521-092111,6,C23,prep,200,200,0,484224.091,0.685,-0.677,0.193,0.187,0,0,0,0,0,0,0,0,0,0.000,0,0,0.206,0.023,-0.180,-0.100,0.000,0.014,0.996,0.010,0.006,0.022,0.000,0.000,0.000,0.000,0.000,0,2,0,3,7,255,1440,300,0,0,-89.470,0.605,-31.190
EX0521-092111,6,C23,prep,200,200,0,484229.091,0.685,-0.677,0.193,0.187,0,0,0,0,0,0,0,0,0,0.000,0,0,0.267,0.022,-0.240,-0.100,0.060,0.015,0.991,0.013,0.004,0.022,0.000,0.000,0.000,0.000,0.000,0,2,0,3,7,255,1440,300,0,0,-89.470,0.605,-31.190
EX0521-092111,6,C23,prep,200,200,0,484234.092,0.685,-0.677,0.193,0.187,0,0,0,0,0,0,0,0,0,0.000,0,0,0.454,0.017,0.420,-0.100,-0.140,0.014,0.995,0.010,0.006,0.016,0.010,0.000,0.000,0.000,0.000,0,2,0,3,7,255,1440,300,0,0,-89.470,0.604,-31.190
EX0521-092111,6,C23,prep,201,201,0,484239.092,0.685,-0.677,0.193,0.187,0,0,0,0,0,0,0,0,0,0.000,0,0,0.126,0.017,-0.120,-0.040,0.000,0.015,0.994,0.009,0.006,0.016,0.004,0.000,0.000,0.000,0.000,0,2,0,3,7,255,1440,300,0,0,-89.471,0.604,-31.190
EX0521-092111,6,C23,prep,201,201,0,484244.092,0.685,-0.677,0.193,0.187,0,0,0,0,0,0,0,0,0,0.000,0,0,0.485,0.017,-0.480,-0.040,0.060,0.015,0.993,0.013,0.006,0.016,0.004,0.000,0.000,0.000,0.000,0,2,0,3,7,255,1440,300,0,0,-89.471,0.604,-31.190
EX0521-092111,6,C23,prep,227,227,0,484249.091,0.685,-0.677,0.193,0.187,0,0,0,0,0,0,0,0,0,0.000,0,0,0.388,0.002,0.360,-0.040,-0.140,0.015,0.995,0.012,0.000,-0.002,0.004,0.000,0.000,0.000,0.000,0,2,0,3,7,255,1440,300,0,0,-89.471,0.604,-31.190
EX0521-092111,6,C23,prep,227,227,0,484254.091,0.685,-0.677,0.193,0.187,0,0,0,0,0,0,0,0,0,0.000,0,0,0.094,0.002,0.060,-0.040,0.060,0.015,0.993,0.009,0.000,-0.002,-0.006,0.000,0.000,0.000,0.000,0,2,0,3,7,255,1440,300,0,0,-89.471,0.604,-31.190
EX0521-092111,6,C23,prep,227,227,0,484259.091,0.685,-0.677,0.193,0.187,0,0,0,0,0,0,0,0,0,0.000,0,0,0.326,0.002,-0.300,-0.040,0.120,0.014,0.994,0.013,0.000,-0.002,0.004,0.000,0.000,0.000,0.000,0,2,0,3,7,255,1440,300,0,0,-89.472,0.603,-31.190
EX0521-092111,6,C23,prep,227,227,0,484264.092,0.685,-0.677,0.193,0.187,0,0,0,0,0,0,0,0,0,0.000,0,0,0.256,0.004,0.240,-0.040,-0.080,0.015,0.993,0.012,0.000,-0.004,-0.004,0.000,0.000,0.000,0.000,0,2,0,3,7,255,1440,300,0,0,-89.472,0.603,-31.190
EX0521-092111,6,C23,prep,228,228,0,484269.092,0.685,-0.677,0.193,0.187,0,0,0,0,0,0,0,0,0,0.000,0,0,0.075,0.004,0.060,-0.040,-0.020,0.014,0.995,0.011,-0.002,-0.004,0.004,0.000,0.000,0.000,0.000,0,2,0,3,7,255,1440,300,0,0,-89.472,0.603,-31.190
EX0521-092111,6,C23,prep,228,228,0,484274.092,0.685,-0.677,0.193,0.187,0,0,0,0,0,0,0,0,0,0.000,0,0,0.309,0.010,-0.300,-0.040,0.060,0.015,0.995,0.011,0.000,0.010,0.010,0.000,0.000,0.000,0.000,0,2,0,3,7,255,1440,300,0,0,-89.472,0.603,-31.190
EX0521-092111,6,C23,prep,265,265,0,484279.091,0.685,-0.677,0.193,0.187,0,0,0,0,0,0,0,0,0,0.000,0,0,0.028,0.010,0.000,0.020,-0.020,0.015,0.992,0.012,0.002,0.010,0.010,0.000,0.000,0.000,0.000,0,2,0,3,7,255,1440,300,0,0,-89.473,0.603,-31.190
EX0521-092111,6,C23,prep,265,265,0,484284.091,0.685,-0.677,0.193,0.187,0,0,0,0,0,0,0,0,0,0.000,0,0,0.244,0.010,0.240,-0.040,-0.020,0.014,0.994,0.010,0.002,0.010,0.004,0.000,0.000,0.000,0.000,0,2,0,3,7,255,1440,300,0,0,-89.473,0.602,-31.190
EX0521-092111,6,C23,prep,300,300,0,484289.091,0.685,-0.677,0.193,0.187,0,0,0,0,0,0,0,0,0,0.000,0,0,0.185,0.018,-0.180,-0.040,-0.020,0.014,0.994,0.010,0.002,0.018,0.004,0.000,0.000,0.000,0.000,0,2,0,3,7,255,1440,300,0,0,-89.473,0.602,-31.190
EX0521-092111,6,C23,prep,300,300,0,484294.092,0.685,-0.677,0.193,0.187,0,0,0,0,0,0,0,0,0,0.000,0,0,0.157,0.018,-0.120,-0.100,-0.020,0.015,0.994,0.013,0.000,0.018,0.004,0.000,0.000,0.000,0.000,0,2,0,3,7,255,1440,300,0,0,-89.473,0.602,-31.190
EX0521-092111,6,C23,prep,301,301,0,484299.092,0.685,-0.677,0.193,0.187,0,0,0,0,0,0,0,0,0,0.000,0,0,0.382,0.015,0.360,-0.100,-0.080,0.013,0.994,0.011,-0.004,0.014,0.000,0.000,0.000,0.000,0.000,0,2,0,3,7,255,1440,300,0,0,-89.474,0.602,-31.190
EX0521-092111,6,C23,prep,301,301,0,484304.093,0.685,-0.677,0.193,0.187,0,0,0,0,0,0,0,0,0,0.000,0,0,0.194,0.015,-0.180,-0.040,0.060,0.014,0.993,0.010,-0.004,0.014,0.000,0.000,0.000,0.000,0.000,0,2,0,3,7,255,1440,300,0,0,-89.474,0.602,-31.190
EX0521-092111,6,C23,prep,302,302,0,484309.091,0.685,-0.677,0.193,0.187,0,0,0,0,0,0,0,0,0,0.000,0,0,0.244,0.018,-0.240,-0.040,-0.020,0.014,0.995,0.013,-0.012,0.014,0.000,0.000,0.000,0.000,0.000,0,2,0,3,7,255,1440,300,0,0,-89.474,0.602,-31.190
EX0521-092111,6,C23,prep,302,302,0,484314.091,0.685,-0.677,0.193,0.187,0,0,0,0,0,0,0,0,0,0.000,0,0,0.254,0.010,0.240,0.020,-0.080,0.014,0.993,0.011,0.002,0.010,-0.006,0.000,0.000,0.000,0.000,0,2,0,3,7,255,1440,300,0,0,-89.474,0.601,-31.190
EX0521-092111,6,C23,prep,304,304,0,484319.091,0.685,-0.677,0.193,0.187,0,0,0,0,0,0,0,0,0,0.000,0,0,0.045,0.010,0.000,-0.040,-0.020,0.014,0.996,0.008,0.002,0.010,0.014,0.000,0.000,0.000,0.000,0,2,0,3,7,255,1440,300,0,0,-89.475,0.601,-31.190
EX0521-092111,6,C23,prep,304,304,0,484324.092,0.685,-0.677,0.193,0.187,0,0,0,0,0,0,0,0,0,0.000,0,0,0.272,0.011,-0.240,-0.100,-0.080,0.015,0.994,0.011,0.004,0.010,0.000,0.000,0.000,0.000,0.000,0,2,0,3,7,255,1440,300,0,0,-89.475,0.601,-31.190
EX0521-092111,6,C23,prep,305,305,0,484329.092,0.685,-0.677,0.193,0.187,0,0,0,0,0,0,0,0,0,0.000,0,0,0.150,0.006,0.120,-0.040,-0.080,0.016,0.992,0.013,0.004,0.004,0.000,0.000,0.000,0.000,0.000,0,2,0,3,7,255,1440,300,0,0,-89.475,0.602,-31.190
EX0521-092111,6,C23,prep,305,305,0,484334.092,0.685,-0.677,0.193,0.187,0,0,0,0,0,0,0,0,0,0.000,0,0,0.150,0.006,0.120,-0.040,-0.080,0.014,0.995,0.009,0.004,0.004,0.000,0.000,0.000,0.000,0.000,0,2,0,3,7,255,1440,300,0,0,-89.475,0.602,-31.190
EX0521-092111,6,C23,prep,305,305,0,484339.092,0.685,-0.677,0.193,0.187,0,0,0,0,0,0,0,0,0,0.000,0,0,0.244,0.013,-0.240,-0.040,-0.020,0.016,0.994,0.012,0.010,-0.008,0.000,0.000,0.000,0.000,0.000,0,2,0,3,7,255,1440,300,0,0,-89.476,0.604,-31.190
EX0521-092111,6,C23,prep,305,305,0,484344.091,0.685,-0.677,0.193,0.187,0,0,0,0,0,0,0,0,0,0.000,0,0,0.102,0.011,0.000,-0.100,-0.020,0.015,0.994,0.012,0.010,-0.004,0.000,0.000,0.000,0.000,0.000,0,2,0,3,7,255,1440,300,0,0,-89.476,0.603,-31.190
EX0521-092111,6,C23,prep,339,339,0,484349.091,0.685,-0.677,0.193,0.187,0,0,0,0,0,0,0,0,0,0.000,0,0,0.201,0.009,0.180,-0.040,-0.080,0.015,0.994,0.010,0.008,-0.004,0.000,0.000,0.000,0.000,0.000,0,2,0,3,7,255,1440,300,0,0,-89.476,0.603,-31.190
EX0521-092111,6,C23,prep,339,339,0,484354.092,0.685,-0.677,0.193,0.187,0,0,0,0,0,0,0,0,0,0.000,0,0,0.189,0.012,-0.180,-0.040,0.040,0.014,0.994,0.010,0.000,0.012,0.000,0.000,0.000,0.000,0.000,0,2,0,3,7,255,1440,300,0,0,-89.476,0.603,-31.190
EX0521-092111,6,C23,prep,339,339,0,484359.092,0.685,-0.677,0.193,0.187,0,0,0,0,0,0,0,0,0,0.000,0,0,0.045,0.012,0.000,-0.040,-0.020,0.015,0.994,0.013,0.000,0.012,0.000,0.000,0.000,0.000,0.000,0,2,0,3,7,255,1440,300,0,0,-89.477,0.603,-31.190
EX0521-092111,6,C23,prep,339,339,0,484364.093,0.685,-0.677,0.193,0.187,0,0,0,0,0,0,0,0,0,0.000,0,0,0.256,0.003,0.240,-0.040,-0.080,0.014,0.994,0.012,-0.002,0.002,0.000,0.000,0.000,0.000,0.000,0,2,0,3,7,255,1440,300,0,0,-89.477,0.603,-31.190
EX0521-092111,6,C23,prep,339,339,0,484369.091,0.685,-0.677,0.193,0.187,0,0,0,0,0,0,0,0,0,0.000,0,0,0.189,0.003,-0.180,-0.040,0.040,0.014,0.994,0.010,-0.002,0.002,0.004,0.000,0.000,0.000,0.000,0,2,0,3,7,255,1440,300,0,0,-89.477,0.602,-31.190
EX0521-092111,6,C23,prep,339,339,0,484374.091,0.685,-0.677,0.193,0.187,0,0,0,0,0,0,0,0,0,0.000,0,0,0.185,0.004,-0.180,-0.040,-0.020,0.014,0.994,0.013,-0.004,0.002,0.000,0.000,0.000,0.000,0.000,0,2,0,3,7,255,1440,300,0,0,-89.477,0.602,-31.190
EX0521-092111,6,C23,prep,339,339,0,484379.091,0.685,-0.677,0.193,0.187,0,0,0,0,0,0,0,0,0,0.000,0,0,0.182,0.009,0.180,0.020,-0.020,0.014,0.994,0.012,-0.008,0.004,0.000,0.000,0.000,0.000,0.000,0,2,0,3,7,255,1440,300,0,0,-89.478,0.602,-31.190
EX0521-092111,6,C23,prep,339,339,0,484384.092,0.685,-0.677,0.193,0.187,0,0,0,0,0,0,0,0,0,0.000,0,0,0.057,0.009,0.000,-0.040,0.040,0.014,0.994,0.011,-0.008,0.004,0.000,0.000,0.000,0.000,0.000,0,2,0,3,7,255,1440,300,0,0,-89.478,0.602,-31.190
EX0521-092111,6,C23,prep,390,390,0,484389.092,0.685,-0.677,0.193,0.187,0,0,0,0,0,0,0,0,0,0.000,0,0,0.207,0.007,-0.180,-0.100,-0.020,0.014,0.993,0.012,-0.006,0.004,0.000,0.000,0.000,0.000,0.000,0,2,0,3,7,255,1440,300,0,0,-89.478,0.602,-31.190
EX0521-092111,6,C23,prep,390,390,0,484394.092,0.685,-0.677,0.193,0.187,0,0,0,0,0,0,0,0,0,0.000,0,0,0.075,0.004,0.060,-0.040,-0.020,0.015,0.994,0.012,0.002,-0.004,0.000,0.000,0.000,0.000,0.000,0,2,0,3,7,255,1440,300,0,0,-89.478,0.601,-31.190
EX0521-092111,6,C23,prep,390,390,0,484399.092,0.685,-0.677,0.193,0.187,0,0,0,0,0,0,0,0,0,0.000,0,0,0.102,0.007,0.060,0.020,-0.080,0.015,0.995,0.010,0.006,-0.004,0.000,0.000,0.000,0.000,0.000,0,2,0,3,7,255,1440,300,0,0,-89.479,0.601,-31.190
EX0521-092111,6,C23,prep,390,390,0,484404.093,0.685,-0.677,0.193,0.187,0,0,0,0,0,0,0,0,0,0.000,0,0,0.189,0.006,-0.180,-0.040,0.040,0.015,0.995,0.011,0.006,0.002,0.008,0.000,0.000,0.000,0.000,0,2,0,3,7,255,1440,300,0,0,-89.479,0.601,-31.190
EX0521-092111,6,C23,prep,390,390,0,484409.091,0.685,-0.677,0.193,0.187,0,0,0,0,0,0,0,0,0,0.000,0,0,0.108,0.004,0.060,-0.040,-0.080,0.015,0.995,0.013,0.004,0.002,0.008,0.000,0.000,0.000,0.000,0,2,0,3,7,255,1440,300,0,0,-89.479,0.601,-31.190
EX0521-092111,6,C23,prep,390,390,0,484414.092,0.685,-0.677,0.193,0.187,0,0,0,0,0,0,0,0,0,0.000,0,0,0.150,0.003,0.120,-0.040,-0.080,0.014,0.994,0.011,-0.002,0.002,0.008,0.000,0.000,0.000,0.000,0,2,0,3,7,255,1440,300,0,0,-89.479,0.601,-31.190
EX0521-092111,6,C23,prep,390,390,0,484419.092,0.685,-0.677,0.193,0.187,0,0,0,0,0,0,0,0,0,0.000,0,0,0.207,0.002,-0.180,-0.100,-0.020,0.015,0.994,0.011,-0.002,0.000,0.004,0.000,0.000,0.000,0.000,0,2,0,3,7,255,1440,300,0,0,-89.480,0.601,-31.190
EX0521-092111,6,C23,prep,390,390,0,484424.092,0.685,-0.677,0.193,0.187,0,0,0,0,0,0,0,0,0,0.000,0,0,0.128,0.002,0.000,-0.100,-0.080,0.014,0.994,0.012,-0.002,0.000,0.000,0.000,0.000,0.000,0.000,0,2,0,3,7,255,1440,300,0,0,-89.480,0.600,-31.190
EX0521-092111,6,C23,prep,390,390,0,484429.092,0.685,-0.677,0.193,0.187,0,0,0,0,0,0,0,0,0,0.000,0,0,0.175,0.004,0.120,-0.100,-0.080,0.014,0.994,0.011,-0.004,0.000,0.000,0.000,0.000,0.000,0.000,0,2,0,3,7,255,1440,300,0,0,-89.480,0.600,-31.190
EX0521-092111,6,C23,prep,390,390,0,484434.091,0.685,-0.677,0.193,0.187,0,0,0,0,0,0,0,0,0,0.000,0,0,0.128,0.004,-0.120,-0.040,-0.020,0.015,0.995,0.011,-0.004,0.002,0.000,0.000,0.000,0.000,0.000,0,2,0,3,7,255,1440,300,0,0,-89.480,0.600,-31.190
EX0521-092111,6,C23,prep,399,399,0,484439.092,0.685,-0.677,0.193,0.187,0,0,0,0,0,0,0,0,0,0.000,0,0,0.128,0.009,-0.120,-0.040,-0.020,0.013,0.994,0.012,-0.004,0.008,0.000,0.000,0.000,0.000,0.000,0,2,0,3,7,255,1440,300,0,0,-89.481,0.600,-31.190
EX0521-092111,6,C23,prep,399,399,0,484444.092,0.685,-0.677,0.193,0.187,0,0,0,0,0,0,0,0,0,0.000,0,0,0.150,0.003,0.120,-0.040,-0.080,0.015,0.994,0.012,0.002,0.002,0.000,0.000,0.000,0.000,0.000,0,2,0,3,7,255,1440,300,0,0,-89.481,0.600,-31.190
EX0521-092111,6,C23,prep,426,426,0,484449.092,0.685,-0.677,0.193,0.187,0,0,0,0,0,0,0,0,0,0.000,0,0,0.102,0.006,-0.060,0.020,-0.080,0.015,0.994,0.011,0.002,0.006,0.000,0.000,0.000,0.000,0.000,0,2,0,3,7,255,1440,300,0,0,-89.481,0.599,-31.190
EX0521-092111,6,C23,prep,426,426,0,484454.092,0.685,-0.677,0.193,0.187,0,0,0,0,0,0,0,0,0,0.000,0,0,0.157,0.006,-0.120,-0.100,-0.020,0.015,0.993,0.011,0.006,0.000,0.000,0.000,0.000,0.000,0.000,0,2,0,3,7,255,1440,300,0,0,-89.481,0.599,-31.190
EX0521-092111,6,C23,prep,427,427,0,484459.092,0.685,-0.677,0.193,0.187,0,0,0,0,0,0,0,0,0,0.000,0,0,0.133,0.006,0.120,-0.040,0.040,0.015,0.994,0.012,0.006,0.000,0.000,0.000,0.000,0.000,0.000,0,2,0,3,7,255,1440,300,0,0,-89.482,0.599,-31.190
EX0521-092111,6,C23,prep,427,427,0,484464.091,0.685,-0.677,0.193,0.187,0,0,0,0,0,0,0,0,0,0.000,0,0,0.075,0.006,0.060,-0.040,-0.020,0.014,0.994,0.011,0.006,0.000,0.000,0.000,0.000,0.000,0.000,0,2,0,3,7,255,1440,300,0,0,-89.482,0.599,-31.190
EX0521-092111,6,C23,prep,428,428,0,484469.091,0.685,-0.677,0.193,0.187,0,0,0,0,0,0,0,0,0,0.000,0,0,0.189,0.004,-0.180,-0.040,0.040,0.013,0.994,0.013,0.002,-0.004,0.004,0.000,0.000,0.000,0.000,0,2,0,3,7,255,1440,300,0,0,-89.482,0.599,-31.190
EX0521-092111,6,C23,prep,428,428,0,484474.091,0.685,-0.677,0.193,0.187,0,0,0,0,0,0,0,0,0,0.000,0,0,0.075,0.004,0.060,-0.040,-0.020,0.015,0.993,0.012,0.002,-0.004,0.004,0.000,0.000,0.000,0.000,0,2,0,3,7,255,1440,300,0,0,-89.482,0.599,-31.190
EX0521-092111,6,C23,prep,458,458,0,484479.092,0.685,-0.677,0.193,0.187,0,0,0,0,0,0,0,0,0,0.000,0,0,0.102,0.006,0.060,0.020,-0.080,0.013,0.994,0.010,-0.004,-0.004,0.000,0.000,0.000,0.000,0.000,0,2,0,3,7,255,1440,300,0,0,-89.483,0.598,-31.190
EX0521-092111,6,C23,prep,458,458,0,484484.092,0.685,-0.677,0.193,0.187,0,0,0,0,0,0,0,0,0,0.000,0,0,0.123,0.006,-0.060,-0.100,0.040,0.015,0.994,0.011,0.006,-0.002,0.000,0.000,0.000,0.000,0.000,0,2,0,3,7,255,1440,300,0,0,-89.483,0.598,-31.190
EX0521-092111,6,C23,prep,463,463,0,484489.092,0.685,-0.677,0.193,0.187,0,0,0,0,0,0,0,0,0,0.000,0,0,0.108,0.003,-0.060,-0.040,-0.080,0.015,0.994,0.012,0.002,-0.002,0.000,0.000,0.000,0.000,0.000,0,2,0,3,7,255,1440,300,0,0,-89.483,0.598,-31.190
EX0521-092111,6,C23,prep,463,463,0,484494.091,0.685,-0.677,0.193,0.187,0,0,0,0,0,0,0,0,0,0.000,0,0,0.128,0.003,0.120,-0.040,-0.020,0.014,0.994,0.011,0.002,-0.002,0.000,0.000,0.000,0.000,0.000,0,2,0,3,7,255,1440,300,0,0,-89.483,0.598,-31.190
EX0521-092111,6,C23,prep,463,463,0,484499.092,0.685,-0.677,0.193,0.187,0,0,0,0,0,0,0,0,0,0.000,0,0,0.075,0.004,-0.060,-0.040,-0.020,0.014,0.995,0.010,0.002,0.004,0.004,0.000,0.000,0.000,0.000,0,2,0,3,7,255,1440,300,0,0,-89.484,0.598,-31.190
EX0521-092111,6,C23,prep,463,463,0,484504.093,0.685,-0.677,0.193,0.187,0,0,0,0,0,0,0,0,0,0.000,0,0,0.207,0.004,-0.180,-0.100,-0.020,0.015,0.993,0.011,0.002,0.004,0.000,0.000,0.000,0.000,0.000,0,2,0,3,7,255,1440,300,0,0,-89.484,0.597,-31.190
EX0521-092111,6,C23,prep,464,464,0,484509.092,0.685,-0.677,0.193,0.187,0,0,0,0,0,0,0,0,0,0.000,0,0,0.128,0.002,0.120,-0.040,-0.020,0.014,0.995,0.012,0.002,0.000,0.008,0.000,0.000,0.000,0.000,0,2,0,3,7,255,1440,300,0,0,-89.484,0.597,-31.190
EX0521-092111,6,C23,prep,464,464,0,484514.092,0.685,-0.677,0.193,0.187,0,0,0,0,0,0,0,0,0,0.000,0,0,0.045,0.002,0.000,-0.040,-0.020,0.014,0.994,0.011,-0.002,0.000,0.004,0.000,0.000,0.000,0.000,0,2,0,3,7,255,1440,300,0,0,-89.484,0.597,-31.190
EX0521-092111,6,C23,prep,479,479,0,484519.092,0.685,-0.677,0.193,0.187,0,0,0,0,0,0,0,0,0,0.000,0,0,0.150,0.002,-0.120,-0.040,-0.080,0.015,0.993,0.012,-0.002,0.000,0.004,0.000,0.000,0.000,0.000,0,2,0,3,7,255,1440,300,0,0,-89.485,0.597,-31.190
EX0521-092111,6,C23,prep,479,479,0,484524.091,0.685,-0.677,0.193,0.187,0,0,0,0,0,0,0,0,0,0.000,0,0,0.128,0.003,0.120,-0.040,-0.020,0.015,0.994,0.011,0.002,0.002,0.004,0.000,0.000,0.000,0.000,0,2,0,3,7,255,1440,300,0,0,-89.485,0.597,-31.190
EX0521-092111,6,C23,prep,496,496,0,484529.091,0.685,-0.677,0.193,0.187,0,0,0,0,0,0,0,0,0,0.000,0,0,0.045,0.004,0.000,-0.040,-0.020,0.015,0.995,0.011,0.004,0.000,0.004,0.000,0.000,0.000,0.000,0,2,0,3,7,255,1440,300,0,0,-89.485,0.596,-31.190
EX0521-092111,6,C23,prep,496,496,0,484534.091,0.685,-0.677,0.193,0.187,0,0,0,0,0,0,0,0,0,0.000,0,0,0.075,0.004,-0.060,-0.040,-0.020,0.014,0.995,0.012,0.004,0.000,0.008,0.000,0.000,0.000,0.000,0,2,0,3,7,255,1440,300,0,0,-89.485,0.596,-31.190
EX0521-092111,6,C23,prep,498,498,0,484539.092,0.685,-0.677,0.193,0.187,0,0,0,0,0,0,0,0,0,0.000,0,0,0.045,0.006,0.000,-0.040,-0.020,0.013,0.994,0.012,-0.006,0.000,0.008,0.000,0.000,0.000,0.000,0,2,0,3,7,255,1440,300,0,0,-89.486,0.596,-31.190
EX0521-092111,6,C23,prep,498,498,0,484544.092,0.685,-0.677,0.193,0.187,0,0,0,0,0,0,0,0,0,0.000,0,0,0.066,0.006,0.060,0.020,-0.020,0.016,0.994,0.011,-0.006,0.000,0.004,0.000,0.000,0.000,0.000,0,2,0,3,7,255,1440,300,0,0,-89.486,0.597,-31.190
EX0521-092111,6,C23,prep,511,511,0,484549.092,0.685,-0.677,0.193,0.187,0,0,0,0,0,0,0,0,0,0.000,0,0,0.157,0.014,-0.120,-0.100,-0.020,0.016,0.994,0.011,0.014,0.000,0.004,0.000,0.000,0.000,0.000,0,2,0,3,7,255,1440,300,0,0,-89.486,0.599,-31.190
EX0521-092111,6,C23,prep,511,511,0,484554.091,0.685,-0.677,0.193,0.187,0,0,0,0,0,0,0,0,0,0.000,0,0,0.075,0.014,-0.060,-0.040,-0.020,0.015,0.994,0.011,0.014,0.000,0.004,0.000,0.000,0.000,0.000,0,2,0,3,7,255,1440,300,0,0,-89.486,0.599,-31.190
EX0521-092111,6,C23,prep,543,543,0,484559.092,0.685,-0.677,0.193,0.187,0,0,0,0,0,0,0,0,0,0.000,0,0,0.123,0.004,0.120,0.020,-0.020,0.014,0.993,0.010,0.004,0.000,-0.002,0.000,0.000,0.000,0.000,0,2,0,3,7,255,1440,300,0,0,-89.487,0.598,-31.190
EX0521-092111,6,C23,prep,543,543,0,484564.093,0.685,-0.677,0.193,0.187,0,0,0,0,0,0,0,0,0,0.000,0,0,0.066,0.002,-0.060,0.020,-0.020,0.015,0.994,0.011,0.002,0.000,-0.002,0.000,0.000,0.000,0.000,0,2,0,3,7,255,1440,300,0,0,-89.487,0.598,-31.190
EX0521-092111,6,C23,prep,543,543,0,484569.092,0.685,-0.677,0.193,0.187,0,0,0,0,0,0,0,0,0,0.000,0,0,0.066,0.002,-0.060,0.020,-0.020,0.015,0.994,0.011,0.002,0.000,-0.002,0.000,0.000,0.000,0.000,0,2,0,3,7,255,1440,300,0,0,-89.487,0.598,-31.190
EX0521-092111,6,C23,prep,543,543,0,484574.092,0.685,-0.677,0.193,0.187,0,0,0,0,0,0,0,0,0,0.000,0,0,0.075,0.002,0.060,-0.040,-0.020,0.014,0.993,0.011,0.002,0.000,-0.002,0.000,0.000,0.000,0.000,0,2,0,3,7,255,1440,300,0,0,-89.487,0.598,-31.190
EX0521-092111,6,C23,prep,565,565,0,484579.092,0.685,-0.677,0.193,0.187,0,0,0,0,0,0,0,0,0,0.000,0,0,0.075,0.003,-0.060,-0.040,-0.020,0.015,0.995,0.010,0.002,0.002,-0.002,0.000,0.000,0.000,0.000,0,2,0,3,7,255,1440,300,0,0,-89.488,0.598,-31.190
EX0521-092111,6,C23,prep,565,565,0,484584.091,0.685,-0.677,0.193,0.187,0,0,0,0,0,0,0,0,0,0.000,0,0,0.118,0.003,-0.060,-0.100,-0.020,0.014,0.995,0.012,-0.002,0.002,0.014,0.000,0.000,0.000,0.000,0,2,0,3,7,255,1440,300,0,0,-89.488,0.597,-31.190
EX0521-092111,6,C23,prep,566,566,0,484589.091,0.685,-0.677,0.193,0.187,0,0,0,0,0,0,0,0,0,0.000,0,0,0.045,0.007,0.000,-0.040,-0.020,0.015,0.995,0.012,0.004,-0.006,0.014,0.000,0.000,0.000,0.000,0,2,0,3,7,255,1440,300,0,0,-89.488,0.597,-31.190
EX0521-092111,6,C23,prep,566,566,0,484594.091,0.685,-0.677,0.193,0.187,0,0,0,0,0,0,0,0,0,0.000,0,0,0.102,0.006,0.000,-0.100,-0.020,0.014,0.994,0.010,0.000,-0.006,0.014,0.000,0.000,0.000,0.000,0,2,0,3,7,255,1440,300,0,0,-89.488,0.597,-31.190
EX0521-092111,6,C23,prep,567,567,0,484599.092,0.685,-0.677,0.193,0.187,0,0,0,0,0,0,0,0,0,0.000,0,0,0.157,0.006,-0.120,-0.100,-0.020,0.014,0.995,0.012,0.000,-0.006,0.008,0.000,0.000,0.000,0.000,0,2,0,3,7,255,1440,300,0,0,-89.489,0.597,-31.190
EX0521-092111,6,C23,prep,567,567,0,484604.093,0.685,-0.677,0.193,0.187,0,0,0,0,0,0,0,0,0,0.000,0,0,0.089,0.003,0.000,-0.040,-0.080,0.014,0.994,0.011,-0.002,0.002,0.004,0.000,0.000,0.000,0.000,0,2,0,3,7,255,1440,300,0,0,-89.489,0.597,-31.190
EX0521-092111,6,C23,prep,607,607,0,484609.092,0.685,-0.677,0.193,0.187,0,0,0,0,0,0,0,0,0,0.000,0,0,0.075,0.003,0.060,-0.040,-0.020,0.014,0.994,0.011,-0.002,0.002,0.004,0.000,0.000,0.000,0.000,0,2,0,3,7,255,1440,300,0,0,-89.489,0.597,-31.190
EX0521-092111,6,C23,prep,607,607,0,484614.091,0.685,-0.677,0.193,0.187,0,0,0,0,0,0,0,0,0,0.000,0,0,0.128,0.003,-0.120,-0.040,-0.020,0.015,0.993,0.010,-0.002,0.002,-0.002,0.000,0.000,0.000,0.000,0,2,0,3,7,255,1440,300,0,0,-89.489,0.596,-31.190
EX0521-092111,6,C23,prep,607,607,0,484619.091,0.685,-0.677,0.193,0.187,0,0,0,0,0,0,0,0,0,0.000,0,0,0.045,0.008,0.000,-0.040,-0.020,0.016,0.994,0.011,0.008,0.002,-0.002,0.000,0.000,0.000,0.000,0,2,0,3,7,255,1440,300,0,0,-89.490,0.598,-31.190
EX0521-092111,6,C23,prep,607,607,0,484624.091,0.685,-0.677,0.193,0.187,0,0,0,0,0,0,0,0,0,0.000,0,0,0.075,0.009,0.060,-0.040,-0.020,0.014,0.994,0.011,0.008,0.004,-0.002,0.000,0.000,0.000,0.000,0,2,0,3,7,255,1440,300,0,0,-89.490,0.597,-31.190
EX0521-092111,6,C23,prep,607,607,0,484629.092,0.685,-0.677,0.193,0.187,0,0,0,0,0,0,0,0,0,0.000,0,0,0.108,0.010,-0.060,-0.040,-0.080,0.016,0.994,0.011,0.010,-0.002,-0.002,0.000,0.000,0.000,0.000,0,2,0,3,7,255,1440,300,0,0,-89.490,0.599,-31.190
EX0521-092111,6,C23,prep,607,607,0,484634.092,0.685,-0.677,0.193,0.187,0,0,0,0,0,0,0,0,0,0.000,0,0,0.075,0.002,-0.060,-0.040,-0.020,0.015,0.993,0.011,0.002,0.000,-0.002,0.000,0.000,0.000,0.000,0,2,0,3,7,255,1440,300,0,0,-89.490,0.599,-31.190
EX0521-092111,6,C23,prep,607,607,0,484639.092,0.685,-0.677,0.193,0.187,0,0,0,0,0,0,0,0,0,0.000,0,0,0.089,0.006,0.000,-0.040,-0.080,0.015,0.993,0.011,0.006,-0.002,-0.006,0.000,0.000,0.000,0.000,0,2,0,3,7,255,1440,300,0,0,-89.491,0.598,-31.190
EX0521-092111,6,C23,prep,607,607,0,484644.091,0.685,-0.677,0.193,0.187,0,0,0,0,0,0,0,0,0,0.000,0,0,0.045,0.006,0.000,-0.040,-0.020,0.015,0.993,0.011,0.006,0.000,-0.006,0.000,0.000,0.000,0.000,0,2,0,3,7,255,1440,300,0,0,-89.491,0.598,-31.190
EX0521-092111,6,C23,prep,607,607,0,484649.092,0.685,-0.677,0.193,0.187,0,0,0,0,0,0,0,0,0,0.000,0,0,0.075,0.006,-0.060,-0.040,-0.020,0.014,0.995,0.012,0.006,-0.002,-0.006,0.000,0.000,0.000,0.000,0,2,0,3,7,255,1440,300,0,0,-89.491,0.598,-31.190
EX0521-092111,6,C23,prep,607,607,0,484654.091,0.685,-0.677,0.193,0.187,0,0,0,0,0,0,0,0,0,0.000,0,0,0.075,0.003,0.060,-0.040,-0.020,0.014,0.995,0.011,-0.002,0.002,0.008,0.000,0.000,0.000,0.000,0,2,0,3,7,255,1440,300,0,0,-89.491,0.598,-31.190
EX0521-092111,6,C23,prep,623,623,0,484659.092,0.685,-0.677,0.193,0.187,0,0,0,0,0,0,0,0,0,0.000,0,0,0.045,0.003,0.000,-0.040,-0.020,0.014,0.994,0.011,-0.002,0.002,0.008,0.000,0.000,0.000,0.000,0,2,0,3,7,255,1440,300,0,0,-89.492,0.598,-31.190
EX0521-092111,6,C23,prep,623,623,0,484664.092,0.685,-0.677,0.193,0.187,0,0,0,0,0,0,0,0,0,0.000,0,0,0.108,0.002,-0.060,-0.040,-0.080,0.015,0.994,0.012,0.000,0.002,-0.002,0.000,0.000,0.000,0.000,0,2,0,3,7,255,1440,300,0,0,-89.492,0.598,-31.190
EX0521-092111,6,C23,prep,639,639,0,484669.092,0.685,-0.677,0.193,0.187,0,0,0,0,0,0,0,0,0,0.000,0,0,0.045,0.002,0.000,-0.040,-0.020,0.014,0.995,0.011,0.000,0.002,-0.002,0.000,0.000,0.000,0.000,0,2,0,3,7,255,1440,300,0,0,-89.492,0.597,-31.190
EX0521-092111,6,C23,prep,639,639,0,484674.092,0.685,-0.677,0.193,0.187,0,0,0,0,0,0,0,0,0,0.000,0,0,0.089,0.004,0.000,-0.040,-0.080,0.015,0.993,0.011,0.000,-0.004,-0.002,0.000,0.000,0.000,0.000,0,2,0,3,7,255,1440,300,0,0,-89.492,0.597,-31.190
EX0521-092111,6,C23,prep,639,639,0,484679.091,0.685,-0.677,0.193,0.187,0,0,0,0,0,0,0,0,0,0.000,0,0,0.075,0.002,-0.060,-0.040,-0.020,0.014,0.993,0.011,0.000,0.002,-0.006,0.000,0.000,0.000,0.000,0,2,0,3,7,255,1440,300,0,0,-89.493,0.597,-31.190
EX0521-092111,6,C23,prep,639,639,0,484684.091,0.685,-0.677,0.193,0.187,0,0,0,0,0,0,0,0,0,0.000,0,0,0.102,0.004,0.000,-0.100,-0.020,0.015,0.995,0.013,0.000,-0.004,-0.006,0.000,0.000,0.000,0.000,0,2,0,3,7,255,1440,300,0,0,-89.493,0.597,-31.190
EX0521-092111,6,C23,prep,671,671,0,484689.092,0.685,-0.677,0.193,0.187,0,0,0,0,0,0,0,0,0,0.000,0,0,0.089,0.004,0.000,-0.040,-0.080,0.015,0.993,0.011,0.000,-0.004,-0.006,0.000,0.000,0.000,0.000,0,2,0,3,7,255,1440,300,0,0,-89.493,0.597,-31.190
EX0521-092111,6,C23,prep,671,671,0,484694.092,0.685,-0.677,0.193,0.187,0,0,0,0,0,0,0,0,0,0.000,0,0,0.075,0.004,-0.060,-0.040,-0.020,0.015,0.995,0.011,0.002,-0.004,0.012,0.000,0.000,0.000,0.000,0,2,0,3,7,255,1440,300,0,0,-89.493,0.596,-31.190
EX0521-092111,6,C23,prep,671,671,0,484699.093,0.685,-0.677,0.193,0.187,0,0,0,0,0,0,0,0,0,0.000,0,0,0.075,0.002,-0.060,-0.040,-0.020,0.015,0.994,0.011,0.002,0.000,0.004,0.000,0.000,0.000,0.000,0,2,0,3,7,255,1440,300,0,0,-89.494,0.596,-31.190
EX0521-092111,6,C23,prep,671,671,0,484704.093,0.685,-0.677,0.193,0.187,0,0,0,0,0,0,0,0,0,0.000,0,0,0.045,0.002,0.000,-0.040,-0.020,0.015,0.995,0.011,0.002,0.000,0.008,0.000,0.000,0.000,0.000,0,2,0,3,7,255,1440,300,0,0,-89.494,0.596,-31.190
EX0521-092111,6,C23,prep,671,671,0,484709.091,0.685,-0.677,0.193,0.187,0,0,0,0,0,0,0,0,0,0.000,0,0,0.040,0.004,0.000,-0.040,0.000,0.015,0.994,0.011,0.004,0.000,0.004,0.000,0.000,0.000,0.000,0,2,0,3,7,255,1440,300,0,0,-89.494,0.596,-31.190
EX0521-092111,6,C23,prep,671,671,0,484714.091,0.685,-0.677,0.193,0.187,0,0,0,0,0,0,0,0,0,0.000,0,0,0.072,0.004,-0.060,-0.040,0.000,0.015,0.994,0.011,0.004,0.000,0.004,0.000,0.000,0.000,0.000,0,2,0,3,7,255,1440,300,0,0,-89.494,0.596,-31.190
EX0521-092111,6,C23,prep,698,698,0,484719.091,0.685,-0.677,0.193,0.187,0,0,0,0,0,0,0,0,0,0.000,0,0,0.040,0.002,0.000,-0.040,0.000,0.014,0.994,0.012,0.002,0.000,-0.002,0.000,0.000,0.000,0.000,0,2,0,3,7,255,1440,300,0,0,-89.495,0.596,-31.190
EX0521-092111,6,C23,prep,698,698,0,484724.092,0.685,-0.677,0.193,0.187,0,0,0,0,0,0,0,0,0,0.000,0,0,0.072,0.002,0.060,-0.040,0.000,0.016,0.994,0.012,0.002,0.000,0.004,0.000,0.000,0.000,0.000,0,2,0,3,7,255,1440,300,0,0,-89.495,0.597,-31.190
EX0521-092111,6,C23,prep,699,699,0,484729.092,0.685,-0.677,0.193,0.187,0,0,0,0,0,0,0,0,0,0.000,0,0,0.117,0.012,-0.060,-0.100,0.000,0.015,0.995,0.013,-0.006,-0.010,0.004,0.000,0.000,0.000,0.000,0,2,0,3,7,255,1440,300,0,0,-89.495,0.597,-31.190
EX0521-092111,6,C23,prep,699,699,0,484734.092,0.685,-0.677,0.193,0.187,0,0,0,0,0,0,0,0,0,0.000,0,0,0.072,0.012,0.060,-0.040,0.000,0.014,0.995,0.012,-0.006,-0.010,0.008,0.000,0.000,0.000,0.000,0,2,0,3,7,255,1440,300,0,0,-89.495,0.596,-31.190
EX0521-092111,6,C23,prep,700,700,0,484739.092,0.685,-0.677,0.193,0.187,0,0,0,0,0,0,0,0,0,0.000,0,0,0.072,0.008,0.000,-0.040,-0.060,0.016,0.993,0.011,-0.006,-0.006,0.008,0.000,0.000,0.000,0.000,0,2,0,3,7,255,1440,300,0,0,-89.496,0.598,-31.190
EX0521-092111,6,C23,prep,700,700,0,484744.091,0.685,-0.677,0.193,0.187,0,0,0,0,0,0,0,0,0,0.000,0,0,0.117,0.007,-0.060,-0.100,0.000,0.015,0.994,0.012,0.004,-0.006,-0.002,0.000,0.000,0.000,0.000,0,2,0,3,7,255,1440,300,0,0,-89.496,0.598,-31.190
EX0521-092111,6,C23,prep,703,703,0,484749.092,0.685,-0.677,0.193,0.187,0,0,0,0,0,0,0,0,0,0.000,0,0,0.063,0.009,-0.060,0.020,0.000,0.015,0.993,0.012,0.004,-0.008,-0.006,0.000,0.000,0.000,0.000,0,2,0,3,7,255,1440,300,0,0,-89.496,0.597,-31.190
EX0521-092111,6,C23,prep,703,703,0,484754.092,0.685,-0.677,0.193,0.187,0,0,0,0,0,0,0,0,0,0.000,0,0,0.117,0.009,0.060,-0.100,0.000,0.015,0.995,0.011,0.004,-0.008,-0.002,0.000,0.000,0.000,0.000,0,2,0,3,7,255,1440,300,0,0,-89.496,0.597,-31.190
EX0521-092111,6,C23,prep,725,725,0,484759.092,0.685,-0.677,0.193,0.187,0,0,0,0,0,0,0,0,0,0.000,0,0,0.075,0.002,-0.060,-0.040,-0.020,0.014,0.994,0.011,0.002,0.000,-0.002,0.000,0.000,0.000,0.000,0,2,0,3,7,255,1440,300,0,0,-89.497,0.597,-31.190
EX0521-092111,6,C23,prep,725,725,0,484764.093,0.685,-0.677,0.193,0.187,0,0,0,0,0,0,0,0,0,0.000,0,0,0.066,0.002,-0.060,0.020,-0.020,0.015,0.994,0.011,0.002,0.000,0.004,0.000,0.000,0.000,0.000,0,2,0,3,7,255,1440,300,0,0,-89.497,0.597,-31.190
EX0521-092111,6,C23,prep,726,726,0,484769.091,0.685,-0.677,0.193,0.187,0,0,0,0,0,0,0,0,0,0.000,0,0,0.045,0.002,0.000,-0.040,-0.020,0.015,0.994,0.012,0.002,0.000,0.004,0.000,0.000,0.000,0.000,0,2,0,3,7,255,1440,300,0,0,-89.497,0.597,-31.190
EX0521-092111,6,C23,prep,726,726,0,484774.091,0.685,-0.677,0.193,0.187,0,0,0,0,0,0,0,0,0,0.000,0,0,0.108,0.002,-0.060,-0.040,-0.080,0.014,0.995,0.011,0.002,0.000,0.004,0.000,0.000,0.000,0.000,0,2,0,3,7,255,1440,300,0,0,-89.497,0.596,-31.190
EX0521-092111,6,C23,prep,735,735,0,484779.092,0.685,-0.677,0.193,0.187,0,0,0,0,0,0,0,0,0,0.000,0,0,0.057,0.004,0.000,-0.040,0.040,0.014,0.994,0.011,0.000,0.004,0.004,0.000,0.000,0.000,0.000,0,2,0,3,7,255,1440,300,0,0,-89.498,0.596,-31.190
EX0521-092111,6,C23,prep,735,735,0,484784.092,0.685,-0.677,0.193,0.187,0,0,0,0,0,0,0,0,0,0.000,0,0,0.075,0.007,0.060,-0.040,-0.020,0.014,0.994,0.011,-0.004,0.006,0.002,0.000,0.000,0.000,0.000,0,2,0,3,7,255,1440,300,0,0,-89.498,0.596,-31.190
EX0521-092111,6,C23,prep,767,767,0,484789.092,0.685,-0.677,0.193,0.187,0,0,0,0,0,0,0,0,0,0.000,0,0,0.045,0.006,0.000,-0.040,-0.020,0.016,0.994,0.010,-0.004,0.004,-0.002,0.000,0.000,0.000,0.000,0,2,0,3,7,255,1440,300,0,0,-89.498,0.597,-31.190
EX0521-092111,6,C23,prep,767,767,0,484794.092,0.685,-0.677,0.193,0.187,0,0,0,0,0,0,0,0,0,0.000,0,0,0.150,0.006,-0.120,-0.040,-0.080,0.015,0.994,0.011,0.006,0.002,0.002,0.000,0.000,0.000,0.000,0,2,0,3,7,255,1440,300,0,0,-89.498,0.597,-31.190
EX0521-092111,6,C23,prep,767,767,0,484799.093,0.685,-0.677,0.193,0.187,0,0,0,0,0,0,0,0,0,0.000,0,0,0.045,0.006,0.000,-0.040,-0.020,0.014,0.994,0.011,0.006,0.002,-0.002,0.000,0.000,0.000,0.000,0,2,0,3,7,255,1440,300,0,0,-89.499,0.597,-31.190
EX0521-092111,6,C23,prep,767,767,0,484804.093,0.685,-0.677,0.193,0.187,0,0,0,0,0,0,0,0,0,0.000,0,0,0.045,0.006,0.000,-0.040,-0.020,0.014,0.994,0.010,0.002,0.006,0.002,0.000,0.000,0.000,0.000,0,2,0,3,7,255,1440,300,0,0,-89.499,0.597,-31.190
EX0521-092111,6,C23,prep,767,767,0,484809.091,0.685,-0.677,0.193,0.187,0,0,0,0,0,0,0,0,0,0.000,0,0,0.045,0.006,0.000,-0.040,-0.020,0.016,0.993,0.011,0.002,0.006,-0.002,0.000,0.000,0.000,0.000,0,2,0,3,7,255,1440,300,0,0,-89.499,0.598,-31.190
EX0521-092111,6,C23,prep,767,767,0,484814.092,0.685,-0.677,0.193,0.187,0,0,0,0,0,0,0,0,0,0.000,0,0,0.045,0.003,0.000,-0.040,-0.020,0.015,0.993,0.012,0.002,-0.002,-0.006,0.000,0.000,0.000,0.000,0,2,0,3,7,255,1440,300,0,0,-89.499,0.598,-31.190
EX0521-092111,6,C23,prep,796,796,0,484819.092,0.685,-0.677,0.193,0.187,0,0,0,0,0,0,0,0,0,0.000,0,0,0.089,0.003,0.000,-0.040,-0.080,0.014,0.995,0.011,-0.002,-0.002,-0.006,0.000,0.000,0.000,0.000,0,2,0,3,7,255,1440,300,0,0,-89.500,0.598,-31.190
EX0521-092111,6,C23,prep,796,796,0,484824.092,0.685,-0.677,0.193,0.187,0,0,0,0,0,0,0,0,0,0.000,0,0,0.108,0.004,-0.060,-0.040,-0.080,0.014,0.994,0.011,-0.004,0.002,0.002,0.000,0.000,0.000,0.000,0,2,0,3,7,255,1440,300,0,0,-89.500,0.598,-31.190
EX0521-092111,6,C23,prep,798,798,0,484829.091,0.685,-0.677,0.193,0.187,0,0,0,0,0,0,0,0,0,0.000,0,0,0.045,0.004,0.000,-0.040,-0.020,0.014,0.994,0.011,-0.004,0.002,0.002,0.000,0.000,0.000,0.000,0,2,0,3,7,255,1440,300,0,0,-89.500,0.597,-31.190
EX0521-092111,6,C23,prep,798,798,0,484834.091,0.685,-0.677,0.193,0.187,0,0,0,0,0,0,0,0,0,0.000,0,0,0.045,0.004,0.000,-0.040,-0.020,0.013,0.994,0.012,-0.004,0.002,0.002,0.000,0.000,0.000,0.000,0,2,0,3,7,255,1440,300,0,0,-89.500,0.597,-31.190
EX0521-092111,6,C23,prep,799,799,0,484839.092,0.685,-0.677,0.193,0.187,0,0,0,0,0,0,0,0,0,0.000,0,0,0.089,0.009,0.000,-0.040,-0.080,0.014,0.995,0.011,-0.008,0.004,0.002,0.000,0.000,0.000,0.000,0,2,0,3,7,255,1440,300,0,0,-89.501,0.597,-31.190
EX0521-092111,6,C23,prep,799,799,0,484844.092,0.685,-0.677,0.193,0.187,0,0,0,0,0,0,0,0,0,0.000,0,0,0.045,0.010,0.000,-0.040,-0.020,0.014,0.994,0.012,-0.010,0.000,0.002,0.000,0.000,0.000,0.000,0,2,0,3,7,255,1440,300,0,0,-89.501,0.597,-31.190
EX0521-092111,6,C23,prep,834,834,0,484849.092,0.685,-0.677,0.193,0.187,0,0,0,0,0,0,0,0,0,0.000,0,0,0.082,0.008,-0.060,-0.040,0.040,0.016,0.994,0.010,-0.008,0.002,-0.002,0.000,0.000,0.000,0.000,0,2,0,3,7,255,1440,300,0,0,-89.501,0.598,-31.190
EX0521-092111,6,C23,prep,834,834,0,484854.092,0.685,-0.677,0.193,0.187,0,0,0,0,0,0,0,0,0,0.000,0,0,0.057,0.002,0.000,-0.040,0.040,0.014,0.994,0.011,0.000,0.002,-0.002,0.000,0.000,0.000,0.000,0,2,0,3,7,255,1440,300,0,0,-89.501,0.598,-31.190
EX0521-092111,6,C23,prep,834,834,0,484859.092,0.685,-0.677,0.193,0.187,0,0,0,0,0,0,0,0,0,0.000,0,0,0.108,0.004,-0.060,-0.040,-0.080,0.014,0.994,0.011,0.000,0.004,-0.002,0.000,0.000,0.000,0.000,0,2,0,3,7,255,1440,300,0,0,-89.502,0.598,-31.190
EX0521-092111,6,C23,prep,834,834,0,484864.091,0.685,-0.677,0.193,0.187,0,0,0,0,0,0,0,0,0,0.000,0,0,0.045,0.004,0.000,-0.040,-0.020,0.016,0.994,0.012,0.000,0.004,0.002,0.000,0.000,0.000,0.000,0,2,0,3,7,255,1440,300,0,0,-89.502,0.599,-31.190
EX0521-092111,6,C23,prep,836,836,0,484869.091,0.685,-0.677,0.193,0.187,0,0,0,0,0,0,0,0,0,0.000,0,0,0.045,0.007,0.000,-0.040,-0.020,0.015,0.994,0.010,0.006,0.004,-0.002,0.000,0.000,0.000,0.000,0,2,0,3,7,255,1440,300,0,0,-89.502,0.599,-31.190
EX0521-092111,6,C23,prep,836,836,0,484874.092,0.685,-0.677,0.193,0.187,0,0,0,0,0,0,0,0,0,0.000,0,0,0.108,0.006,-0.060,-0.040,-0.080,0.015,0.994,0.011,0.006,-0.002,0.002,0.000,0.000,0.000,0.000,0,2,0,3,7,255,1440,300,0,0,-89.502,0.599,-31.190
EX0521-092111,6,C23,prep,885,885,0,484879.092,0.685,-0.677,0.193,0.187,0,0,0,0,0,0,0,0,0,0.000,0,0,0.089,0.002,0.000,-0.040,-0.080,0.015,0.994,0.011,0.000,-0.002,0.002,0.000,0.000,0.000,0.000,0,2,0,3,7,255,1440,300,0,0,-89.503,0.599,-31.190
EX0521-092111,6,C23,prep,885,885,0,484884.092,0.685,-0.677,0.193,0.187,0,0,0,0,0,0,0,0,0,0.000,0,0,0.045,0.002,0.000,-0.040,-0.020,0.015,0.994,0.011,0.000,-0.002,0.002,0.000,0.000,0.000,0.000,0,2,0,3,7,255,1440,300,0,0,-89.503,0.598,-31.190
EX0521-092111,6,C23,prep,885,885,0,484889.092,0.685,-0.677,0.193,0.187,0,0,0,0,0,0,0,0,0,0.000,0,0,0.089,0.002,0.000,-0.040,-0.080,0.014,0.994,0.011,0.000,-0.002,0.002,0.000,0.000,0.000,0.000,0,2,0,3,7,255,1440,300,0,0,-89.503,0.598,-31.190
EX0521-092111,6,C23,prep,885,885,0,484894.091,0.685,-0.677,0.193,0.187,0,0,0,0,0,0,0,0,0,0.000,0,0,0.045,0.003,0.000,-0.040,-0.020,0.015,0.995,0.012,-0.002,-0.002,0.002,0.000,0.000,0.000,0.000,0,2,0,3,7,255,1440,300,0,0,-89.503,0.598,-31.190
EX0521-092111,6,C23,prep,885,885,0,484899.092,0.685,-0.677,0.193,0.187,0,0,0,0,0,0,0,0,0,0.000,0,0,0.045,0.002,0.000,-0.040,-0.020,0.015,0.993,0.011,-0.002,0.000,0.002,0.000,0.000,0.000,0.000,0,2,0,3,7,255,1440,300,0,0,-89.504,0.598,-31.190
EX0521-092111,6,C23,prep,885,885,0,484904.093,0.685,-0.677,0.193,0.187,0,0,0,0,0,0,0,0,0,0.000,0,0,0.045,0.006,0.000,-0.040,-0.020,0.015,0.993,0.012,0.002,-0.006,-0.006,0.000,0.000,0.000,0.000,0,2,0,3,7,255,1440,300,0,0,-89.504,0.598,-31.190
EX0521-092111,6,C23,prep,885,885,0,484909.092,0.685,-0.677,0.193,0.187,0,0,0,0,0,0,0,0,0,0.000,0,0,0.045,0.002,0.000,-0.040,-0.020,0.014,0.994,0.011,0.002,0.000,-0.006,0.000,0.000,0.000,0.000,0,2,0,3,7,255,1440,300,0,0,-89.504,0.598,-31.190
EX0521-092111,6,C23,prep,885,885,0,484914.092,0.685,-0.677,0.193,0.187,0,0,0,0,0,0,0,0,0,0.000,0,0,0.128,0.002,0.000,-0.100,-0.080,0.015,0.995,0.010,0.002,0.000,0.002,0.000,0.000,0.000,0.000,0,2,0,3,7,255,1440,300,0,0,-89.504,0.597,-31.190
EX0521-092111,6,C23,prep,886,886,0,484919.092,0.685,-0.677,0.193,0.187,0,0,0,0,0,0,0,0,0,0.000,0,0,0.045,0.004,0.000,-0.040,-0.020,0.014,0.993,0.010,0.002,0.004,0.002,0.000,0.000,0.000,0.000,0,2,0,3,7,255,1440,300,0,0,-89.505,0.597,-31.190
EX0521-092111,6,C23,prep,886,886,0,484924.091,0.685,-0.677,0.193,0.187,0,0,0,0,0,0,0,0,0,0.000,0,0,0.045,0.004,0.000,-0.040,-0.020,0.014,0.994,0.012,0.002,0.004,0.002,0.000,0.000,0.000,0.000,0,2,0,3,7,255,1440,300,0,0,-89.505,0.597,-31.190
EX0521-092111,6,C23,prep,886,886,0,484929.091,0.685,-0.677,0.193,0.187,0,0,0,0,0,0,0,0,0,0.000,0,0,0.075,0.008,0.060,-0.040,-0.020,0.014,0.993,0.011,-0.006,0.006,-0.006,0.000,0.000,0.000,0.000,0,2,0,3,7,255,1440,300,0,0,-89.505,0.597,-31.190
EX0521-092111,6,C23,prep,886,886,0,484934.092,0.685,-0.677,0.193,0.187,0,0,0,0,0,0,0,0,0,0.000,0,0,0.089,0.007,0.000,-0.040,-0.080,0.015,0.994,0.012,-0.006,-0.004,0.002,0.000,0.000,0.000,0.000,0,2,0,3,7,255,1440,300,0,0,-89.505,0.597,-31.190
EX0521-092111,6,C23,prep,911,911,0,484939.092,0.685,-0.677,0.193,0.187,0,0,0,0,0,0,0,0,0,0.000,0,0,0.118,0.004,-0.060,-0.100,-0.020,0.014,0.994,0.011,-0.004,0.000,0.002,0.000,0.000,0.000,0.000,0,2,0,3,7,255,1440,300,0,0,-89.506,0.596,-31.190
EX0521-092111,6,C23,prep,911,911,0,484944.092,0.685,-0.677,0.193,0.187,0,0,0,0,0,0,0,0,0,0.000,0,0,0.045,0.006,0.000,-0.040,-0.020,0.015,0.993,0.013,-0.002,-0.006,0.002,0.000,0.000,0.000,0.000,0,2,0,3,7,255,1440,300,0,0,-89.506,0.596,-31.190
EX0521-092111,6,C23,prep,911,911,0,484949.092,0.685,-0.677,0.193,0.187,0,0,0,0,0,0,0,0,0,0.000,0,0,0.108,0.004,-0.060,-0.040,-0.080,0.014,0.994,0.011,-0.004,0.000,0.002,0.000,0.000,0.000,0.000,0,2,0,3,7,255,1440,300,0,0,-89.506,0.596,-31.190
EX0521-092111,6,C23,prep,911,911,0,484954.091,0.685,-0.677,0.193,0.187,0,0,0,0,0,0,0,0,0,0.000,0,0,0.075,0.010,-0.060,-0.040,-0.020,0.014,0.994,0.012,-0.008,-0.006,0.002,0.000,0.000,0.000,0.000,0,2,0,3,7,255,1440,300,0,0,-89.506,0.596,-31.190
EX0521-092111,6,C23,prep,929,929,0,484959.092,0.685,-0.677,0.193,0.187,0,0,0,0,0,0,0,0,0,0.000,0,0,0.141,0.008,-0.060,-0.100,-0.080,0.014,0.993,0.010,-0.008,0.002,0.002,0.000,0.000,0.000,0.000,0,2,0,3,7,255,1440,300,0,0,-89.507,0.596,-31.190
EX0521-092111,6,C23,prep,929,929,0,484964.093,0.685,-0.677,0.193,0.187,0,0,0,0,0,0,0,0,0,0.000,0,0,0.045,0.003,0.000,-0.040,-0.020,0.015,0.994,0.011,-0.002,-0.002,0.002,0.000,0.000,0.000,0.000,0,2,0,3,7,255,1440,300,0,0,-89.507,0.596,-31.190
EX0521-092111,6,C23,prep,929,929,0,484969.092,0.685,-0.677,0.193,0.187,0,0,0,0,0,0,0,0,0,0.000,0,0,0.089,0.002,0.000,-0.040,-0.080,0.016,0.995,0.011,0.000,-0.002,0.002,0.000,0.000,0.000,0.000,0,2,0,3,7,255,1440,300,0,0,-89.507,0.597,-31.190
EX0521-092111,6,C23,prep,929,929,0,484974.092,0.685,-0.677,0.193,0.187,0,0,0,0,0,0,0,0,0,0.000,0,0,0.072,0.008,0.000,-0.040,0.060,0.015,0.993,0.011,0.008,-0.002,0.002,0.000,0.000,0.000,0.000,0,2,0,3,7,255,1440,300,0,0,-89.507,0.597,-31.190
EX0521-092111,6,C23,prep,943,943,0,484979.092,0.685,-0.677,0.193,0.187,0,0,0,0,0,0,0,0,0,0.000,0,0,0.045,0.008,0.000,-0.040,-0.020,0.014,0.995,0.011,0.008,0.000,0.008,0.000,0.000,0.000,0.000,0,2,0,3,7,255,1440,300,0,0,-89.508,0.596,-31.190
EX0521-092111,6,C23,prep,943,943,0,484984.091,0.685,-0.677,0.193,0.187,0,0,0,0,0,0,0,0,0,0.000,0,0,0.089,0.008,0.000,-0.040,-0.080,0.016,0.993,0.011,0.008,0.000,-0.006,0.000,0.000,0.000,0.000,0,2,0,3,7,255,1440,300,0,0,-89.508,0.598,-31.190
EX0521-092111,6,C23,prep,975,975,0,484989.091,0.685,-0.677,0.193,0.187,0,0,0,0,0,0,0,0,0,0.000,0,0,0.045,0.008,0.000,-0.040,-0.020,0.014,0.995,0.011,-0.006,0.006,0.008,0.000,0.000,0.000,0.000,0,2,0,3,7,255,1440,300,0,0,-89.508,0.598,-31.190
EX0521-092111,6,C23,prep,975,975,0,484994.091,0.685,-0.677,0.193,0.187,0,0,0,0,0,0,0,0,0,0.000,0,0,0.028,0.004,0.000,0.020,-0.020,0.014,0.994,0.011,-0.004,0.000,-0.002,0.000,0.000,0.000,0.000,0,2,0,3,7,255,1440,300,0,0,-89.508,0.597,-31.190
EX0521-092111,6,C23,prep,975,975,0,484999.092,0.685,-0.677,0.193,0.187,0,0,0,0,0,0,0,0,0,0.000,0,0,0.045,0.004,0.000,-0.040,-0.020,0.015,0.994,0.012,-0.004,0.000,-0.002,0.000,0.000,0.000,0.000,0,2,0,3,7,255,1440,300,0,0,-89.509,0.597,-31.190
EX0521-092111,6,C23,prep,975,975,0,485004.093,0.685,-0.677,0.193,0.187,0,0,0,0,0,0,0,0,0,0.000,0,0,0.102,0.000,0.000,-0.100,-0.020,0.015,0.994,0.010,0.000,0.000,-0.002,0.000,0.000,0.000,0.000,0,2,0,3,7,255,1440,300,0,0,-89.509,0.597,-31.190
EX0521-092111,6,C23,prep,996,996,0,485009.092,0.685,-0.677,0.193,0.187,0,0,0,0,0,0,0,0,0,0.000,0,0,0.075,0.002,-0.060,-0.040,-0.020,0.015,0.994,0.011,0.000,-0.002,-0.002,0.000,0.000,0.000,0.000,0,2,0,3,7,255,1440,300,0,0,-89.509,0.597,-31.190
EX0521-092111,6,C23,prep,996,996,0,485014.092,0.685,-0.677,0.193,0.187,0,0,0,0,0,0,0,0,0,0.000,0,0,0.118,0.002,0.060,-0.100,-0.020,0.015,0.994,0.011,0.000,-0.002,-0.002,0.000,0.000,0.000,0.000,0,2,0,3,7,255,1440,300,0,0,-89.509,0.597,-31.190
EX0521-092111,6,C23,prep,997,997,0,485019.092,0.685,-0.677,0.193,0.187,0,0,0,0,0,0,0,0,0,0.000,0,0,0.089,0.002,0.000,-0.040,-0.080,0.015,0.994,0.011,0.000,-0.002,-0.002,0.000,0.000,0.000,0.000,0,2,0,3,7,255,1440,300,0,0,-89.510,0.596,-31.190
EX0521-092111,6,C23,prep,997,997,0,485024.091,0.685,-0.677,0.193,0.187,0,0,0,0,0,0,0,0,0,0.000,0,0,0.128,0.007,0.000,-0.100,-0.080,0.016,0.995,0.011,0.004,-0.006,-0.002,0.000,0.000,0.000,0.000,0,2,0,3,7,255,1440,300,0,0,-89.510,0.598,-31.190
EX0521-092111,6,C23,prep,998,998,0,485029.092,0.685,-0.677,0.193,0.187,0,0,0,0,0,0,0,0,0,0.000,0,0,0.102,0.007,0.000,-0.100,-0.020,0.014,0.994,0.012,0.004,-0.006,0.002,0.000,0.000,0.000,0.000,0,2,0,3,7,255,1440,300,0,0,-89.510,0.598,-31.190
EX0521-092111,6,C23,prep,998,998,0,485034.092,0.685,-0.677,0.193,0.187,0,0,0,0,0,0,0,0,0,0.000,0,0,0.066,0.006,-0.060,0.020,-0.020,0.013,0.995,0.010,-0.004,-0.004,0.008,0.000,0.000,0.000,0.000,0,2,0,3,7,255,1440,300,0,0,-89.510,0.597,-31.190
EX0521-092111,6,C23,prep,999,999,0,485039.092,0.685,-0.677,0.193,0.187,0,0,0,0,0,0,0,0,0,0.000,0,0,0.075,0.006,-0.060,-0.040,-0.020,0.014,0.994,0.011,-0.006,0.002,0.002,0.000,0.000,0.000,0.000,0,2,0,3,7,255,1440,300,0,0,-89.511,0.597,-31.190
EX0521-092111,6,C23,prep,999,999,0,485044.092,0.685,-0.677,0.193,0.187,0,0,0,0,0,0,0,0,0,0.000,0,0,0.045,0.008,0.000,-0.040,-0.020,0.014,0.996,0.012,-0.008,0.002,0.008,0.000,0.000,0.000,0.000,0,2,0,3,7,255,1440,300,0,0,-89.511,0.597,-31.190
EX0521-092111,6,C23,prep,1007,1007,0,485049.091,0.685,-0.677,0.193,0.187,0,0,0,0,0,0,0,0,0,0.000,0,0,0.045,0.011,0.000,-0.040,-0.020,0.015,0.994,0.012,-0.008,-0.008,0.002,0.000,0.000,0.000,0.000,0,2,0,3,7,255,1440,300,0,0,-89.511,0.597,-31.190
EX0521-092111,6,C23,prep,1007,1007,0,485054.091,0.685,-0.677,0.193,0.187,0,0,0,0,0,0,0,0,0,0.000,0,0,0.082,0.011,0.000,0.020,-0.080,0.014,0.995,0.012,-0.008,-0.008,0.008,0.000,0.000,0.000,0.000,0,2,0,3,7,255,1440,300,0,0,-89.511,0.597,-31.190
EX0521-092111,6,C23,prep,1023,1023,0,485059.092,0.685,-0.677,0.193,0.187,0,0,0,0,0,0,0,0,0,0.000,0,0,0.028,0.012,0.000,0.020,-0.020,0.016,0.994,0.012,0.000,-0.012,0.002,0.000,0.000,0.000,0.000,0,2,0,3,7,255,1440,300,0,0,-89.512,0.598,-31.190
EX0521-092111,6,C23,prep,1023,1023,0,485064.092,0.685,-0.677,0.193,0.187,0,0,0,0,0,0,0,0,0,0.000,0,0,0.045,0.008,0.000,-0.040,-0.020,0.014,0.994,0.011,-0.008,-0.002,0.002,0.000,0.000,0.000,0.000,0,2,0,3,7,255,1440,300,0,0,-89.512,0.598,-31.190
EX0521-092111,6,C23,prep,1039,1039,0,485069.092,0.685,-0.677,0.193,0.187,0,0,0,0,0,0,0,0,0,0.000,0,0,0.045,0.008,0.000,-0.040,-0.020,0.014,0.993,0.011,-0.008,0.002,0.002,0.000,0.000,0.000,0.000,0,2,0,3,7,255,1440,300,0,0,-89.512,0.598,-31.190
EX0521-092111,6,C23,prep,1039,1039,0,485074.093,0.685,-0.677,0.193,0.187,0,0,0,0,0,0,0,0,0,0.000,0,0,0.089,0.008,0.000,-0.040,-0.080,0.015,0.995,0.012,-0.008,0.002,0.002,0.000,0.000,0.000,0.000,0,2,0,3,7,255,1440,300,0,0,-89.512,0.597,-31.190
EX0521-092111,6,C23,prep,1039,1039,0,485079.092,0.685,-0.677,0.193,0.187,0,0,0,0,0,0,0,0,0,0.000,0,0,0.045,0.006,0.000,-0.040,-0.020,0.015,0.995,0.012,-0.002,-0.006,0.008,0.000,0.000,0.000,0.000,0,2,0,3,7,255,1440,300,0,0,-89.513,0.597,-31.190
EX0521-092111,6,C23,prep,1039,1039,0,485084.091,0.685,-0.677,0.193,0.187,0,0,0,0,0,0,0,0,0,0.000,0,0,0.102,0.006,0.000,-0.100,-0.020,0.014,0.995,0.012,-0.002,-0.006,0.008,0.000,0.000,0.000,0.000,0,2,0,3,7,255,1440,300,0,0,-89.513,0.597,-31.190
EX0521-092111,6,C23,prep,1071,1071,0,485089.091,0.685,-0.677,0.193,0.187,0,0,0,0,0,0,0,0,0,0.000,0,0,0.089,0.007,0.000,-0.040,-0.080,0.014,0.994,0.011,-0.006,-0.004,0.008,0.000,0.000,0.000,0.000,0,2,0,3,7,255,1440,300,0,0,-89.513,0.597,-31.190
EX0521-092111,6,C23,prep,1071,1071,0,485094.092,0.685,-0.677,0.193,0.187,0,0,0,0,0,0,0,0,0,0.000,0,0,0.045,0.007,0.000,-0.040,-0.020,0.014,0.994,0.012,-0.006,-0.004,-0.002,0.000,0.000,0.000,0.000,0,2,0,3,7,255,1440,300,0,0,-89.513,0.597,-31.190
EX0521-092111,6,C23,prep,1071,1071,0,485099.092,0.685,-0.677,0.193,0.187,0,0,0,0,0,0,0,0,0,0.000,0,0,0.075,0.009,-0.060,-0.040,-0.020,0.014,0.993,0.012,-0.008,-0.004,-0.002,0.000,0.000,0.000,0.000,0,2,0,3,7,255,1440,300,0,0,-89.514,0.597,-31.190
EX0521-092111,6,C23,prep,1071,1071,0,485104.093,0.685,-0.677,0.193,0.187,0,0,0,0,0,0,0,0,0,0.000,0,0,0.045,0.010,0.000,-0.040,-0.020,0.015,0.993,0.012,-0.006,-0.008,-0.008,0.000,0.000,0.000,0.000,0,2,0,3,7,255,1440,300,0,0,-89.514,0.596,-31.190
EX0521-092111,6,C23,prep,1071,1071,0,485109.091,0.685,-0.677,0.193,0.187,0,0,0,0,0,0,0,0,0,0.000,0,0,0.075,0.009,0.060,-0.040,-0.020,0.015,0.995,0.011,-0.004,-0.008,-0.008,0.000,0.000,0.000,0.000,0,2,0,3,7,255,1440,300,0,0,-89.514,0.596,-31.190
EX0521-092111,6,C23,prep,1071,1071,0,485114.091,0.685,-0.677,0.193,0.187,0,0,0,0,0,0,0,0,0,0.000,0,0,0.028,0.004,0.000,0.020,-0.020,0.014,0.993,0.011,0.000,-0.004,-0.008,0.000,0.000,0.000,0.000,0,2,0,3,7,255,1440,300,0,0,-89.514,0.596,-31.190
EX0521-092111,6,C23,prep,1092,1092,0,485119.091,0.685,-0.677,0.193,0.187,0,0,0,0,0,0,0,0,0,0.000,0,0,0.045,0.004,0.000,-0.040,-0.020,0.013,0.994,0.012,0.000,-0.004,0.002,0.000,0.000,0.000,0.000,0,2,0,3,7,255,1440,300,0,0,-89.515,0.596,-31.190
EX0521-092111,6,C23,prep,1092,1092,0,485124.092,0.685,-0.677,0.193,0.187,0,0,0,0,0,0,0,0,0,0.000,0,0,0.045,0.004,0.000,-0.040,-0.020,0.015,0.993,0.012,-0.002,-0.004,-0.008,0.000,0.000,0.000,0.000,0,2,0,3,7,255,1440,300,0,0,-89.515,0.596,-31.190
EX0521-092111,6,C23,prep,1093,1093,0,485129.092,0.685,-0.677,0.193,0.187,0,0,0,0,0,0,0,0,0,0.000,0,0,0.045,0.015,0.000,-0.040,-0.020,0.012,0.994,0.010,-0.014,-0.004,-0.002,0.000,0.000,0.000,0.000,0,2,0,3,7,255,1440,300,0,0,-89.515,0.595,-31.190
EX0521-092111,6,C23,prep,1093,1093,0,485134.092,0.685,-0.677,0.193,0.187,0,0,0,0,0,0,0,0,0,0.000,0,0,0.075,0.003,-0.060,-0.040,-0.020,0.015,0.994,0.011,-0.002,-0.002,-0.002,0.000,0.000,0.000,0.000,0,2,0,3,7,255,1440,300,0,0,-89.515,0.595,-31.190
EX0521-092111,6,C23,prep,1093,1093,0,485139.092,0.685,-0.677,0.193,0.187,0,0,0,0,0,0,0,0,0,0.000,0,0,0.089,0.013,0.000,-0.040,-0.080,0.013,0.994,0.011,-0.012,0.004,-0.002,0.000,0.000,0.000,0.000,0,2,0,3,7,255,1440,300,0,0,-89.516,0.595,-31.190
EX0521-092111,6,C23,prep,1093,1093,0,485144.091,0.685,-0.677,0.193,0.187,0,0,0,0,0,0,0,0,0,0.000,0,0,0.045,0.003,0.000,-0.040,-0.020,0.015,0.995,0.012,-0.002,-0.002,-0.002,0.000,0.000,0.000,0.000,0,2,0,3,7,255,1440,300,0,0,-89.516,0.595,-31.190
EX0521-092111,6,C23,prep,1129,1129,0,485149.091,0.685,-0.677,0.193,0.187,0,0,0,0,0,0,0,0,0,0.000,0,0,0.045,0.003,0.000,-0.040,-0.020,0.015,0.994,0.010,-0.002,0.002,-0.002,0.000,0.000,0.000,0.000,0,2,0,3,7,255,1440,300,0,0,-89.516,0.595,-31.190
EX0521-092111,6,C23,prep,1129,1129,0,485154.092,0.685,-0.677,0.193,0.187,0,0,0,0,0,0,0,0,0,0.000,0,0,0.108,0.004,0.000,-0.100,0.040,0.014,0.995,0.012,-0.002,-0.004,0.008,0.000,0.000,0.000,0.000,0,2,0,3,7,255,1440,300,0,0,-89.516,0.595,-31.190
EX0521-092111,6,C23,prep,1129,1129,0,485159.093,0.685,-0.677,0.193,0.187,0,0,0,0,0,0,0,0,0,0.000,0,0,0.075,0.002,-0.060,-0.040,-0.020,0.014,0.995,0.011,-0.002,0.000,0.008,0.000,0.000,0.000,0.000,0,2,0,3,7,255,1440,300,0,0,-89.517,0.594,-31.190
EX0521-092111,6,C23,prep,1129,1129,0,485164.092,0.685,-0.677,0.193,0.187,0,0,0,0,0,0,0,0,0,0.000,0,0,0.045,0.004,0.000,-0.040,-0.020,0.015,0.995,0.011,-0.002,-0.004,0.008,0.000,0.000,0.000,0.000,0,2,0,3,7,255,1440,300,0,0,-89.517,0.594,-31.190
EX0521-092111,6,C23,prep,1130,1130,0,485169.092,0.685,-0.677,0.193,0.187,0,0,0,0,0,0,0,0,0,0.000,0,0,0.089,0.002,0.000,-0.040,-0.080,0.014,0.994,0.011,-0.002,0.000,0.008,0.000,0.000,0.000,0.000,0,2,0,3,7,255,1440,300,0,0,-89.517,0.594,-31.190
EX0521-092111,6,C23,prep,1130,1130,0,485174.091,0.685,-0.677,0.193,0.187,0,0,0,0,0,0,0,0,0,0.000,0,0,0.045,0.004,0.000,-0.040,-0.020,0.015,0.994,0.012,-0.002,-0.004,-0.002,0.000,0.000,0.000,0.000,0,2,0,3,7,255,1440,300,0,0,-89.517,0.594,-31.190
EX0521-092111,6,C23,prep,1197,1197,0,485179.091,0.685,-0.677,0.193,0.187,0,0,0,0,0,0,0,0,0,0.000,0,0,0.128,0.003,-0.120,-0.040,-0.020,0.014,0.994,0.012,-0.002,-0.002,-0.002,0.000,0.000,0.000,0.000,0,2,0,3,7,255,1440,300,0,0,-89.518,0.594,-31.190
EX0521-092111,6,C23,prep,1197,1197,0,485184.092,0.685,-0.677,0.193,0.187,0,0,0,0,0,0,0,0,0,0.000,0,0,0.045,0.004,0.000,-0.040,-0.020,0.015,0.994,0.011,-0.002,-0.004,-0.002,0.000,0.000,0.000,0.000,0,2,0,3,7,255,1440,300,0,0,-89.518,0.593,-31.190
EX0521-092111,6,C23,prep,1197,1197,0,485189.092,0.685,-0.677,0.193,0.187,0,0,0,0,0,0,0,0,0,0.000,0,0,0.045,0.004,0.000,-0.040,-0.020,0.015,0.995,0.012,-0.002,-0.004,0.002,0.000,0.000,0.000,0.000,0,2,0,3,7,255,1440,300,0,0,-89.518,0.593,-31.190
EX0521-092111,6,C23,prep,1197,1197,0,485194.092,0.685,-0.677,0.193,0.187,0,0,0,0,0,0,0,0,0,0.000,0,0,0.045,0.008,0.000,-0.040,-0.020,0.015,0.994,0.012,0.002,-0.008,0.002,0.000,0.000,0.000,0.000,0,2,0,3,7,255,1440,300,0,0,-89.518,0.593,-31.190
EX0521-092111,6,C23,prep,1197,1197,0,485199.095,0.685,-0.677,0.193,0.187,0,0,0,0,0,0,0,0,0,0.000,0,0,0.057,0.010,0.000,-0.040,0.040,0.015,0.994,0.012,0.002,-0.010,0.002,0.000,0.000,0.000,0.000,0,2,0,3,7,255,1440,300,0,0,-89.519,0.593,-31.190
EX0521-092111,6,C23,prep,1197,1197,0,485204.091,0.685,-0.677,0.193,0.187,0,0,0,0,0,0,0,0,0,0.000,0,0,0.045,0.010,0.000,-0.040,-0.020,0.016,0.994,0.010,0.002,-0.010,0.002,0.000,0.000,0.000,0.000,0,2,0,3,7,255,1440,300,0,0,-89.519,0.594,-31.190
EX0521-092111,6,C23,prep,1198,1198,0,485209.091,0.685,-0.677,0.193,0.187,0,0,0,0,0,0,0,0,0,0.000,0,0,0.089,0.007,0.000,-0.040,-0.080,0.015,0.994,0.011,0.004,-0.006,0.002,0.000,0.000,0.000,0.000,0,2,0,3,7,255,1440,300,0,0,-89.519,0.594,-31.190
EX0521-092111,6,C23,prep,1198,1198,0,485214.092,0.685,-0.677,0.193,0.187,0,0,0,0,0,0,0,0,0,0.000,0,0,0.045,0.010,0.000,-0.040,-0.020,0.015,0.995,0.010,0.010,0.000,0.002,0.000,0.000,0.000,0.000,0,2,0,3,7,255,1440,300,0,0,-89.519,0.594,-31.190
EX0521-092111,6,C23,prep,1199,1199,0,485219.092,0.685,-0.677,0.193,0.187,0,0,0,0,0,0,0,0,0,0.000,0,0,0.128,0.008,0.000,-0.100,-0.080,0.015,0.994,0.011,0.008,-0.002,0.002,0.000,0.000,0.000,0.000,0,2,0,3,7,255,1440,300,0,0,-89.520,0.594,-31.190
EX0521-092111,6,C23,prep,1199,1199,0,485224.092,0.685,-0.677,0.193,0.187,0,0,0,0,0,0,0,0,0,0.000,0,0,0.089,0.008,0.000,-0.040,-0.080,0.014,0.995,0.011,0.008,0.002,0.006,0.000,0.000,0.000,0.000,0,2,0,3,7,255,1440,300,0,0,-89.520,0.594,-31.190
EX0521-092111,6,C23,prep,1200,1200,0,485229.092,0.685,-0.677,0.193,0.187,0,0,0,0,0,0,0,0,0,0.000,0,0,0.045,0.004,0.000,-0.040,-0.020,0.014,0.994,0.013,-0.004,-0.002,0.002,0.000,0.000,0.000,0.000,0,2,0,3,7,255,1440,300,0,0,-89.520,0.593,-31.190
EX0521-092111,6,C23,prep,1200,1200,0,485234.091,0.685,-0.677,0.193,0.187,0,0,0,0,0,0,0,0,0,0.000,0,0,0.075,0.007,0.060,-0.040,-0.020,0.014,0.995,0.012,-0.006,-0.004,0.006,0.000,0.000,0.000,0.000,0,2,0,3,7,255,1440,300,0,0,-89.520,0.593,-31.190
EX0521-092111,6,C23,prep,1201,1201,0,485239.092,0.685,-0.677,0.193,0.187,0,0,0,0,0,0,0,0,0,0.000,0,0,0.045,0.007,0.000,-0.040,-0.020,0.014,0.995,0.011,-0.006,-0.004,0.006,0.000,0.000,0.000,0.000,0,2,0,3,7,255,1440,300,0,0,-89.521,0.593,-31.190
EX0521-092111,6,C23,prep,1201,1201,0,485244.091,0.685,-0.677,0.193,0.187,0,0,0,0,0,0,0,0,0,0.000,0,0,0.028,0.004,0.000,0.020,-0.020,0.014,0.994,0.010,-0.002,0.004,0.006,0.000,0.000,0.000,0.000,0,2,0,3,7,255,1440,300,0,0,-89.521,0.593,-31.190
EX0521-092111,6,C23,prep,1232,1232,0,485249.092,0.685,-0.677,0.193,0.187,0,0,0,0,0,0,0,0,0,0.000,0,0,0.045,0.004,0.000,-0.040,-0.020,0.013,0.993,0.011,-0.002,0.004,0.002,0.000,0.000,0.000,0.000,0,2,0,3,7,255,1440,300,0,0,-89.521,0.593,-31.190
EX0521-092111,6,C23,prep,1232,1232,0,485254.092,0.685,-0.677,0.193,0.187,0,0,0,0,0,0,0,0,0,0.000,0,0,0.045,0.007,0.000,-0.040,-0.020,0.014,0.994,0.012,-0.006,0.004,0.002,0.000,0.000,0.000,0.000,0,2,0,3,7,255,1440,300,0,0,-89.521,0.592,-31.190
EX0521-092111,6,C23,prep,1232,1232,0,485259.092,0.685,-0.677,0.193,0.187,0,0,0,0,0,0,0,0,0,0.000,0,0,0.040,0.008,0.000,-0.040,0.000,0.015,0.994,0.012,-0.006,-0.006,0.002,0.000,0.000,0.000,0.000,0,2,0,3,7,255,1440,300,0,0,-89.522,0.592,-31.190
EX0521-092111,6,C23,prep,1232,1232,0,485264.091,0.685,-0.677,0.193,0.187,0,0,0,0,0,0,0,0,0,0.000,0,0,0.020,0.008,0.000,0.020,0.000,0.014,0.993,0.012,-0.006,-0.006,0.002,0.000,0.000,0.000,0.000,0,2,0,3,7,255,1440,300,0,0,-89.522,0.592,-31.190
EX0521-092111,6,C23,prep,1233,1233,0,485269.091,0.685,-0.677,0.193,0.187,0,0,0,0,0,0,0,0,0,0.000,0,0,0.040,0.008,0.000,-0.040,0.000,0.015,0.993,0.012,-0.002,-0.008,-0.008,0.000,0.000,0.000,0.000,0,2,0,3,7,255,1440,300,0,0,-89.522,0.592,-31.190
EX0521-092111,6,C23,prep,1233,1233,0,485274.091,0.685,-0.677,0.193,0.187,0,0,0,0,0,0,0,0,0,0.000,0,0,0.100,0.006,0.000,-0.100,0.000,0.014,0.994,0.011,-0.002,-0.006,-0.008,0.000,0.000,0.000,0.000,0,2,0,3,7,255,1440,300,0,0,-89.522,0.592,-31.190
EX0521-092111,6,C23,prep,1266,1266,0,485279.092,0.685,-0.677,0.193,0.187,0,0,0,0,0,0,0,0,0,0.000,0,0,0.072,0.002,0.000,-0.040,-0.060,0.015,0.994,0.010,-0.002,0.000,-0.002,0.000,0.000,0.000,0.000,0,2,0,3,7,255,1440,300,0,0,-89.523,0.591,-31.190
EX0521-092111,6,C23,prep,1266,1266,0,485284.092,0.685,-0.677,0.193,0.187,0,0,0,0,0,0,0,0,0,0.000,0,0,0.072,0.002,-0.060,-0.040,0.000,0.014,0.993,0.011,-0.002,0.000,-0.002,0.000,0.000,0.000,0.000,0,2,0,3,7,255,1440,300,0,0,-89.523,0.591,-31.190
EX0521-092111,6,C23,prep,1296,1296,0,485289.092,0.685,-0.677,0.193,0.187,0,0,0,0,0,0,0,0,0,0.000,0,0,0.087,0.007,-0.060,0.020,-0.060,0.015,0.993,0.010,0.006,0.004,-0.008,0.000,0.000,0.000,0.000,0,2,0,3,7,255,1440,300,0,0,-89.523,0.591,-31.190
EX0521-092111,6,C23,prep,1296,1296,0,485294.092,0.685,-0.677,0.193,0.187,0,0,0,0,0,0,0,0,0,0.000,0,0,0.072,0.003,0.000,-0.040,-0.060,0.014,0.992,0.011,-0.002,-0.002,-0.012,0.000,0.000,0.000,0.000,0,2,0,3,7,255,1440,300,0,0,-89.523,0.591,-31.190
EX0521-092111,6,C23,prep,1296,1296,0,485299.093,0.685,-0.677,0.193,0.187,0,0,0,0,0,0,0,0,0,0.000,0,0,0.063,0.008,0.060,0.020,0.000,0.015,0.993,0.011,0.008,-0.002,-0.012,0.000,0.000,0.000,0.000,0,2,0,3,7,255,1440,300,0,0,-89.524,0.591,-31.190
EX0521-092111,6,C23,prep,1296,1296,0,485304.091,0.685,-0.677,0.193,0.187,0,0,0,0,0,0,0,0,0,0.000,0,0,0.040,0.008,0.000,-0.040,0.000,0.015,0.994,0.011,0.008,-0.002,-0.012,0.000,0.000,0.000,0.000,0,2,0,3,7,255,1440,300,0,0,-89.524,0.591,-31.190
EX0521-092111,6,C23,prep,1296,1296,0,485309.092,0.685,-0.677,0.193,0.187,0,0,0,0,0,0,0,0,0,0.000,0,0,0.089,0.008,0.000,-0.040,-0.080,0.015,0.995,0.012,0.008,-0.002,0.002,0.000,0.000,0.000,0.000,0,2,0,3,7,255,1440,300,0,0,-89.524,0.590,-31.190
EX0521-092111,6,C23,prep,1296,1296,0,485314.092,0.685,-0.677,0.193,0.187,0,0,0,0,0,0,0,0,0,0.000,0,0,0.045,0.006,0.000,-0.040,-0.020,0.015,0.995,0.010,0.006,-0.002,0.008,0.000,0.000,0.000,0.000,0,2,0,3,7,255,1440,300,0,0,-89.524,0.590,-31.190
EX0521-092111,6,C23,prep,1296,1296,0,485319.092,0.685,-0.677,0.193,0.187,0,0,0,0,0,0,0,0,0,0.000,0,0,0.089,0.004,0.000,-0.040,-0.080,0.014,0.994,0.012,-0.002,-0.004,0.008,0.000,0.000,0.000,0.000,0,2,0,3,7,255,1440,300,0,0,-89.525,0.590,-31.190
EX0521-092111,6,C23,prep,1296,1296,0,485324.092,0.685,-0.677,0.193,0.187,0,0,0,0,0,0,0,0,0,0.000,0,0,0.045,0.007,0.000,-0.040,-0.020,0.014,0.994,0.012,-0.006,-0.004,0.002,0.000,0.000,0.000,0.000,0,2,0,3,7,255,1440,300,0,0,-89.525,0.590,-31.190
EX0521-092111,6,C23,prep,1297,1297,0,485329.091,0.685,-0.677,0.193,0.187,0,0,0,0,0,0,0,0,0,0.000,0,0,0.108,0.007,-0.060,-0.040,-0.080,0.014,0.993,0.011,-0.006,-0.004,0.002,0.000,0.000,0.000,0.000,0,2,0,3,7,255,1440,300,0,0,-89.525,0.590,-31.190
EX0521-092111,6,C23,prep,1297,1297,0,485334.091,0.685,-0.677,0.193,0.187,0,0,0,0,0,0,0,0,0,0.000,0,0,0.045,0.003,0.000,-0.040,-0.020,0.015,0.995,0.011,-0.002,-0.002,0.002,0.000,0.000,0.000,0.000,0,2,0,3,7,255,1440,300,0,0,-89.525,0.589,-31.190
EX0521-092111,6,C23,prep,1298,1298,0,485339.092,0.685,-0.677,0.193,0.187,0,0,0,0,0,0,0,0,0,0.000,0,0,0.045,0.003,0.000,-0.040,-0.020,0.015,0.995,0.011,0.002,-0.002,0.006,0.000,0.000,0.000,0.000,0,2,0,3,7,255,1440,300,0,0,-89.526,0.589,-31.190
EX0521-092111,6,C23,prep,1298,1298,0,485344.092,0.685,-0.677,0.193,0.187,0,0,0,0,0,0,0,0,0,0.000,0,0,0.089,0.009,0.000,-0.040,-0.080,0.016,0.994,0.012,0.008,-0.004,0.006,0.000,0.000,0.000,0.000,0,2,0,3,7,255,1440,300,0,0,-89.526,0.591,-31.190
EX0521-092111,6,C23,prep,1311,1311,0,485349.092,0.685,-0.677,0.193,0.187,0,0,0,0,0,0,0,0,0,0.000,0,0,0.075,0.004,-0.060,-0.040,-0.020,0.014,0.994,0.011,0.002,-0.004,0.002,0.000,0.000,0.000,0.000,0,2,0,3,7,255,1440,300,0,0,-89.526,0.591,-31.190
EX0521-092111,6,C23,prep,1311,1311,0,485354.092,0.685,-0.677,0.193,0.187,0,0,0,0,0,0,0,0,0,0.000,0,0,0.045,0.003,0.000,-0.040,-0.020,0.014,0.995,0.010,0.002,-0.002,0.002,0.000,0.000,0.000,0.000,0,2,0,3,7,255,1440,300,0,0,-89.526,0.590,-31.190
EX0521-092111,6,C23,prep,1343,1343,0,485359.094,0.685,-0.677,0.193,0.187,0,0,0,0,0,0,0,0,0,0.000,0,0,0.108,0.004,-0.060,-0.040,-0.080,0.014,0.994,0.011,-0.004,-0.002,0.002,0.000,0.000,0.000,0.000,0,2,0,3,7,255,1440,300,0,0,-89.527,0.590,-31.190
EX0521-092111,6,C23,prep,1343,1343,0,485364.091,0.685,-0.677,0.193,0.187,0,0,0,0,0,0,0,0,0,0.000,0,0,0.108,0.006,0.060,-0.040,-0.080,0.014,0.994,0.010,-0.002,0.006,0.002,0.000,0.000,0.000,0.000,0,2,0,3,7,255,1440,300,0,0,-89.527,0.590,-31.190
EX0521-092111,6,C23,prep,1343,1343,0,485369.091,0.685,-0.677,0.193,0.187,0,0,0,0,0,0,0,0,0,0.000,0,0,0.045,0.002,0.000,-0.040,-0.020,0.015,0.995,0.011,-0.002,0.000,0.002,0.000,0.000,0.000,0.000,0,2,0,3,7,255,1440,300,0,0,-89.527,0.590,-31.190
EX0521-092111,6,C23,prep,1343,1343,0,485374.092,0.685,-0.677,0.193,0.187,0,0,0,0,0,0,0,0,0,0.000,0,0,0.108,0.002,-0.060,-0.040,-0.080,0.014,0.994,0.011,0.000,0.002,-0.002,0.000,0.000,0.000,0.000,0,2,0,3,7,255,1440,300,0,0,-89.527,0.590,-31.190
EX0521-092111,6,C23,prep,1343,1343,0,485379.092,0.685,-0.677,0.193,0.187,0,0,0,0,0,0,0,0,0,0.000,0,0,0.045,0.004,0.000,-0.040,-0.020,0.015,0.995,0.011,0.004,0.000,0.006,0.000,0.000,0.000,0.000,0,2,0,3,7,255,1440,300,0,0,-89.528,0.590,-31.190
EX0521-092111,6,C23,prep,1343,1343,0,485384.092,0.685,-0.677,0.193,0.187,0,0,0,0,0,0,0,0,0,0.000,0,0,0.028,0.002,0.000,0.020,-0.020,0.014,0.993,0.011,0.000,0.002,-0.002,0.000,0.000,0.000,0.000,0,2,0,3,7,255,1440,300,0,0,-89.528,0.589,-31.190
EX0521-092111,6,C23,prep,1374,1374,0,485389.092,0.685,-0.677,0.193,0.187,0,0,0,0,0,0,0,0,0,0.000,0,0,0.045,0.006,0.000,-0.040,-0.020,0.014,0.993,0.012,0.000,-0.006,-0.008,0.000,0.000,0.000,0.000,0,2,0,3,7,255,1440,300,0,0,-89.528,0.589,-31.190
EX0521-092111,6,C23,prep,1374,1374,0,485394.091,0.685,-0.677,0.193,0.187,0,0,0,0,0,0,0,0,0,0.000,0,0,0.075,0.004,-0.060,-0.040,-0.020,0.014,0.993,0.011,-0.004,-0.002,-0.008,0.000,0.000,0.000,0.000,0,2,0,3,7,255,1440,300,0,0,-89.528,0.589,-31.190
EX0521-092111,6,C23,prep,1376,1376,0,485399.093,0.685,-0.677,0.193,0.187,0,0,0,0,0,0,0,0,0,0.000,0,0,0.028,0.004,0.000,0.020,-0.020,0.014,0.994,0.010,-0.004,-0.002,-0.008,0.000,0.000,0.000,0.000,0,2,0,3,7,255,1440,300,0,0,-89.529,0.589,-31.190
EX0521-092111,6,C23,prep,1376,1376,0,485404.092,0.685,-0.677,0.193,0.187,0,0,0,0,0,0,0,0,0,0.000,0,0,0.141,0.002,-0.060,-0.100,-0.080,0.015,0.995,0.011,0.000,-0.002,0.002,0.000,0.000,0.000,0.000,0,2,0,3,7,255,1440,300,0,0,-89.529,0.589,-31.190
EX0521-092111,6,C23,prep,1377,1377,0,485409.092,0.685,-0.677,0.193,0.187,0,0,0,0,0,0,0,0,0,0.000,0,0,0.066,0.004,-0.060,0.020,-0.020,0.015,0.994,0.012,0.002,-0.004,0.002,0.000,0.000,0.000,0.000,0,2,0,3,7,255,1440,300,0,0,-89.529,0.588,-31.190
EX0521-092111,6,C23,prep,1377,1377,0,485414.092,0.685,-0.677,0.193,0.187,0,0,0,0,0,0,0,0,0,0.000,0,0,0.045,0.004,0.000,-0.040,-0.020,0.014,0.993,0.011,0.000,-0.004,-0.002,0.000,0.000,0.000,0.000,0,2,0,3,7,255,1440,300,0,0,-89.529,0.588,-31.190
EX0521-092111,6,C23,prep,1394,1394,0,485419.092,0.685,-0.677,0.193,0.187,0,0,0,0,0,0,0,0,0,0.000,0,0,0.045,0.003,0.000,-0.040,-0.020,0.015,0.994,0.010,0.002,-0.002,-0.002,0.000,0.000,0.000,0.000,0,2,0,3,7,255,1440,300,0,0,-89.530,0.588,-31.190
EX0521-092111,6,C23,prep,1394,1394,0,485424.091,0.685,-0.677,0.193,0.187,0,0,0,0,0,0,0,0,0,0.000,0,0,0.045,0.006,0.000,-0.040,-0.020,0.015,0.996,0.010,0.006,0.002,0.002,0.000,0.000,0.000,0.000,0,2,0,3,7,255,1440,300,0,0,-89.530,0.588,-31.190
EX0521-092111,6,C23,prep,1394,1394,0,485429.091,0.685,-0.677,0.193,0.187,0,0,0,0,0,0,0,0,0,0.000,0,0,0.045,0.006,0.000,-0.040,-0.020,0.015,0.994,0.011,0.006,0.002,0.002,0.000,0.000,0.000,0.000,0,2,0,3,7,255,1440,300,0,0,-89.530,0.588,-31.190
EX0521-092111,6,C23,prep,1394,1394,0,485434.091,0.685,-0.677,0.193,0.187,0,0,0,0,0,0,0,0,0,0.000,0,0,0.089,0.004,0.000,-0.040,-0.080,0.015,0.994,0.012,0.004,0.000,-0.002,0.000,0.000,0.000,0.000,0,2,0,3,7,255,1440,300,0,0,-89.530,0.588,-31.190
EX0521-092111,6,C23,prep,1394,1394,0,485439.092,0.685,-0.677,0.193,0.187,0,0,0,0,0,0,0,0,0,0.000,0,0,0.045,0.004,0.000,-0.040,-0.020,0.015,0.994,0.011,0.002,-0.004,-0.002,0.000,0.000,0.000,0.000,0,2,0,3,7,255,1440,300,0,0,-89.531,0.587,-31.190
EX0521-092111,6,C23,prep,1394,1394,0,485444.092,0.685,-0.677,0.193,0.187,0,0,0,0,0,0,0,0,0,0.000,0,0,0.089,0.004,0.000,-0.040,-0.080,0.015,0.994,0.011,0.000,-0.004,-0.002,0.000,0.000,0.000,0.000,0,2,0,3,7,255,1440,300,0,0,-89.531,0.587,-31.190
EX0521-092111,6,C23,prep,1407,1407,0,485449.092,0.685,-0.677,0.193,0.187,0,0,0,0,0,0,0,0,0,0.000,0,0,0.102,0.004,0.000,-0.100,-0.020,0.015,0.994,0.011,0.000,-0.004,0.002,0.000,0.000,0.000,0.000,0,2,0,3,7,255,1440,300,0,0,-89.531,0.587,-31.190
EX0521-092111,6,C23,prep,1407,1407,0,485454.091,0.685,-0.677,0.193,0.187,0,0,0,0,0,0,0,0,0,0.000,0,0,0.089,0.004,0.000,-0.040,-0.080,0.014,0.994,0.012,0.000,-0.004,0.002,0.000,0.000,0.000,0.000,0,2,0,3,7,255,1440,300,0,0,-89.531,0.587,-31.190
EX0521-092111,6,C23,prep,1423,1423,0,485459.091,0.685,-0.677,0.193,0.187,0,0,0,0,0,0,0,0,0,0.000,0,0,0.089,0.006,0.000,-0.040,-0.080,0.015,0.994,0.012,-0.002,-0.006,0.002,0.000,0.000,0.000,0.000,0,2,0,3,7,255,1440,300,0,0,-89.532,0.587,-31.190
EX0521-092111,6,C23,prep,1423,1423,0,485464.091,0.685,-0.677,0.193,0.187,0,0,0,0,0,0,0,0,0,0.000,0,0,0.075,0.007,-0.060,-0.040,-0.020,0.014,0.995,0.011,-0.004,-0.006,0.002,0.000,0.000,0.000,0.000,0,2,0,3,7,255,1440,300,0,0,-89.532,0.586,-31.190
EX0521-092111,6,C23,prep,1423,1423,0,485469.092,0.685,-0.677,0.193,0.187,0,0,0,0,0,0,0,0,0,0.000,0,0,0.066,0.009,0.060,0.020,-0.020,0.014,0.993,0.012,-0.004,-0.008,0.002,0.000,0.000,0.000,0.000,0,2,0,3,7,255,1440,300,0,0,-89.532,0.586,-31.190
EX0521-092111,6,C23,prep,1423,1423,0,485474.092,0.685,-0.677,0.193,0.187,0,0,0,0,0,0,0,0,0,0.000,0,0,0.075,0.004,-0.060,-0.040,-0.020,0.014,0.993,0.011,-0.004,-0.002,-0.008,0.000,0.000,0.000,0.000,0,2,0,3,7,255,1440,300,0,0,-89.532,0.586,-31.190
EX0521-092111,6,C23,prep,1471,1471,0,485479.092,0.685,-0.677,0.193,0.187,0,0,0,0,0,1,0,0,0,0.000,0,0,0.075,0.013,0.060,-0.040,-0.020,0.014,0.994,0.013,-0.008,-0.010,-0.008,0.000,0.000,0.000,0.000,0,2,0,3,7,255,1440,300,0,0,-89.533,0.586,-31.190
EX0521-092111,6,C23,prep,1471,1471,0,485484.091,0.685,-0.677,0.193,0.187,0,0,0,0,0,0,0,0,0,0.000,0,0,0.045,0.010,0.000,-0.040,-0.020,0.016,0.994,0.011,0.000,-0.010,0.002,0.000,0.000,0.000,0.000,0,2,0,3,7,255,1440,300,0,0,-89.533,0.587,-31.190
EX0521-092111,6,C23,prep,1471,1471,0,485489.091,0.685,-0.677,0.193,0.187,0,0,0,0,0,0,0,0,0,0.000,0,0,0.045,0.013,0.000,-0.040,-0.020,0.015,0.994,0.011,0.008,-0.010,0.002,0.000,0.000,0.000,0.000,0,2,0,3,7,255,1440,300,0,0,-89.533,0.587,-31.190
EX0521-092111,6,C23,prep,1471,1471,0,485494.091,0.685,-0.677,0.193,0.187,0,0,0,0,0,0,0,0,0,0.000,0,0,0.045,0.008,0.000,-0.040,-0.020,0.014,0.995,0.011,0.008,-0.002,0.002,0.000,0.000,0.000,0.000,0,2,0,3,7,255,1440,300,0,0,-89.533,0.587,-31.190
EX0521-092111,6,C23,prep,1471,1471,0,485499.093,0.685,-0.677,0.193,0.187,0,0,0,0,0,0,0,0,0,0.000,0,0,0.128,0.003,0.000,-0.100,-0.080,0.014,0.994,0.010,-0.002,0.002,0.002,0.000,0.000,0.000,0.000,0,2,0,3,7,255,1440,300,0,0,-89.534,0.587,-31.190
EX0521-092111,6,C23,prep,1471,1471,0,485504.092,0.685,-0.677,0.193,0.187,0,0,0,0,0,0,0,0,0,0.000,0,0,0.108,0.003,-0.060,-0.040,-0.080,0.014,0.995,0.011,-0.002,0.002,0.006,0.000,0.000,0.000,0.000,0,2,0,3,7,255,1440,300,0,0,-89.534,0.586,-31.190
EX0521-092111,6,C23,prep,1498,1498,0,485509.092,0.685,-0.677,0.193,0.187,0,0,0,0,0,0,0,0,0,0.000,0,0,0.072,0.003,-0.060,-0.040,0.000,0.014,0.995,0.011,-0.002,0.002,0.006,0.000,0.000,0.000,0.000,0,2,0,3,7,255,1440,300,0,0,-89.534,0.586,-31.190
EX0521-092111,6,C23,prep,1498,1498,0,485514.092,0.685,-0.677,0.193,0.187,0,0,0,0,0,0,0,0,0,0.000,0,0,0.040,0.000,0.000,-0.040,0.000,0.015,0.994,0.012,0.000,0.000,0.006,0.000,0.000,0.000,0.000,0,2,0,3,7,255,1440,300,0,0,-89.534,0.586,-31.190
EX0521-092111,6,C23,prep,1500,1500,0,485519.092,0.685,-0.677,0.193,0.187,0,0,0,0,0,0,0,0,0,0.000,0,0,0.040,0.008,0.000,-0.040,0.000,0.015,0.994,0.012,-0.002,-0.008,0.002,0.000,0.000,0.000,0.000,0,2,0,3,7,255,1440,300,0,0,-89.535,0.586,-31.190
EX0521-092111,6,C23,prep,1500,1500,0,485524.091,0.685,-0.677,0.193,0.187,0,0,0,0,0,0,0,0,0,0.000,0,0,0.108,0.008,-0.060,-0.040,-0.080,0.015,0.994,0.011,0.000,-0.008,-0.002,0.000,0.000,0.000,0.000,0,2,0,3,7,255,1440,300,0,0,-89.535,0.586,-31.190
EX0521-092111,6,C23,prep,1501,1501,0,485529.092,0.685,-0.677,0.193,0.187,0,0,0,0,0,0,0,0,0,0.000,0,0,0.082,0.008,0.000,0.020,-0.080,0.014,0.994,0.012,-0.002,-0.008,0.002,0.000,0.000,0.000,0.000,0,2,0,3,7,255,1440,300,0,0,-89.535,0.586,-31.190
EX0521-092111,6,C23,prep,1501,1501,0,485534.092,0.685,-0.677,0.193,0.187,0,0,0,0,0,0,0,0,0,0.000,0,0,0.072,0.008,-0.060,-0.040,0.000,0.014,0.994,0.012,-0.006,-0.006,0.002,0.000,0.000,0.000,0.000,0,2,0,3,7,255,1440,300,0,0,-89.535,0.585,-31.190
EX0521-092111,6,C23,prep,1501,1501,0,485539.092,0.685,-0.677,0.193,0.187,0,0,0,0,0,0,0,0,0,0.000,0,0,0.040,0.010,0.000,-0.040,0.000,0.015,0.993,0.012,-0.006,-0.008,0.002,0.000,0.000,0.000,0.000,0,2,0,3,7,255,1440,300,0,0,-89.536,0.587,-31.190
EX0521-092111,6,C23,prep,1501,1501,0,485544.092,0.685,-0.677,0.193,0.187,0,0,0,0,0,0,0,0,0,0.000,0,0,0.082,0.008,0.000,0.020,-0.080,0.014,0.995,0.011,-0.006,-0.006,0.002,0.000,0.000,0.000,0.000,0,2,0,3,7,255,1440,300,0,0,-89.536,0.586,-31.190
EX0521-092111,6,C23,prep,1524,1524,0,485549.092,0.685,-0.677,0.193,0.187,0,0,0,0,0,0,0,0,0,0.000,0,0,0.089,0.008,0.000,-0.040,-0.080,0.015,0.993,0.012,-0.002,-0.008,-0.008,0.000,0.000,0.000,0.000,0,2,0,3,7,255,1440,300,0,0,-89.536,0.586,-31.190
EX0521-092111,6,C23,prep,1524,1524,0,485554.091,0.685,-0.677,0.193,0.187,0,0,0,0,0,0,0,0,0,0.000,0,0,0.089,0.002,0.000,-0.040,-0.080,0.015,0.994,0.011,-0.002,0.000,-0.002,0.000,0.000,0.000,0.000,0,2,0,3,7,255,1440,300,0,0,-89.536,0.586,-31.190
EX0521-092111,6,C23,prep,1524,1524,0,485559.093,0.685,-0.677,0.193,0.187,0,0,0,0,0,0,0,0,0,0.000,0,0,0.102,0.004,0.000,-0.100,-0.020,0.015,0.994,0.011,0.004,-0.002,-0.002,0.000,0.000,0.000,0.000,0,2,0,3,7,255,1440,300,0,0,-89.537,0.587,-31.190
EX0521-092111,6,C23,prep,1524,1524,0,485564.092,0.685,-0.677,0.193,0.187,0,0,0,0,0,0,0,0,0,0.000,0,0,0.075,0.004,-0.060,-0.040,-0.020,0.015,0.994,0.011,0.004,-0.002,-0.002,0.000,0.000,0.000,0.000,0,2,0,3,7,255,1440,300,0,0,-89.537,0.587,-31.190
EX0521-092111,6,C23,prep,1535,1535,0,485569.092,0.685,-0.677,0.193,0.187,0,0,0,0,0,0,0,0,0,0.000,0,0,0.045,0.010,0.000,-0.040,-0.020,0.016,0.994,0.011,0.008,-0.006,0.002,0.000,0.000,0.000,0.000,0,2,0,3,7,255,1440,300,0,0,-89.537,0.588,-31.190
EX0521-092111,6,C23,prep,1535,1535,0,485574.092,0.685,-0.677,0.193,0.187,0,0,0,0,0,0,0,0,0,0.000,0,0,0.045,0.007,0.000,-0.040,-0.020,0.015,0.994,0.011,0.004,-0.006,0.002,0.000,0.000,0.000,0.000,0,2,0,3,7,255,1440,300,0,0,-89.537,0.588,-31.190
EX0521-092111,6,C23,prep,1535,1535,0,485579.091,0.685,-0.677,0.193,0.187,0,0,0,0,0,0,0,0,0,0.000,0,0,0.075,0.004,-0.060,-0.040,-0.020,0.014,0.994,0.011,0.000,-0.004,-0.002,0.000,0.000,0.000,0.000,0,2,0,3,7,255,1440,300,0,0,-89.538,0.588,-31.190
EX0521-092111,6,C23,prep,1535,1535,0,485584.091,0.685,-0.677,0.193,0.187,0,0,0,0,0,0,0,0,0,0.000,0,0,0.118,0.002,-0.060,-0.100,-0.020,0.014,0.994,0.010,0.000,0.002,-0.002,0.000,0.000,0.000,0.000,0,2,0,3,7,255,1440,300,0,0,-89.538,0.588,-31.190
EX0521-092111,6,C23,prep,1567,1567,0,485589.091,0.685,-0.677,0.193,0.187,0,0,0,0,0,0,0,0,0,0.000,0,0,0.089,0.003,0.000,-0.040,-0.080,0.015,0.994,0.012,0.002,0.002,-0.002,0.000,0.000,0.000,0.000,0,2,0,3,7,255,1440,300,0,0,-89.538,0.588,-31.190
EX0521-092111,6,C23,prep,1567,1567,0,485594.092,0.685,-0.677,0.193,0.187,0,0,0,0,0,0,0,0,0,0.000,0,0,0.128,0.010,0.000,-0.100,-0.080,0.015,0.993,0.012,0.002,-0.010,-0.002,0.000,0.000,0.000,0.000,0,2,0,3,7,255,1440,300,0,0,-89.538,0.588,-31.190
EX0521-092111,6,C23,prep,1567,1567,0,485599.093,0.685,-0.677,0.193,0.187,0,0,0,0,0,0,0,0,0,0.000,0,0,0.045,0.010,0.000,-0.040,-0.020,0.014,0.993,0.012,0.002,-0.010,-0.008,0.000,0.000,0.000,0.000,0,2,0,3,7,255,1440,300,0,0,-89.539,0.587,-31.190
EX0521-092111,6,C23,prep,1567,1567,0,485604.092,0.685,-0.677,0.193,0.187,0,0,0,0,0,0,0,0,0,0.000,0,0,0.102,0.006,0.000,-0.100,-0.020,0.015,0.993,0.011,0.002,-0.006,-0.008,0.000,0.000,0.000,0.000,0,2,0,3,7,255,1440,300,0,0,-89.539,0.587,-31.190
EX0521-092111,6,C23,prep,1567,1567,0,485609.092,0.685,-0.677,0.193,0.187,0,0,0,0,0,0,0,0,0,0.000,0,0,0.108,0.006,-0.060,-0.040,-0.080,0.016,0.993,0.012,0.002,-0.006,-0.012,0.000,0.000,0.000,0.000,0,2,0,3,7,255,1440,300,0,0,-89.539,0.589,-31.190
EX0521-092111,6,C23,prep,1567,1567,0,485614.091,0.685,-0.677,0.193,0.187,0,0,0,0,0,0,0,0,0,0.000,0,0,0.075,0.003,-0.060,-0.040,-0.020,0.014,0.995,0.011,0.002,-0.002,-0.012,0.000,0.000,0.000,0.000,0,2,0,3,7,255,1440,300,0,0,-89.539,0.588,-31.190
EX0521-092111,6,C23,prep,1592,1592,0,485619.091,0.685,-0.677,0.193,0.187,0,0,0,0,0,0,0,0,0,0.000,0,0,0.028,0.004,0.000,0.020,-0.020,0.015,0.994,0.011,0.000,-0.004,-0.002,0.000,0.000,0.000,0.000,0,2,0,3,7,255,1440,300,0,0,-89.540,0.588,-31.190
EX0521-092111,6,C23,prep,1592,1592,0,485624.092,0.685,-0.677,0.193,0.187,0,0,0,0,0,0,0,0,0,0.000,0,0,0.057,0.004,0.000,-0.040,0.040,0.014,0.993,0.011,-0.004,-0.002,-0.002,0.000,0.000,0.000,0.000,0,2,0,3,7,255,1440,300,0,0,-89.540,0.588,-31.190
EX0521-092111,6,C23,prep,1594,1594,0,485629.092,0.685,-0.677,0.193,0.187,0,0,0,0,0,0,0,0,0,0.000,0,0,0.075,0.006,0.060,-0.040,-0.020,0.015,0.994,0.012,-0.004,-0.004,-0.002,0.000,0.000,0.000,0.000,0,2,0,3,7,255,1440,300,0,0,-89.540,0.588,-31.190
EX0521-092111,6,C23,prep,1594,1594,0,485634.092,0.685,-0.677,0.193,0.187,0,0,0,0,0,0,0,0,0,0.000,0,0,0.102,0.004,0.000,-0.100,-0.020,0.014,0.994,0.010,-0.004,-0.002,0.002,0.000,0.000,0.000,0.000,0,2,0,3,7,255,1440,300,0,0,-89.540,0.588,-31.190
EX0521-092111,6,C23,prep,1599,1599,0,485639.092,0.685,-0.677,0.193,0.187,0,0,0,0,0,0,0,0,0,0.000,0,0,0.066,0.004,-0.060,0.020,-0.020,0.015,0.994,0.011,0.000,-0.004,0.002,0.000,0.000,0.000,0.000,0,2,0,3,7,255,1440,300,0,0,-89.541,0.587,-31.190
EX0521-092111,6,C23,prep,1599,1599,0,485644.091,0.685,-0.677,0.193,0.187,0,0,0,0,0,0,0,0,0,0.000,0,0,0.045,0.006,0.000,-0.040,-0.020,0.014,0.994,0.010,0.000,0.006,-0.002,0.000,0.000,0.000,0.000,0,2,0,3,7,255,1440,300,0,0,-89.541,0.587,-31.190
EX0521-092111,6,C23,prep,1626,1626,0,485649.091,0.685,-0.677,0.193,0.187,0,0,0,0,0,0,0,0,0,0.000,0,0,0.075,0.006,0.060,-0.040,-0.020,0.014,0.993,0.010,0.000,0.006,-0.002,0.000,0.000,0.000,0.000,0,2,0,3,7,255,1440,300,0,0,-89.541,0.587,-31.190
EX0521-092111,6,C23,prep,1626,1626,0,485654.091,0.685,-0.677,0.193,0.187,0,0,0,0,0,0,0,0,0,0.000,0,0,0.075,0.007,-0.060,-0.040,-0.020,0.014,0.994,0.011,-0.004,0.006,-0.002,0.000,0.000,0.000,0.000,0,2,0,3,7,255,1440,300,0,0,-89.541,0.587,-31.190
EX0521-092111,6,C23,prep,1626,1626,0,485659.092,0.685,-0.677,0.193,0.187,0,0,0,0,0,1,0,0,0,0.000,0,0,0.045,0.004,0.000,-0.040,-0.020,0.015,0.993,0.011,-0.004,-0.002,-0.006,0.000,0.000,0.000,0.000,0,2,0,3,7,255,1440,300,0,0,-89.542,0.587,-31.190
EX0521-092111,6,C23,prep,1626,1626,0,485664.092,0.685,-0.677,0.193,0.187,0,0,0,0,0,0,0,0,0,0.000,0,0,0.045,0.004,0.000,-0.040,-0.020,0.015,0.994,0.011,0.000,-0.004,0.002,0.000,0.000,0.000,0.000,0,2,0,3,7,255,1440,300,0,0,-89.542,0.587,-31.190
EX0521-092111,6,C23,prep,1627,1627,0,485669.092,0.685,-0.677,0.193,0.187,0,0,0,0,0,0,0,0,0,0.000,0,0,0.045,0.007,0.000,-0.040,-0.020,0.016,0.994,0.010,0.006,-0.004,-0.002,0.000,0.000,0.000,0.000,0,2,0,3,7,255,1440,300,0,0,-89.542,0.588,-31.190
EX0521-092111,6,C23,prep,1627,1627,0,485674.091,0.685,-0.677,0.193,0.187,0,0,0,0,0,0,0,0,0,0.000,0,0,0.045,0.012,0.000,-0.040,-0.020,0.015,0.994,0.010,0.012,-0.002,0.002,0.000,0.000,0.000,0.000,0,2,0,3,7,255,1440,300,0,0,-89.542,0.588,-31.190
EX0521-092111,6,C23,prep,1659,1659,0,485679.091,0.685,-0.677,0.193,0.187,0,0,0,0,0,0,0,0,0,0.000,0,0,0.028,0.012,0.000,0.020,-0.020,0.014,0.994,0.011,0.012,0.000,-0.002,0.000,0.000,0.000,0.000,0,2,0,3,7,255,1440,300,0,0,-89.543,0.588,-31.190
EX0521-092111,6,C23,prep,1659,1659,0,485684.091,0.685,-0.677,0.193,0.187,0,0,0,0,0,0,0,0,0,0.000,0,0,0.118,0.007,-0.060,-0.100,-0.020,0.014,0.993,0.010,-0.004,0.006,-0.002,0.000,0.000,0.000,0.000,0,2,0,3,7,255,1440,300,0,0,-89.543,0.587,-31.190
EX0521-092111,6,C23,prep,1664,1664,0,485689.092,0.685,-0.677,0.193,0.187,0,0,0,0,0,0,0,0,0,0.000,0,0,0.045,0.006,0.000,-0.040,-0.020,0.015,0.994,0.012,-0.006,0.000,-0.002,0.000,0.000,0.000,0.000,0,2,0,3,7,255,1440,300,0,0,-89.543,0.587,-31.190
EX0521-092111,6,C23,prep,1664,1664,0,485694.092,0.685,-0.677,0.193,0.187,0,0,0,0,0,0,0,0,0,0.000,0,0,0.045,0.007,0.000,-0.040,-0.020,0.014,0.994,0.011,-0.006,0.004,0.002,0.000,0.000,0.000,0.000,0,2,0,3,7,255,1440,300,0,0,-89.543,0.587,-31.190
EX0521-092111,6,C23,prep,1664,1664,0,485699.093,0.685,-0.677,0.193,0.187,0,0,0,0,0,0,0,0,0,0.000,0,0,0.028,0.008,0.000,0.020,-0.020,0.014,0.994,0.012,-0.006,-0.006,0.002,0.000,0.000,0.000,0.000,0,2,0,3,7,255,1440,300,0,0,-89.544,0.587,-31.190
EX0521-092111,6,C23,prep,1664,1664,0,485704.092,0.685,-0.677,0.193,0.187,0,0,0,0,0,0,0,0,0,0.000,0,0,0.045,0.007,0.000,-0.040,-0.020,0.015,0.995,0.011,-0.006,-0.004,0.002,0.000,0.000,0.000,0.000,0,2,0,3,7,255,1440,300,0,0,-89.544,0.587,-31.190
EX0521-092111,6,C23,prep,1665,1665,0,485709.091,0.685,-0.677,0.193,0.187,0,0,0,0,0,0,0,0,0,0.000,0,0,0.075,0.006,-0.060,-0.040,-0.020,0.014,0.994,0.010,-0.004,-0.004,0.002,0.000,0.000,0.000,0.000,0,2,0,3,7,255,1440,300,0,0,-89.544,0.586,-31.190
EX0521-092111,6,C23,prep,1665,1665,0,485714.091,0.685,-0.677,0.193,0.187,0,0,0,0,0,0,0,0,0,0.000,0,0,0.089,0.004,0.000,-0.040,-0.080,0.015,0.993,0.011,0.000,-0.004,0.002,0.000,0.000,0.000,0.000,0,2,0,3,7,255,1440,300,0,0,-89.544,0.586,-31.190
EX0521-092111,6,C23,prep,1696,1696,0,485719.092,0.685,-0.677,0.193,0.187,0,0,0,0,0,0,0,0,0,0.000,0,0,0.108,0.006,0.060,-0.040,-0.080,0.014,0.993,0.011,-0.004,0.004,-0.008,0.000,0.000,0.000,0.000,0,2,0,3,7,255,1440,300,0,0,-89.545,0.586,-31.190
EX0521-092111,6,C23,prep,1696,1696,0,485724.092,0.685,-0.677,0.193,0.187,0,0,0,0,0,0,0,0,0,0.000,0,0,0.089,0.006,0.000,-0.040,-0.080,0.015,0.994,0.012,-0.002,-0.006,-0.008,0.000,0.000,0.000,0.000,0,2,0,3,7,255,1440,300,0,0,-89.545,0.586,-31.190
EX0521-092111,6,C23,prep,1697,1697,0,485729.092,0.685,-0.677,0.193,0.187,0,0,0,0,0,0,0,0,0,0.000,0,0,0.102,0.010,0.000,-0.100,-0.020,0.015,0.994,0.012,-0.002,-0.010,0.002,0.000,0.000,0.000,0.000,0,2,0,3,7,255,1440,300,0,0,-89.545,0.586,-31.190
EX0521-092111,6,C23,prep,1697,1697,0,485734.092,0.685,-0.677,0.193,0.187,0,0,0,0,0,0,0,0,0,0.000,0,0,0.108,0.010,-0.060,-0.040,-0.080,0.016,0.994,0.011,-0.002,-0.010,0.002,0.000,0.000,0.000,0.000,0,2,0,3,7,255,1440,300,0,0,-89.545,0.587,-31.190
EX0521-092111,6,C23,prep,1698,1698,0,485739.092,0.685,-0.677,0.193,0.187,0,0,0,0,0,0,0,0,0,0.000,0,0,0.045,0.010,0.000,-0.040,-0.020,0.014,0.994,0.011,-0.002,-0.010,0.002,0.000,0.000,0.000,0.000,0,2,0,3,7,255,1440,300,0,0,-89.546,0.587,-31.190
EX0521-092111,6,C23,prep,1698,1698,0,485744.091,0.685,-0.677,0.193,0.187,0,0,0,0,0,0,0,0,0,0.000,0,0,0.045,0.003,0.000,-0.040,-0.020,0.014,0.994,0.011,-0.002,-0.002,0.002,0.000,0.000,0.000,0.000,0,2,0,3,7,255,1440,300,0,0,-89.546,0.587,-31.190
EX0521-092111,6,C23,prep,1719,1719,0,485749.091,0.685,-0.677,0.193,0.187,0,0,0,0,0,0,0,0,0,0.000,0,0,0.141,0.003,-0.060,-0.100,-0.080,0.015,0.994,0.011,-0.002,-0.002,0.002,0.000,0.000,0.000,0.000,0,2,0,3,7,255,1440,300,0,0,-89.546,0.587,-31.190
EX0521-092111,6,C23,prep,1719,1719,0,485754.092,0.685,-0.677,0.193,0.187,0,0,0,0,0,0,0,0,0,0.000,0,0,0.045,0.004,0.000,-0.040,-0.020,0.015,0.995,0.011,0.000,-0.004,0.002,0.000,0.000,0.000,0.000,0,2,0,3,7,255,1440,300,0,0,-89.546,0.586,-31.190
EX0521-092111,6,C23,prep,1720,1720,0,485759.094,0.685,-0.677,0.193,0.187,0,0,0,0,0,0,0,0,0,0.000,0,0,0.045,0.004,0.000,-0.040,-0.020,0.015,0.994,0.012,0.000,-0.004,0.002,0.000,0.000,0.000,0.000,0,2,0,3,7,255,1440,300,0,0,-89.547,0.586,-31.190
EX0521-092111,6,C23,prep,1720,1720,0,485764.092,0.685,-0.677,0.193,0.187,0,0,0,0,0,0,0,0,0,0.000,0,0,0.108,0.004,-0.060,-0.040,-0.080,0.013,0.995,0.011,-0.002,-0.004,0.008,0.000,0.000,0.000,0.000,0,2,0,3,7,255,1440,300,0,0,-89.547,0.586,-31.190
EX0521-092111,6,C23,prep,1727,1727,0,485769.091,0.685,-0.677,0.193,0.187,0,0,0,0,0,0,0,0,0,0.000,0,0,0.075,0.008,-0.060,-0.040,-0.020,0.014,0.994,0.011,-0.008,0.000,0.002,0.000,0.000,0.000,0.000,0,2,0,3,7,255,1440,300,0,0,-89.547,0.586,-31.190
EX0521-092111,6,C23,prep,1727,1727,0,485774.091,0.685,-0.677,0.193,0.187,0,0,0,0,0,0,0,0,0,0.000,0,0,0.028,0.008,0.000,0.020,-0.020,0.015,0.993,0.011,-0.008,0.000,0.002,0.000,0.000,0.000,0.000,0,2,0,3,7,255,1440,300,0,0,-89.547,0.587,-31.190
EX0521-092111,6,C23,prep,1775,1775,0,485779.091,0.685,-0.677,0.193,0.187,0,0,0,0,0,0,0,0,0,0.000,0,0,0.045,0.008,0.000,-0.040,-0.020,0.016,0.994,0.012,0.002,-0.008,0.002,0.000,0.000,0.000,0.000,0,2,0,3,7,255,1440,300,0,0,-89.548,0.588,-31.190
EX0521-092111,6,C23,prep,1775,1775,0,485784.092,0.685,-0.677,0.193,0.187,0,0,0,0,0,0,0,0,0,0.000,0,0,0.075,0.008,-0.060,-0.040,-0.020,0.015,0.994,0.012,0.002,-0.008,-0.002,0.000,0.000,0.000,0.000,0,2,0,3,7,255,1440,300,0,0,-89.548,0.588,-31.190
EX0521-092111,6,C23,prep,1775,1775,0,485789.092,0.685,-0.677,0.193,0.187,0,0,0,0,0,0,0,0,0,0.000,0,0,0.128,0.010,0.000,-0.100,-0.080,0.015,0.995,0.012,0.002,-0.010,0.002,0.000,0.000,0.000,0.000,0,2,0,3,7,255,1440,300,0,0,-89.548,0.588,-31.190
EX0521-092111,6,C23,prep,1775,1775,0,485794.092,0.685,-0.677,0.193,0.187,0,0,0,0,0,0,0,0,0,0.000,0,0,0.102,0.008,0.000,-0.100,-0.020,0.014,0.994,0.011,-0.002,-0.008,-0.002,0.000,0.000,0.000,0.000,0,2,0,3,7,255,1440,300,0,0,-89.548,0.588,-31.190
EX0521-092111,6,C23,prep,1775,1775,0,485799.095,0.685,-0.677,0.193,0.187,0,0,0,0,0,0,0,0,0,0.000,0,0,0.045,0.013,0.000,-0.040,-0.020,0.014,0.994,0.012,-0.008,-0.010,-0.002,0.000,0.000,0.000,0.000,0,2,0,3,7,255,1440,300,0,0,-89.549,0.588,-31.190
EX0521-092111,6,C23,prep,1775,1775,0,485804.091,0.685,-0.677,0.193,0.187,0,0,0,0,0,0,0,0,0,0.000,0,0,0.075,0.010,-0.060,-0.040,-0.020,0.015,0.994,0.011,-0.008,-0.006,-0.002,0.000,0.000,0.000,0.000,0,2,0,3,7,255,1440,300,0,0,-89.549,0.588,-31.190
EX0521-092111,6,C23,prep,1796,1796,0,485809.091,0.685,-0.677,0.193,0.187,0,0,0,0,0,0,0,0,0,0.000,0,0,0.045,0.010,0.000,-0.040,-0.020,0.016,0.993,0.012,0.002,-0.010,-0.002,0.000,0.000,0.000,0.000,0,2,0,3,7,255,1440,300,0,0,-89.549,0.589,-31.190
EX0521-092111,6,C23,prep,1796,1796,0,485814.091,0.685,-0.677,0.193,0.187,0,0,0,0,0,0,0,0,0,0.000,0,0,0.057,0.008,0.000,-0.040,0.040,0.015,0.993,0.012,0.002,-0.008,-0.008,0.000,0.000,0.000,0.000,0,2,0,3,7,255,1440,300,0,0,-89.549,0.589,-31.190
EX0521-092111,6,C23,prep,1797,1797,0,485819.092,0.685,-0.677,0.193,0.187,0,0,0,0,0,0,0,0,0,0.000,0,0,0.045,0.010,0.000,-0.040,-0.020,0.014,0.994,0.012,-0.002,-0.010,-0.008,0.000,0.000,0.000,0.000,0,2,0,3,7,255,1440,300,0,0,-89.550,0.589,-31.190
EX0521-092111,6,C23,prep,1797,1797,0,485824.092,0.685,-0.677,0.193,0.187,0,0,0,0,0,0,0,0,0,0.000,0,0,0.089,0.011,0.000,-0.040,-0.080,0.014,0.994,0.011,-0.008,-0.008,0.002,0.000,0.000,0.000,0.000,0,2,0,3,7,255,1440,300,0,0,-89.550,0.588,-31.190
EX0521-092111,6,C23,prep,1798,1798,0,485829.092,0.685,-0.677,0.193,0.187,0,0,0,0,0,0,0,0,0,0.000,0,0,0.141,0.010,0.060,-0.100,-0.080,0.013,0.994,0.011,-0.010,0.000,0.002,0.000,0.000,0.000,0.000,0,2,0,3,7,255,1440,300,0,0,-89.550,0.588,-31.190
EX0521-092111,6,C23,prep,1798,1798,0,485834.091,0.685,-0.677,0.193,0.187,0,0,0,0,0,0,0,0,0,0.000,0,0,0.045,0.008,0.000,-0.040,-0.020,0.015,0.994,0.011,-0.008,0.000,0.002,0.000,0.000,0.000,0.000,0,2,0,3,7,255,1440,300,0,0,-89.550,0.588,-31.190
EX0521-092111,6,C23,prep,1799,1799,0,485839.092,0.685,-0.677,0.193,0.187,0,0,0,0,0,0,0,0,0,0.000,0,0,0.089,0.003,0.000,-0.040,-0.080,0.015,0.994,0.012,-0.002,-0.002,0.002,0.000,0.000,0.000,0.000,0,2,0,3,7,255,1440,300,0,0,-89.551,0.588,-31.190
EX0521-092111,6,C23,prep,1799,1799,0,485844.091,0.685,-0.677,0.193,0.187,0,0,0,0,0,0,0,0,0,0.000,0,0,0.045,0.008,0.000,-0.040,-0.020,0.015,0.994,0.012,0.002,-0.008,0.002,0.000,0.000,0.000,0.000,0,2,0,3,7,255,1440,300,0,0,-89.551,0.588,-31.190
EX0521-092111,6,C23,prep,1807,1807,0,485849.092,0.685,-0.677,0.193,0.187,0,0,0,0,0,0,0,0,0,0.000,0,0,0.089,0.008,0.000,-0.040,-0.080,0.014,0.993,0.011,-0.002,-0.008,0.002,0.000,0.000,0.000,0.000,0,2,0,3,7,255,1440,300,0,0,-89.551,0.587,-31.190
EX0521-092111,6,C23,prep,1807,1807,0,485854.092,0.685,-0.677,0.193,0.187,0,0,0,0,0,0,0,0,0,0.000,0,0,0.045,0.002,0.000,-0.040,-0.020,0.015,0.994,0.010,0.002,0.000,0.002,0.000,0.000,0.000,0.000,0,2,0,3,7,255,1440,300,0,0,-89.551,0.587,-31.190
EX0521-092111,6,C23,prep,1823,1823,0,485859.092,0.685,-0.677,0.193,0.187,0,0,0,0,0,0,0,0,0,0.000,0,0,0.102,0.002,-0.060,0.020,-0.080,0.015,0.994,0.011,0.002,0.000,0.002,0.000,0.000,0.000,0.000,0,2,0,3,7,255,1440,300,0,0,-89.552,0.587,-31.190
EX0521-092111,6,C23,prep,1823,1823,0,485864.091,0.685,-0.677,0.193,0.187,0,0,0,0,0,0,0,0,0,0.000,0,0,0.045,0.002,0.000,-0.040,-0.020,0.015,0.995,0.011,0.002,0.000,0.002,0.000,0.000,0.000,0.000,0,2,0,3,7,255,1440,300,0,0,-89.552,0.587,-31.190
EX0521-092111,6,C23,prep,1839,1839,0,485869.091,0.685,-0.677,0.193,0.187,0,0,0,0,0,0,0,0,0,0.000,0,0,0.028,0.002,0.000,0.020,-0.020,0.015,0.995,0.011,0.002,0.000,0.008,0.000,0.000,0.000,0.000,0,2,0,3,7,255,1440,300,0,0,-89.552,0.587,-31.190
EX0521-092111,6,C23,prep,1839,1839,0,485874.091,0.685,-0.677,0.193,0.187,0,0,0,0,0,0,0,0,0,0.000,0,0,0.045,0.003,0.000,-0.040,-0.020,0.014,0.994,0.012,0.002,-0.002,0.008,0.000,0.000,0.000,0.000,0,2,0,3,7,255,1440,300,0,0,-89.552,0.587,-31.190
EX0521-092111,6,C23,prep,1839,1839,0,485879.092,0.685,-0.677,0.193,0.187,0,0,0,0,0,0,0,0,0,0.000,0,0,0.045,0.008,0.000,-0.040,-0.020,0.016,0.996,0.012,0.006,-0.006,0.008,0.000,0.000,0.000,0.000,0,2,0,3,7,255,1440,300,0,0,-89.553,0.588,-31.190
EX0521-092111,6,C23,prep,1839,1839,0,485884.092,0.685,-0.677,0.193,0.187,0,0,0,0,0,0,0,0,0,0.000,0,0,0.118,0.006,-0.060,-0.100,-0.020,0.014,0.994,0.011,-0.002,-0.006,0.002,0.000,0.000,0.000,0.000,0,2,0,3,7,255,1440,300,0,0,-89.553,0.588,-31.190
EX0521-092111,6,C23,prep,1871,1871,0,485889.092,0.685,-0.677,0.193,0.187,0,0,0,0,0,0,0,0,0,0.000,0,0,0.028,0.003,0.000,0.020,-0.020,0.014,0.994,0.009,0.002,0.002,0.002,0.000,0.000,0.000,0.000,0,2,0,3,7,255,1440,300,0,0,-89.553,0.588,-31.190
EX0521-092111,6,C23,prep,1871,1871,0,485894.092,0.685,-0.677,0.193,0.187,0,0,0,0,0,0,0,0,0,0.000,0,0,0.028,0.006,0.000,0.020,-0.020,0.013,0.994,0.011,-0.002,0.006,0.002,0.000,0.000,0.000,0.000,0,2,0,3,7,255,1440,300,0,0,-89.553,0.587,-31.190
EX0521-092111,6,C23,prep,1871,1871,0,485899.093,0.685,-0.677,0.193,0.187,0,0,0,0,0,0,0,0,0,0.000,0,0,0.045,0.008,0.000,-0.040,-0.020,0.014,0.994,0.012,-0.006,0.006,-0.002,0.000,0.000,0.000,0.000,0,2,0,3,7,255,1440,300,0,0,-89.554,0.587,-31.190
EX0521-092111,6,C23,prep,1871,1871,0,485904.091,0.685,-0.677,0.193,0.187,0,0,0,0,0,0,0,0,0,0.000,0,0,0.045,0.006,0.000,-0.040,-0.020,0.014,0.995,0.011,-0.006,0.002,0.002,0.000,0.000,0.000,0.000,0,2,0,3,7,255,1440,300,0,0,-89.554,0.587,-31.190
EX0521-092111,6,C23,prep,1871,1871,0,485909.091,0.685,-0.677,0.193,0.187,0,0,0,0,0,0,0,0,0,0.000,0,0,0.028,0.003,0.000,0.020,-0.020,0.014,0.995,0.011,-0.002,0.002,0.006,0.000,0.000,0.000,0.000,0,2,0,3,7,255,1440,300,0,0,-89.554,0.587,-31.190
EX0521-092111,6,C23,prep,1871,1871,0,485914.092,0.685,-0.677,0.193,0.187,0,0,0,0,0,0,0,0,0,0.000,0,0,0.075,0.003,-0.060,-0.040,-0.020,0.014,0.994,0.011,-0.002,0.002,0.006,0.000,0.000,0.000,0.000,0,2,0,3,7,255,1440,300,0,0,-89.554,0.587,-31.190
EX0521-092111,6,C23,prep,1888,1888,0,485919.092,0.685,-0.677,0.193,0.187,0,0,0,0,0,0,0,0,0,0.000,0,0,0.141,0.006,0.060,-0.100,-0.080,0.014,0.993,0.011,-0.006,0.002,-0.002,0.000,0.000,0.000,0.000,0,2,0,3,7,255,1440,300,0,0,-89.555,0.586,-31.190
EX0521-092111,6,C23,prep,1888,1888,0,485924.092,0.685,-0.677,0.193,0.187,0,0,0,0,0,0,0,0,0,0.000,0,0,0.045,0.006,0.000,-0.040,-0.020,0.015,0.993,0.011,-0.006,0.000,-0.008,0.000,0.000,0.000,0.000,0,2,0,3,7,255,1440,300,0,0,-89.555,0.588,-31.190
EX0521-092111,6,C23,prep,1888,1888,0,485929.092,0.685,-0.677,0.193,0.187,0,0,0,0,0,0,0,0,0,0.000,0,0,0.102,0.006,0.000,-0.100,-0.020,0.014,0.995,0.011,-0.006,0.000,-0.008,0.000,0.000,0.000,0.000,0,2,0,3,7,255,1440,300,0,0,-89.555,0.588,-31.190
EX0521-092111,6,C23,prep,1888,1888,0,485934.091,0.685,-0.677,0.193,0.187,0,0,0,0,0,0,0,0,0,0.000,0,0,0.150,0.004,0.120,-0.040,-0.080,0.015,0.994,0.012,-0.002,-0.004,0.002,0.000,0.000,0.000,0.000,0,2,0,3,7,255,1440,300,0,0,-89.555,0.587,-31.190
EX0521-092111,6,C23,prep,1903,1903,0,485939.092,0.685,-0.677,0.193,0.187,0,0,0,0,0,0,0,0,0,0.000,0,0,0.028,0.007,0.000,0.020,-0.020,0.014,0.995,0.012,-0.006,-0.004,0.006,0.000,0.000,0.000,0.000,0,2,0,3,7,255,1440,300,0,0,-89.556,0.587,-31.190
EX0521-092111,6,C23,prep,1903,1903,0,485944.092,0.685,-0.677,0.193,0.187,0,0,0,0,0,0,0,0,0,0.000,0,0,0.128,0.004,0.000,-0.100,-0.080,0.014,0.994,0.011,-0.002,-0.004,0.002,0.000,0.000,0.000,0.000,0,2,0,3,7,255,1440,300,0,0,-89.556,0.587,-31.190
EX0521-092111,6,C23,prep,1903,1903,0,485949.092,0.685,-0.677,0.193,0.187,0,0,0,0,0,0,0,0,0,0.000,0,0,0.045,0.003,0.000,-0.040,-0.020,0.014,0.994,0.010,-0.002,0.002,0.002,0.000,0.000,0.000,0.000,0,2,0,3,7,255,1440,300,0,0,-89.556,0.587,-31.190
EX0521-092111,6,C23,prep,1903,1903,0,485954.092,0.685,-0.677,0.193,0.187,0,0,0,0,0,0,0,0,0,0.000,0,0,0.066,0.003,-0.060,0.020,-0.020,0.015,0.994,0.012,-0.002,0.002,0.002,0.000,0.000,0.000,0.000,0,2,0,3,7,255,1440,300,0,0,-89.556,0.587,-31.190
EX0521-092111,6,C23,prep,1922,1922,0,485959.095,0.685,-0.677,0.193,0.187,0,0,0,0,0,0,0,0,0,0.000,0,0,0.057,0.004,0.000,-0.040,0.040,0.014,0.994,0.011,-0.004,0.000,-0.002,0.000,0.000,0.000,0.000,0,2,0,3,7,255,1440,300,0,0,-89.557,0.586,-31.190
EX0521-092111,6,C23,prep,1922,1922,0,485964.091,0.685,-0.677,0.193,0.187,0,0,0,0,0,0,0,0,0,0.000,0,0,0.057,0.004,0.000,-0.040,0.040,0.016,0.995,0.009,-0.004,0.000,0.002,0.000,0.000,0.000,0.000,0,2,0,3,7,255,1440,300,0,0,-89.557,0.588,-31.190
EX0521-092111,6,C23,prep,1935,1935,0,485969.091,0.685,-0.677,0.193,0.187,0,0,0,0,0,0,0,0,0,0.000,0,0,0.045,0.004,0.000,-0.040,-0.020,0.014,0.995,0.011,-0.004,0.000,0.006,0.000,0.000,0.000,0.000,0,2,0,3,7,255,1440,300,0,0,-89.557,0.588,-31.190
EX0521-092111,6,C23,prep,1935,1935,0,485974.091,0.685,-0.677,0.193,0.187,0,0,0,0,0,0,0,0,0,0.000,0,0,0.102,0.002,0.000,-0.100,-0.020,0.015,0.995,0.011,0.000,-0.002,0.012,0.000,0.000,0.000,0.000,0,2,0,3,7,255,1440,300,0,0,-89.557,0.587,-31.190
EX0521-092111,6,C23,prep,1935,1935,0,485979.092,0.685,-0.677,0.193,0.187,0,0,0,0,0,0,0,0,0,0.000,0,0,0.075,0.004,-0.060,-0.040,-0.020,0.015,0.994,0.012,0.000,-0.004,0.012,0.000,0.000,0.000,0.000,0,2,0,3,7,255,1440,300,0,0,-89.558,0.587,-31.190
EX0521-092111,6,C23,prep,1935,1935,0,485984.092,0.685,-0.677,0.193,0.187,0,0,0,0,0,0,0,0,0,0.000,0,0,0.045,0.004,0.000,-0.040,-0.020,0.014,0.995,0.011,0.000,-0.004,0.012,0.000,0.000,0.000,0.000,0,2,0,3,7,255,1440,300,0,0,-89.558,0.587,-31.190
EX0521-092111,6,C23,prep,1967,1967,0,485989.092,0.685,-0.677,0.193,0.187,0,0,0,0,0,0,0,0,0,0.000,0,0,0.075,0.006,-0.060,-0.040,-0.020,0.015,0.994,0.011,0.000,-0.006,0.002,0.000,0.000,0.000,0.000,0,2,0,3,7,255,1440,300,0,0,-89.558,0.587,-31.190
EX0521-092111,6,C23,prep,1967,1967,0,485994.091,0.685,-0.677,0.193,0.187,0,0,0,0,0,0,0,0,0,0.000,0,0,0.118,0.004,-0.060,-0.100,-0.020,0.014,0.994,0.011,-0.004,-0.002,-0.004,0.000,0.000,0.000,0.000,0,2,0,3,7,255,1440,300,0,0,-89.558,0.587,-31.190
EX0521-092111,6,C23,prep,1967,1967,0,485999.093,0.685,-0.677,0.193,0.187,0,0,0,0,0,0,0,0,0,0.000,0,0,0.045,0.006,0.000,-0.040,-0.020,0.015,0.995,0.012,0.000,-0.006,-0.004,0.000,0.000,0.000,0.000,0,2,0,3,7,255,1440,300,0,0,-89.559,0.587,-31.190
EX0521-092111,6,C23,prep,1967,1967,0,486004.091,0.685,-0.677,0.193,0.187,0,0,0,0,0,0,0,0,0,0.000,0,0,0.045,0.012,0.000,-0.040,-0.020,0.016,0.994,0.012,0.002,-0.012,-0.004,0.000,0.000,0.000,0.000,0,2,0,3,7,255,1440,300,0,0,-89.559,0.588,-31.190
EX0521-092111,6,C23,prep,1967,1967,0,486009.092,0.685,-0.677,0.193,0.187,0,0,0,0,0,0,0,0,0,0.000,0,0,0.045,0.012,0.000,-0.040,-0.020,0.014,0.995,0.012,0.002,-0.012,0.006,0.000,0.000,0.000,0.000,0,2,0,3,7,255,1440,300,0,0,-89.559,0.588,-31.190
EX0521-092111,6,C23,prep,1967,1967,0,486014.092,0.685,-0.677,0.193,0.187,0,0,0,0,0,0,0,0,0,0.000,0,0,0.128,0.012,0.000,-0.100,-0.080,0.016,0.994,0.010,0.006,-0.010,0.002,0.000,0.000,0.000,0.000,0,2,0,3,7,255,1440,300,0,0,-89.559,0.589,-31.190
EX0521-092111,6,C23,prep,1990,1990,0,486019.092,0.685,-0.677,0.193,0.187,0,0,0,0,0,0,0,0,0,0.000,0,0,0.089,0.007,0.000,-0.040,-0.080,0.015,0.995,0.011,0.006,-0.004,0.006,0.000,0.000,0.000,0.000,0,2,0,3,7,255,1440,300,0,0,-89.560,0.589,-31.190
EX0521-092111,6,C23,prep,1990,1990,0,486024.092,0.685,-0.677,0.193,0.187,0,0,0,0,0,0,0,0,0,0.000,0,0,0.045,0.006,0.000,-0.040,-0.020,0.015,0.995,0.011,0.006,-0.002,0.006,0.000,0.000,0.000,0.000,0,2,0,3,7,255,1440,300,0,0,-89.560,0.589,-31.190
EX0521-092111,6,C23,prep,1991,1991,0,486029.091,0.685,-0.677,0.193,0.187,0,0,0,0,0,0,0,0,0,0.000,0,0,0.028,0.006,0.000,0.020,-0.020,0.015,0.995,0.010,0.006,0.000,0.006,0.000,0.000,0.000,0.000,0,2,0,3,7,255,1440,300,0,0,-89.560,0.589,-31.190
EX0521-092111,6,C23,prep,1991,1991,0,486034.091,0.685,-0.677,0.193,0.187,0,0,0,0,0,0,0,0,0,0.000,0,0,0.045,0.002,0.000,-0.040,-0.020,0.015,0.994,0.012,0.002,0.000,0.006,0.000,0.000,0.000,0.000,0,2,0,3,7,255,1440,300,0,0,-89.560,0.588,-31.190
EX0521-092111,6,C23,prep,1992,1992,0,486039.092,0.685,-0.677,0.193,0.187,0,0,0,0,0,0,0,0,0,0.000,0,0,0.108,0.004,0.060,-0.040,-0.080,0.015,0.993,0.011,0.000,-0.004,-0.004,0.000,0.000,0.000,0.000,0,2,0,3,7,255,1440,300,0,0,-89.561,0.588,-31.190
EX0521-092111,6,C23,prep,1992,1992,0,486044.092,0.685,-0.677,0.193,0.187,0,0,0,0,0,0,0,0,0,0.000,0,0,0.045,0.006,0.000,-0.040,-0.020,0.014,0.993,0.012,0.000,-0.006,-0.008,0.000,0.000,0.000,0.000,0,2,0,3,7,255,1440,300,0,0,-89.561,0.588,-31.190
EX0521-092111,6,C23,prep,2027,2027,0,486049.092,0.685,-0.677,0.193,0.187,0,0,0,0,0,0,0,0,0,0.000,0,0,0.057,0.004,0.000,-0.040,0.040,0.015,0.993,0.010,0.000,-0.004,-0.008,0.000,0.000,0.000,0.000,0,2,0,3,7,255,1440,300,0,0,-89.561,0.588,-31.190
EX0521-092111,6,C23,prep,2027,2027,0,486054.092,0.685,-0.677,0.193,0.187,0,0,0,0,0,0,0,0,0,0.000,0,0,0.108,0.004,-0.060,-0.040,-0.080,0.015,0.993,0.011,0.000,-0.004,-0.008,0.000,0.000,0.000,0.000,0,2,0,3,7,255,1440,300,0,0,-89.561,0.588,-31.190
EX0521-092111,6,C23,prep,2027,2027,0,486059.091,0.685,-0.677,0.193,0.187,0,0,0,0,0,0,0,0,0,0.000,0,0,0.102,0.006,0.000,-0.100,-0.020,0.015,0.993,0.011,0.004,-0.004,-0.008,0.000,0.000,0.000,0.000,0,2,0,3,7,255,1440,300,0,0,-89.562,0.587,-31.190
EX0521-092111,6,C23,prep,2027,2027,0,486064.093,0.685,-0.677,0.193,0.187,0,0,0,0,0,0,0,0,0,0.000,0,0,0.089,0.008,0.000,-0.040,-0.080,0.015,0.993,0.012,0.000,-0.008,-0.008,0.000,0.000,0.000,0.000,0,2,0,3,7,255,1440,300,0,0,-89.562,0.587,-31.190
EX0521-092111,6,C23,prep,2028,2028,0,486069.091,0.685,-0.677,0.193,0.187,0,0,0,0,0,0,0,0,0,0.000,0,0,0.028,0.008,0.000,0.020,-0.020,0.014,0.994,0.011,-0.002,-0.008,-0.008,0.000,0.000,0.000,0.000,0,2,0,3,7,255,1440,300,0,0,-89.562,0.587,-31.190
EX0521-092111,6,C23,prep,2028,2028,0,486074.092,0.685,-0.677,0.193,0.187,0,0,0,0,0,0,0,0,0,0.000,0,0,0.045,0.010,0.000,-0.040,-0.020,0.016,0.994,0.011,-0.002,-0.010,0.002,0.000,0.000,0.000,0.000,0,2,0,3,7,255,1440,300,0,0,-89.562,0.588,-31.190
EX0521-092111,6,C23,prep,2060,2060,0,486079.092,0.685,-0.677,0.193,0.187,0,0,0,0,0,0,0,0,0,0.000,0,0,0.075,0.010,0.060,-0.040,-0.020,0.015,0.994,0.012,0.000,-0.010,0.002,0.000,0.000,0.000,0.000,0,2,0,3,7,255,1440,300,0,0,-89.563,0.588,-31.190
EX0521-092111,6,C23,prep,2060,2060,0,486084.092,0.685,-0.677,0.193,0.187,0,0,0,0,0,0,0,0,0,0.000,0,0,0.045,0.010,0.000,-0.040,-0.020,0.014,0.995,0.012,0.000,-0.010,0.002,0.000,0.000,0.000,0.000,0,2,0,3,7,255,1440,300,0,0,-89.563,0.588,-31.190
EX0521-092111,6,C23,prep,2093,2093,0,486089.092,0.685,-0.677,0.193,0.187,0,0,0,0,0,0,0,0,0,0.000,0,0,0.075,0.007,-0.060,-0.040,-0.020,0.014,0.993,0.011,-0.004,-0.006,0.002,0.000,0.000,0.000,0.000,0,2,0,3,7,255,1440,300,0,0,-89.563,0.588,-31.190
EX0521-092111,6,C23,prep,2093,2093,0,486094.091,0.685,-0.677,0.193,0.187,0,0,0,0,0,0,0,0,0,0.000,0,0,0.045,0.004,0.000,-0.040,-0.020,0.014,0.994,0.011,-0.004,-0.002,-0.004,0.000,0.000,0.000,0.000,0,2,0,3,7,255,1440,300,0,0,-89.563,0.588,-31.190
EX0521-092111,6,C23,prep,2093,2093,0,486099.094,0.685,-0.677,0.193,0.187,0,0,0,0,0,0,0,0,0,0.000,0,0,0.045,0.004,0.000,-0.040,-0.020,0.014,0.995,0.011,-0.004,-0.002,-0.004,0.000,0.000,0.000,0.000,0,2,0,3,7,255,1440,300,0,0,-89.564,0.588,-31.190
EX0521-092111,6,C23,prep,2093,2093,0,486104.092,0.685,-0.677,0.193,0.187,0,0,0,0,0,0,0,0,0,0.000,0,0,0.108,0.004,-0.060,-0.040,-0.080,0.014,0.994,0.011,-0.004,0.002,0.002,0.000,0.000,0.000,0.000,0,2,0,3,7,255,1440,300,0,0,-89.564,0.587,-31.190
EX0521-092111,6,C23,prep,2093,2093,0,486109.092,0.685,-0.677,0.193,0.187,0,0,0,0,0,0,0,0,0,0.000,0,0,0.075,0.004,-0.060,-0.040,-0.020,0.014,0.993,0.011,-0.004,-0.002,0.002,0.000,0.000,0.000,0.000,0,2,0,3,7,255,1440,300,0,0,-89.564,0.587,-31.190
EX0521-092111,6,C23,prep,2093,2093,0,486114.092,0.685,-0.677,0.193,0.187,0,0,0,0,0,0,0,0,0,0.000,0,0,0.141,0.004,-0.060,-0.100,-0.080,0.016,0.994,0.011,-0.004,-0.002,0.002,0.000,0.000,0.000,0.000,0,2,0,3,7,255,1440,300,0,0,-89.564,0.589,-31.190
EX0521-092111,6,C23,prep,2095,2095,0,486119.092,0.685,-0.677,0.193,0.187,0,0,0,0,0,0,0,0,0,0.000,0,0,0.108,0.004,-0.060,-0.040,-0.080,0.015,0.995,0.010,0.004,-0.002,0.002,0.000,0.000,0.000,0.000,0,2,0,3,7,255,1440,300,0,0,-89.565,0.588,-31.190
EX0521-092111,6,C23,prep,2095,2095,0,486124.091,0.685,-0.677,0.193,0.187,0,0,0,0,0,0,0,0,0,0.000,0,0,0.045,0.004,0.000,-0.040,-0.020,0.015,0.994,0.011,0.004,0.000,0.002,0.000,0.000,0.000,0.000,0,2,0,3,7,255,1440,300,0,0,-89.565,0.588,-31.190
EX0521-092111,6,C23,prep,2095,2095,0,486129.091,0.685,-0.677,0.193,0.187,0,0,0,0,0,0,0,0,0,0.000,0,0,0.075,0.002,-0.060,-0.040,-0.020,0.014,0.994,0.012,0.002,0.000,0.002,0.000,0.000,0.000,0.000,0,2,0,3,7,255,1440,300,0,0,-89.565,0.588,-31.190
EX0521-092111,6,C23,prep,2095,2095,0,486134.091,0.685,-0.677,0.193,0.187,0,0,0,0,0,0,0,0,0,0.000,0,0,0.075,0.006,0.060,-0.040,-0.020,0.015,0.994,0.012,0.000,-0.006,0.002,0.000,0.000,0.000,0.000,0,2,0,3,7,255,1440,300,0,0,-89.565,0.588,-31.190
EX0521-092111,6,C23,prep,2118,2118,0,486139.092,0.685,-0.678,0.193,0.187,0,0,0,0,0,0,0,0,0,0.000,0,0,0.075,0.012,-0.060,-0.040,-0.020,0.015,0.994,0.012,0.000,-0.012,0.002,0.000,0.000,0.000,0.000,0,2,0,3,7,255,1440,300,0,0,-89.566,0.588,-31.190
EX0521-092111,6,C23,prep,2118,2118,0,486144.092,0.685,-0.678,0.193,0.187,0,0,0,0,0,0,0,0,0,0.000,0,0,0.082,0.012,0.000,0.020,-0.080,0.015,0.995,0.011,0.000,-0.012,0.002,0.000,0.000,0.000,0.000,0,2,0,3,7,255,1440,300,0,0,-89.566,0.587,-31.190
EX0521-092111,6,C23,prep,2118,2118,0,486149.092,0.685,-0.678,0.193,0.187,0,0,0,0,0,0,0,0,0,0.000,0,0,0.089,0.002,0.000,-0.040,-0.080,0.014,0.994,0.011,0.000,-0.002,0.002,0.000,0.000,0.000,0.000,0,2,0,3,7,255,1440,300,0,0,-89.566,0.587,-31.190
EX0521-092111,6,C23,prep,2118,2118,0,486154.091,0.685,-0.678,0.193,0.187,0,0,0,0,0,0,0,0,0,0.000,0,0,0.045,0.006,0.000,-0.040,-0.020,0.014,0.995,0.011,-0.006,0.000,0.006,0.000,0.000,0.000,0.000,0,2,0,3,7,255,1440,300,0,0,-89.566,0.587,-31.190
EX0521-092111,6,C23,prep,2119,2119,0,486159.093,0.685,-0.678,0.193,0.187,0,0,0,0,0,0,0,0,0,0.000,0,0,0.089,0.006,0.000,-0.040,-0.080,0.015,0.994,0.010,-0.006,0.000,0.002,0.000,0.000,0.000,0.000,0,2,0,3,7,255,1440,300,0,0,-89.567,0.587,-31.190
EX0521-092111,6,C23,prep,2119,2119,0,486164.091,0.685,-0.678,0.193,0.187,0,0,0,0,0,0,0,0,0,0.000,0,0,0.102,0.008,-0.060,0.020,-0.080,0.014,0.994,0.012,-0.008,0.000,0.002,0.000,0.000,0.000,0.000,0,2,0,3,7,255,1440,300,0,0,-89.567,0.587,-31.190
EX0521-092111,6,C23,prep,2127,2127,0,486169.092,0.685,-0.678,0.193,0.187,0,0,0,0,0,0,0,0,0,0.000,0,0,0.045,0.003,0.000,-0.040,-0.020,0.014,0.993,0.011,-0.002,0.002,0.002,0.000,0.000,0.000,0.000,0,2,0,3,7,255,1440,300,0,0,-89.567,0.587,-31.190
EX0521-092111,6,C23,prep,2127,2127,0,486174.092,0.685,-0.678,0.193,0.187,0,0,0,0,0,0,0,0,0,0.000,0,0,0.102,0.004,-0.060,0.020,-0.080,0.015,0.994,0.011,-0.002,-0.004,-0.004,0.000,0.000,0.000,0.000,0,2,0,3,7,255,1440,300,0,0,-89.567,0.586,-31.190
EX0521-092111,6,C23,prep,2143,2143,0,486179.092,0.685,-0.678,0.193,0.187,0,0,0,0,0,0,0,0,0,0.000,0,0,0.108,0.004,-0.060,-0.040,-0.080,0.015,0.993,0.011,0.000,-0.004,-0.008,0.000,0.000,0.000,0.000,0,2,0,3,7,255,1440,300,0,0,-89.568,0.588,-31.190
EX0521-092111,6,C23,prep,2143,2143,0,486184.092,0.685,-0.678,0.193,0.187,0,0,0,0,0,0,0,0,0,0.000,0,0,0.028,0.004,0.000,0.020,-0.020,0.014,0.994,0.011,0.000,-0.004,-0.004,0.000,0.000,0.000,0.000,0,2,0,3,7,255,1440,300,0,0,-89.568,0.587,-31.190
EX0521-092111,6,C23,prep,2175,2175,0,486189.091,0.685,-0.678,0.193,0.187,0,0,0,0,0,0,0,0,0,0.000,0,0,0.075,0.002,-0.060,-0.040,-0.020,0.014,0.994,0.011,-0.002,0.000,-0.004,0.000,0.000,0.000,0.000,0,2,0,3,7,255,1440,300,0,0,-89.568,0.587,-31.190
EX0521-092111,6,C23,prep,2175,2175,0,486194.091,0.685,-0.678,0.193,0.187,0,0,0,0,0,0,0,0,0,0.000,0,0,0.102,0.004,0.000,-0.100,-0.020,0.015,0.994,0.012,-0.004,0.000,-0.002,0.000,0.000,0.000,0.000,0,2,0,3,7,255,1440,300,0,0,-89.568,0.587,-31.190
EX0521-092111,6,C23,prep,2175,2175,0,486199.093,0.685,-0.678,0.193,0.187,0,0,0,0,0,0,0,0,0,0.000,0,0,0.102,0.006,-0.060,0.020,-0.080,0.014,0.994,0.011,-0.006,0.000,0.002,0.000,0.000,0.000,0.000,0,2,0,3,7,255,1440,300,0,0,-89.569,0.587,-31.190
EX0521-092111,6,C23,prep,2175,2175,0,486204.092,0.685,-0.678,0.193,0.187,0,0,0,0,0,0,0,0,0,0.000,0,0,0.045,0.011,0.000,-0.040,-0.020,0.016,0.993,0.011,-0.004,-0.010,-0.002,0.000,0.000,0.000,0.000,0,2,0,3,7,255,1440,300,0,0,-89.569,0.588,-31.190
EX0521-092111,6,C23,prep,2175,2175,0,486209.092,0.685,-0.678,0.193,0.187,0,0,0,0,0,0,0,0,0,0.000,0,0,0.089,0.008,0.000,-0.040,-0.080,0.014,0.994,0.012,-0.006,-0.006,0.002,0.000,0.000,0.000,0.000,0,2,0,3,7,255,1440,300,0,0,-89.569,0.588,-31.190
EX0521-092111,6,C23,prep,2175,2175,0,486214.092,0.685,-0.678,0.193,0.187,0,0,0,0,0,0,0,0,0,0.000,0,0,0.102,0.006,0.000,-0.100,-0.020,0.015,0.994,0.011,0.000,-0.006,0.002,0.000,0.000,0.000,0.000,0,2,0,3,7,255,1440,300,0,0,-89.569,0.588,-31.190
EX0521-092111,6,C23,prep,2194,2194,0,486219.092,0.685,-0.678,0.193,0.187,0,0,0,0,0,0,0,0,0,0.000,0,0,0.028,0.006,0.000,0.020,-0.020,0.015,0.995,0.011,0.000,-0.006,0.002,0.000,0.000,0.000,0.000,0,2,0,3,7,255,1440,300,0,0,-89.570,0.588,-31.190
EX0521-092111,6,C23,prep,2194,2194,0,486224.091,0.685,-0.678,0.193,0.187,0,0,0,0,0,0,0,0,0,0.000,0,0,0.066,0.004,0.060,0.020,-0.020,0.015,0.995,0.011,0.000,-0.004,0.012,0.000,0.000,0.000,0.000,0,2,0,3,7,255,1440,300,0,0,-89.570,0.587,-31.190
EX0521-092111,6,C23,prep,2195,2195,0,486229.091,0.685,-0.678,0.193,0.187,0,0,0,0,0,0,0,0,0,0.000,0,0,0.045,0.009,0.000,-0.040,-0.020,0.015,0.994,0.011,0.004,-0.008,0.012,0.000,0.000,0.000,0.000,0,2,0,3,7,255,1440,300,0,0,-89.570,0.587,-31.190
EX0521-092111,6,C23,prep,2195,2195,0,486234.091,0.685,-0.678,0.193,0.187,0,0,0,0,0,0,0,0,0,0.000,0,0,0.082,0.009,0.000,0.020,-0.080,0.015,0.994,0.011,0.004,-0.008,0.002,0.000,0.000,0.000,0.000,0,2,0,3,7,255,1440,300,0,0,-89.570,0.587,-31.190
EX0521-092111,6,C23,prep,2196,2196,0,486239.092,0.685,-0.678,0.193,0.187,0,0,0,0,0,0,0,0,0,0.000,0,0,0.102,0.009,0.000,-0.100,-0.020,0.015,0.993,0.010,0.004,-0.008,-0.004,0.000,0.000,0.000,0.000,0,2,0,3,7,255,1440,300,0,0,-89.571,0.587,-31.190
EX0521-092111,6,C23,prep,2196,2196,0,486244.092,0.685,-0.678,0.193,0.187,0,0,0,0,0,0,0,0,0,0.000,0,0,0.045,0.004,0.000,-0.040,-0.020,0.015,0.994,0.010,0.004,0.000,-0.004,0.000,0.000,0.000,0.000,0,2,0,3,7,255,1440,300,0,0,-89.571,0.587,-31.190
EX0521-092111,6,C23,prep,2207,2207,0,486249.092,0.685,-0.678,0.193,0.187,0,0,0,0,0,0,0,0,0,0.000,0,0,0.045,0.004,0.000,-0.040,-0.020,0.015,0.993,0.011,0.004,0.000,-0.008,0.000,0.000,0.000,0.000,0,2,0,3,7,255,1440,300,0,0,-89.571,0.587,-31.190
EX0521-092111,6,C23,prep,2207,2207,0,486254.091,0.685,-0.678,0.193,0.187,0,0,0,0,0,0,0,0,0,0.000,0,0,0.118,0.002,-0.060,-0.100,-0.020,0.015,0.994,0.012,0.002,0.000,-0.002,0.000,0.000,0.000,0.000,0,2,0,3,7,255,1440,300,0,0,-89.571,0.586,-31.190
EX0521-092111,6,C23,prep,2229,2229,0,486259.091,0.685,-0.678,0.193,0.187,0,0,0,0,0,0,0,0,0,0.000,0,0,0.028,0.006,0.000,0.020,-0.020,0.014,0.995,0.012,-0.004,-0.004,-0.002,0.000,0.000,0.000,0.000,0,2,0,3,7,255,1440,300,0,0,-89.572,0.586,-31.190
EX0521-092111,6,C23,prep,2229,2229,0,486264.091,0.685,-0.678,0.193,0.187,0,0,0,0,0,0,0,0,0,0.000,0,0,0.075,0.006,0.060,-0.040,-0.020,0.014,0.994,0.011,-0.004,-0.004,0.002,0.000,0.000,0.000,0.000,0,2,0,3,7,255,1440,300,0,0,-89.572,0.586,-31.190
EX0521-092111,6,C23,prep,2230,2230,0,486269.092,0.685,-0.678,0.193,0.187,0,0,0,0,0,0,0,0,0,0.000,0,0,0.028,0.006,0.000,0.020,-0.020,0.014,0.996,0.011,-0.006,-0.002,0.006,0.000,0.000,0.000,0.000,0,2,0,3,7,255,1440,300,0,0,-89.572,0.586,-31.190
EX0521-092111,6,C23,prep,2230,2230,0,486274.092,0.685,-0.678,0.193,0.187,0,0,0,0,0,0,0,0,0,0.000,0,0,0.045,0.003,0.000,-0.040,-0.020,0.016,0.993,0.011,-0.002,-0.002,0.002,0.000,0.000,0.000,0.000,0,2,0,3,7,255,1440,300,0,0,-89.572,0.587,-31.190
EX0521-092111,6,C23,prep,2239,2239,0,486279.092,0.685,-0.678,0.193,0.187,0,0,0,0,0,0,0,0,0,0.000,0,0,0.089,0.008,0.000,-0.040,-0.080,0.015,0.994,0.010,0.008,-0.002,-0.004,0.000,0.000,0.000,0.000,0,2,0,3,7,255,1440,300,0,0,-89.573,0.587,-31.190
EX0521-092111,6,C23,prep,2239,2239,0,486284.092,0.685,-0.678,0.193,0.187,0,0,0,0,0,0,0,0,0,0.000,0,0,0.045,0.010,0.000,-0.040,-0.020,0.014,0.994,0.012,0.008,-0.006,-0.004,0.000,0.000,0.000,0.000,0,2,0,3,7,255,1440,300,0,0,-89.573,0.587,-31.190
EX0521-092111,6,C23,prep,2271,2271,0,486289.091,0.685,-0.678,0.193,0.187,0,0,0,0,0,0,0,0,0,0.000,0,0,0.075,0.004,-0.060,-0.040,-0.020,0.015,0.994,0.010,0.004,0.000,0.002,0.000,0.000,0.000,0.000,0,2,0,3,7,255,1440,300,0,0,-89.573,0.587,-31.190
EX0521-092111,6,C23,prep,2272,2272,0,486294.091,0.685,-0.678,0.193,0.187,0,0,0,0,0,0,0,0,0,0.000,0,0,0.045,0.006,0.000,-0.040,-0.020,0.015,0.995,0.010,0.004,0.004,0.002,0.000,0.000,0.000,0.000,0,2,0,3,7,255,1440,300,0,0,-89.573,0.587,-31.190
EX0521-092111,6,C23,prep,2272,2272,0,486299.093,0.685,-0.678,0.193,0.187,0,0,0,0,0,0,0,0,0,0.000,0,0,0.075,0.007,0.060,-0.040,-0.020,0.015,0.993,0.011,0.006,0.004,0.002,0.000,0.000,0.000,0.000,0,2,0,3,7,255,1440,300,0,0,-89.574,0.588,-31.190
EX0521-092111,6,C23,prep,2272,2272,0,486304.092,0.685,-0.678,0.193,0.187,0,0,0,0,0,0,0,0,0,0.000,0,0,0.075,0.007,-0.060,-0.040,-0.020,0.015,0.994,0.012,0.006,-0.004,0.002,0.000,0.000,0.000,0.000,0,2,0,3,7,255,1440,300,0,0,-89.574,0.588,-31.190
EX0521-092111,6,C23,prep,2272,2272,0,486309.092,0.685,-0.678,0.193,0.187,0,0,0,0,0,0,0,0,0,0.000,0,0,0.045,0.011,0.000,-0.040,-0.020,0.015,0.993,0.012,-0.004,-0.010,-0.008,0.000,0.000,0.000,0.000,0,2,0,3,7,255,1440,300,0,0,-89.574,0.587,-31.190
EX0521-092111,6,C23,prep,2272,2272,0,486314.092,0.685,-0.678,0.193,0.187,0,0,0,0,0,0,0,0,0,0.000,0,0,0.089,0.011,0.000,-0.040,-0.080,0.016,0.994,0.011,-0.004,-0.010,0.002,0.000,0.000,0.000,0.000,0,2,0,3,7,255,1440,300,0,0,-89.574,0.589,-31.190
EX0521-092111,6,C23,prep,2303,2303,0,486319.091,0.685,-0.678,0.193,0.187,0,0,0,0,0,0,0,0,0,0.000,0,0,0.089,0.006,0.000,-0.040,-0.080,0.015,0.994,0.011,-0.002,-0.006,0.002,0.000,0.000,0.000,0.000,0,2,0,3,7,255,1440,300,0,0,-89.575,0.589,-31.190
EX0521-092111,6,C23,prep,2303,2303,0,486324.091,0.685,-0.678,0.193,0.187,0,0,0,0,0,0,0,0,0,0.000,0,0,0.045,0.004,0.000,-0.040,-0.020,0.013,0.995,0.011,-0.002,-0.004,0.002,0.000,0.000,0.000,0.000,0,2,0,3,7,255,1440,300,0,0,-89.575,0.588,-31.190
EX0521-092111,6,C23,prep,2303,2303,0,486329.091,0.685,-0.678,0.193,0.187,0,0,0,0,0,0,0,0,0,0.000,0,0,0.045,0.009,0.000,-0.040,-0.020,0.014,0.995,0.012,-0.008,-0.004,0.006,0.000,0.000,0.000,0.000,0,2,0,3,7,255,1440,300,0,0,-89.575,0.588,-31.190
EX0521-092111,6,C23,prep,2303,2303,0,486334.092,0.685,-0.678,0.193,0.187,0,0,0,0,0,0,0,0,0,0.000,0,0,0.045,0.010,0.000,-0.040,-0.020,0.015,0.994,0.012,-0.008,-0.006,0.006,0.000,0.000,0.000,0.000,0,2,0,3,7,255,1440,300,0,0,-89.575,0.588,-31.190
EX0521-092111,6,C23,prep,2303,2303,0,486339.092,0.685,-0.678,0.193,0.187,0,0,0,0,0,0,0,0,0,0.000,0,0,0.089,0.007,0.000,-0.040,-0.080,0.014,0.994,0.011,-0.004,-0.006,0.002,0.000,0.000,0.000,0.000,0,2,0,3,7,255,1440,300,0,0,-89.576,0.588,-31.190
EX0521-092111,6,C23,prep,2303,2303,0,486344.092,0.685,-0.678,0.193,0.187,0,0,0,0,0,0,0,0,0,0.000,0,0,0.045,0.004,0.000,-0.040,-0.020,0.015,0.994,0.011,-0.002,-0.004,0.002,0.000,0.000,0.000,0.000,0,2,0,3,7,255,1440,300,0,0,-89.576,0.588,-31.190
EX0521-092111,6,C23,prep,2319,2319,0,486349.092,0.685,-0.678,0.193,0.187,0,0,0,0,0,0,0,0,0,0.000,0,0,0.045,0.004,0.000,-0.040,-0.020,0.014,0.995,0.011,-0.004,-0.002,0.002,0.000,0.000,0.000,0.000,0,2,0,3,7,255,1440,300,0,0,-89.576,0.587,-31.190
EX0521-092111,6,C23,prep,2319,2319,0,486354.091,0.685,-0.678,0.193,0.187,0,0,0,0,0,0,0,0,0,0.000,0,0,0.045,0.006,0.000,-0.040,-0.020,0.014,0.994,0.011,-0.006,-0.002,-0.004,0.000,0.000,0.000,0.000,0,2,0,3,7,255,1440,300,0,0,-89.576,0.587,-31.190
EX0521-092111,6,C23,prep,2319,2319,0,486359.094,0.685,-0.678,0.193,0.187,0,0,0,0,0,0,0,0,0,0.000,0,0,0.089,0.006,0.000,-0.040,-0.080,0.016,0.994,0.011,-0.006,-0.002,0.002,0.000,0.000,0.000,0.000,0,2,0,3,7,255,1440,300,0,0,-89.577,0.589,-31.190
EX0521-092111,6,C23,prep,2319,2319,0,486364.091,0.685,-0.678,0.193,0.187,0,0,0,0,0,0,0,0,0,0.000,0,0,0.045,0.010,0.000,-0.040,-0.020,0.015,0.994,0.012,0.000,-0.010,0.002,0.000,0.000,0.000,0.000,0,2,0,3,7,255,1440,300,0,0,-89.577,0.588,-31.190
EX0521-092111,6,C23,prep,2335,2335,0,486369.092,0.685,-0.678,0.193,0.187,0,0,0,0,0,0,0,0,0,0.000,0,0,0.045,0.012,0.000,-0.040,-0.020,0.015,0.993,0.012,0.000,-0.012,0.002,0.000,0.000,0.000,0.000,0,2,0,3,7,255,1440,300,0,0,-89.577,0.588,-31.190
EX0521-092111,6,C23,prep,2335,2335,0,486374.092,0.685,-0.678,0.193,0.187,0,0,0,0,0,0,0,0,0,0.000,0,0,0.108,0.012,-0.060,-0.040,-0.080,0.013,0.994,0.010,0.000,-0.012,0.002,0.000,0.000,0.000,0.000,0,2,0,3,7,255,1440,300,0,0,-89.577,0.588,-31.190
EX0521-092111,6,C23,prep,2363,2363,0,486379.092,0.685,-0.678,0.193,0.187,0,0,0,0,0,0,0,0,0,0.000,0,0,0.045,0.006,0.000,-0.040,-0.020,0.014,0.994,0.011,-0.006,-0.002,-0.004,0.000,0.000,0.000,0.000,0,2,0,3,7,255,1440,300,0,0,-89.578,0.588,-31.190
EX0521-092111,6,C23,prep,2363,2363,0,486384.091,0.685,-0.678,0.193,0.187,0,0,0,0,0,0,0,0,0,0.000,0,0,0.045,0.006,0.000,-0.040,-0.020,0.015,0.994,0.011,-0.006,0.000,0.002,0.000,0.000,0.000,0.000,0,2,0,3,7,255,1440,300,0,0,-89.578,0.588,-31.190
EX0521-092111,6,C23,prep,2394,2394,0,486389.091,0.685,-0.678,0.193,0.187,0,0,0,0,0,0,0,0,0,0.000,0,0,0.108,0.003,-0.060,-0.040,-0.080,0.015,0.994,0.011,-0.002,-0.002,-0.004,0.000,0.000,0.000,0.000,0,2,0,3,7,255,1440,300,0,0,-89.578,0.588,-31.190
EX0521-092111,6,C23,prep,2394,2394,0,486394.091,0.685,-0.678,0.193,0.187,0,0,0,0,0,0,0,0,0,0.000,0,0,0.089,0.006,0.000,-0.040,-0.080,0.015,0.994,0.011,0.002,-0.006,0.002,0.000,0.000,0.000,0.000,0,2,0,3,7,255,1440,300,0,0,-89.578,0.587,-31.190
EX0521-092111,6,C23,prep,2394,2394,0,486399.094,0.685,-0.678,0.193,0.187,0,0,0,0,0,0,0,0,0,0.000,0,0,0.045,0.006,0.000,-0.040,-0.020,0.015,0.994,0.010,0.002,-0.006,0.002,0.000,0.000,0.000,0.000,0,2,0,3,7,255,1440,300,0,0,-89.579,0.587,-31.190
EX0521-092111,6,C23,prep,2394,2394,0,486404.092,0.685,-0.678,0.193,0.187,0,0,0,0,0,0,0,0,0,0.000,0,0,0.089,0.003,0.000,-0.040,-0.080,0.014,0.994,0.011,0.002,-0.002,0.002,0.000,0.000,0.000,0.000,0,2,0,3,7,255,1440,300,0,0,-89.579,0.587,-31.190
EX0521-092111,6,C23,prep,2394,2394,0,486409.092,0.685,-0.678,0.193,0.187,0,0,0,0,0,0,0,0,0,0.000,0,0,0.045,0.000,0.000,-0.040,-0.020,0.015,0.995,0.011,0.000,0.000,0.002,0.000,0.000,0.000,0.000,0,2,0,3,7,255,1440,300,0,0,-89.579,0.587,-31.190
EX0521-092111,6,C23,prep,2394,2394,0,486414.092,0.685,-0.678,0.193,0.187,0,0,0,0,0,0,0,0,0,0.000,0,0,0.045,0.004,0.000,-0.040,-0.020,0.015,0.994,0.012,-0.004,-0.002,-0.004,0.000,0.000,0.000,0.000,0,2,0,3,7,255,1440,300,0,0,-89.579,0.587,-31.190
EX0521-092111,6,C23,prep,2396,2396,0,486419.091,0.685,-0.678,0.193,0.187,0,0,0,0,0,0,0,0,0,0.000,0,0,0.045,0.007,0.000,-0.040,-0.020,0.014,0.994,0.012,-0.004,-0.006,-0.004,0.000,0.000,0.000,0.000,0,2,0,3,7,255,1440,300,0,0,-89.580,0.586,-31.190
EX0521-092111,6,C23,prep,2396,2396,0,486424.091,0.685,-0.678,0.193,0.187,0,0,0,0,0,0,0,0,0,0.000,0,0,0.045,0.007,0.000,-0.040,-0.020,0.015,0.993,0.011,-0.004,-0.006,-0.004,0.000,0.000,0.000,0.000,0,2,0,3,7,255,1440,300,0,0,-89.580,0.586,-31.190
EX0521-092111,6,C23,prep,2396,2396,0,486429.091,0.685,-0.678,0.193,0.187,0,0,0,0,0,0,0,0,0,0.000,0,0,0.089,0.006,0.000,-0.040,-0.080,0.015,0.994,0.011,-0.002,-0.006,-0.004,0.000,0.000,0.000,0.000,0,2,0,3,7,255,1440,300,0,0,-89.580,0.586,-31.190
EX0521-092111,6,C23,prep,2396,2396,0,486434.092,0.685,-0.678,0.193,0.187,0,0,0,0,0,0,0,0,0,0.000,0,0,0.045,0.004,0.000,-0.040,-0.020,0.014,0.993,0.011,-0.002,-0.004,-0.008,0.000,0.000,0.000,0.000,0,2,0,3,7,255,1440,300,0,0,-89.580,0.586,-31.190
EX0521-092111,6,C23,prep,2399,2399,0,486439.093,0.685,-0.678,0.193,0.187,0,0,0,0,0,0,0,0,0,0.000,0,0,0.089,0.006,0.000,-0.040,-0.080,0.014,0.995,0.011,-0.006,-0.002,-0.004,0.000,0.000,0.000,0.000,0,2,0,3,7,255,1440,300,0,0,-89.581,0.586,-31.190
EX0521-092111,6,C23,prep,2399,2399,0,486444.092,0.685,-0.678,0.193,0.187,0,0,0,0,0,0,0,0,0,0.000,0,0,0.045,0.006,0.000,-0.040,-0.020,0.014,0.993,0.011,-0.006,0.002,-0.008,0.000,0.000,0.000,0.000,0,2,0,3,7,255,1440,300,0,0,-89.581,0.586,-31.190
EX0521-092111,6,C23,prep,2428,2428,0,486449.091,0.685,-0.678,0.193,0.187,0,0,0,0,0,0,0,0,0,0.000,0,0,0.118,0.003,-0.060,-0.100,-0.020,0.015,0.994,0.012,-0.002,-0.002,-0.002,0.000,0.000,0.000,0.000,0,2,0,3,7,255,1440,300,0,0,-89.581,0.587,-31.190
EX0521-092111,6,C23,prep,2428,2428,0,486454.091,0.685,-0.678,0.193,0.187,0,0,0,0,0,0,0,0,0,0.000,0,0,0.102,0.004,0.000,-0.100,-0.020,0.015,0.995,0.011,0.000,-0.004,-0.002,0.000,0.000,0.000,0.000,0,2,0,3,7,255,1440,300,0,0,-89.581,0.587,-31.190
EX0521-092111,6,C23,prep,2428,2428,0,486459.091,0.685,-0.678,0.193,0.187,0,0,0,0,0,0,0,0,0,0.000,0,0,0.089,0.004,0.000,-0.040,-0.080,0.015,0.994,0.011,0.000,-0.004,0.002,0.000,0.000,0.000,0.000,0,2,0,3,7,255,1440,300,0,0,-89.582,0.586,-31.190
EX0521-092111,6,C23,prep,2428,2428,0,486464.091,0.685,-0.678,0.193,0.187,0,0,0,0,0,0,0,0,0,0.000,0,0,0.089,0.000,0.000,-0.040,-0.080,0.015,0.995,0.011,0.000,0.000,0.006,0.000,0.000,0.000,0.000,0,2,0,3,7,255,1440,300,0,0,-89.582,0.586,-31.190
EX0521-092111,6,C23,prep,2428,2428,0,486469.092,0.685,-0.678,0.193,0.187,0,0,0,0,0,0,0,0,0,0.000,0,0,0.028,0.000,0.000,0.020,-0.020,0.015,0.994,0.011,0.000,0.000,0.002,0.000,0.000,0.000,0.000,0,2,0,3,7,255,1440,300,0,0,-89.582,0.586,-31.190
EX0521-092111,6,C23,prep,2428,2428,0,486474.092,0.685,-0.678,0.193,0.187,0,0,0,0,0,0,0,0,0,0.000,0,0,0.045,0.004,0.000,-0.040,-0.020,0.014,0.994,0.012,-0.002,-0.004,0.002,0.000,0.000,0.000,0.000,0,2,0,3,7,255,1440,300,0,0,-89.582,0.586,-31.190
EX0521-092111,6,C23,prep,2460,2460,0,486479.092,0.685,-0.678,0.193,0.187,0,0,0,0,0,0,0,0,0,0.000,0,0,0.089,0.010,0.000,-0.040,-0.080,0.014,0.994,0.012,-0.008,-0.006,0.002,0.000,0.000,0.000,0.000,0,2,0,3,7,255,1440,300,0,0,-89.583,0.586,-31.190
EX0521-092111,6,C23,prep,2460,2460,0,486484.091,0.685,-0.678,0.193,0.187,0,0,0,0,0,0,0,0,0,0.000,0,0,0.089,0.009,0.000,-0.040,-0.080,0.014,0.995,0.011,-0.008,-0.004,0.002,0.000,0.000,0.000,0.000,0,2,0,3,7,255,1440,300,0,0,-89.583,0.586,-31.190
EX0521-092111,6,C23,prep,2493,2493,0,486489.091,0.685,-0.678,0.193,0.187,0,0,0,0,0,0,0,0,0,0.000,0,0,0.089,0.010,0.000,-0.040,-0.080,0.014,0.995,0.012,-0.008,-0.006,0.006,0.000,0.000,0.000,0.000,0,2,0,3,7,255,1440,300,0,0,-89.583,0.585,-31.190
EX0521-092111,6,C23,prep,2493,2493,0,486494.091,0.685,-0.678,0.193,0.187,0,0,0,0,0,0,0,0,0,0.000,0,0,0.045,0.011,0.000,-0.040,-0.020,0.015,0.995,0.012,-0.004,-0.010,0.006,0.000,0.000,0.000,0.000,0,2,0,3,7,255,1440,300,0,0,-89.583,0.585,-31.190
EX0521-092111,6,C23,prep,2493,2493,0,486499.093,0.685,-0.678,0.193,0.187,0,0,0,0,0,0,0,0,0,0.000,0,0,0.102,0.011,0.000,-0.100,-0.020,0.014,0.995,0.011,-0.004,-0.010,0.006,0.000,0.000,0.000,0.000,0,2,0,3,7,255,1440,300,0,0,-89.584,0.585,-31.190
EX0521-092111,6,C23,prep,2493,2493,0,486504.092,0.685,-0.678,0.193,0.187,0,0,0,0,0,0,0,0,0,0.000,0,0,0.045,0.003,0.000,-0.040,-0.020,0.015,0.994,0.011,-0.002,-0.002,0.006,0.000,0.000,0.000,0.000,0,2,0,3,7,255,1440,300,0,0,-89.584,0.585,-31.190
