experiment_id,condition_order_index,condition_id,condition_phase,condition_phase_elapsed_ms,condition_elapsed_ms,is_stimulation_on,t_ms,R_q0,R_q1,R_q2,R_q3,R_heel1,R_mid1,R_fore1,R_heel2,R_fore3,R_mid2,R_fore4,R_fore2,R_cadence,R_speed,R_steps,R_zupt,R_gyroNorm,R_accH,R_gyro_x,R_gyro_y,R_gyro_z,R_acc_x,R_acc_y,R_acc_z,R_nav_ax,R_nav_ay,R_nav_az,R_stepVel,R_stepVelj,R_stepDispRaw,R_stepDispZUPT,R_gaitEvent,R_motorMode,R_motorActive,R_motorAlignment,R_motorRegionMask,R_motorAmplitude,R_motorIntervalMs,R_motorDurationMs,R_motorPhaseMs,R_motorCycleMs,R_roll,R_pitch,R_yaw
EX0521-092111,18,C27,prep,49,49,0,905479.092,0.685,-0.676,0.195,0.188,0,0,0,0,0,0,0,0,0,0.000,0,0,0.069,0.004,0.040,-0.040,-0.040,0.014,0.993,0.014,0.004,0.000,-0.004,0.000,0.000,0.000,0.000,0,2,0,1,7,255,1440,200,0,0,-89.409,0.789,-31.438
EX0521-092111,18,C27,prep,49,49,0,905484.091,0.685,-0.676,0.195,0.188,0,0,0,0,0,0,0,0,0,0.000,0,0,0.166,0.008,0.160,0.020,-0.040,0.014,0.993,0.012,-0.008,-0.002,-0.004,0.000,0.000,0.000,0.000,0,2,0,1,7,255,1440,200,0,0,-89.409,0.789,-31.438
EX0521-092111,18,C27,prep,49,49,0,905489.092,0.685,-0.676,0.195,0.188,0,0,0,0,0,0,0,0,0,0.000,0,0,0.134,0.014,0.100,0.080,-0.040,0.016,0.992,0.012,-0.008,-0.012,-0.004,0.000,0.000,0.000,0.000,0,2,0,1,7,255,1440,200,0,0,-89.409,0.789,-31.438
EX0521-092111,18,C27,prep,49,49,0,905494.093,0.685,-0.676,0.195,0.188,0,0,0,0,0,0,0,0,0,0.000,0,0,0.294,0.008,-0.080,0.280,-0.040,0.014,0.993,0.012,-0.008,-0.002,-0.004,0.000,0.000,0.000,0.000,0,2,0,1,7,255,1440,200,0,0,-89.409,0.789,-31.438
EX0521-092111,18,C27,prep,49,49,0,905499.092,0.685,-0.676,0.195,0.188,0,0,0,0,0,0,0,0,0,0.000,0,0,0.597,0.008,-0.140,0.580,0.020,0.012,0.994,0.012,-0.008,-0.002,-0.004,0.000,0.000,0.000,0.000,0,2,0,1,7,255,1440,200,0,0,-89.409,0.789,-31.435
EX0521-092111,18,C27,prep,49,49,0,905504.091,0.685,-0.676,0.195,0.188,0,0,0,0,0,0,0,0,0,0.000,0,0,0.284,0.013,-0.020,0.280,-0.040,0.015,0.995,0.007,-0.008,0.010,0.010,0.000,0.000,0.000,0.000,0,2,0,1,7,255,1440,200,0,0,-89.409,0.789,-31.435
EX0521-092111,18,C27,prep,63,63,0,905509.092,0.685,-0.676,0.195,0.188,0,0,0,0,0,0,0,0,0,0.000,0,0,0.193,0.018,0.160,-0.100,-0.040,0.014,0.996,0.010,0.004,0.018,0.016,0.000,0.000,0.000,0.000,0,2,0,1,7,255,1440,200,0,0,-89.410,0.789,-31.435
EX0521-092111,18,C27,prep,63,63,0,905514.091,0.685,-0.676,0.195,0.188,0,0,0,0,0,0,0,0,0,0.000,0,0,0.143,0.028,0.100,-0.100,0.020,0.016,0.992,0.009,0.022,0.018,0.016,0.000,0.000,0.000,0.000,0,2,0,1,7,255,1440,200,0,0,-89.410,0.789,-31.435
EX0521-092111,18,C27,prep,63,63,0,905519.092,0.685,-0.676,0.195,0.188,0,0,0,0,0,0,0,0,0,0.000,0,0,0.237,0.013,-0.200,-0.100,0.080,0.014,0.992,0.013,0.004,0.012,-0.012,0.000,0.000,0.000,0.000,0,2,0,1,7,255,1440,200,0,0,-89.410,0.789,-31.435
EX0521-092111,18,C27,prep,63,63,0,905524.091,0.685,-0.676,0.195,0.188,0,0,0,0,0,0,0,0,0,0.000,0,0,0.332,0.008,-0.320,-0.040,0.080,0.015,0.991,0.012,0.000,-0.008,-0.014,0.000,0.000,0.000,0.000,0,2,0,1,7,255,1440,200,0,0,-89.410,0.789,-31.435
EX0521-092111,18,C27,prep,63,63,0,905529.092,0.685,-0.676,0.195,0.188,0,0,0,0,0,0,0,0,0,0.000,0,0,0.193,0.008,0.160,-0.040,-0.100,0.015,0.996,0.010,0.000,-0.008,-0.012,0.000,0.000,0.000,0.000,0,2,0,1,7,255,1440,200,0,0,-89.410,0.789,-31.435
EX0521-092111,18,C27,prep,63,63,0,905534.091,0.685,-0.676,0.195,0.188,0,0,0,0,0,0,0,0,0,0.000,0,0,0.110,0.008,0.100,0.020,-0.040,0.015,0.992,0.014,0.000,-0.008,-0.012,0.000,0.000,0.000,0.000,0,2,0,1,7,255,1440,200,0,0,-89.410,0.789,-31.435
EX0521-092111,18,C27,prep,83,83,0,905539.092,0.685,-0.676,0.195,0.188,0,0,0,0,0,0,0,0,0,0.000,0,0,0.407,0.017,-0.380,-0.040,0.140,0.016,0.992,0.013,0.006,-0.016,-0.008,0.000,0.000,0.000,0.000,0,2,0,1,7,255,1440,200,0,0,-89.410,0.789,-31.435
EX0521-092111,18,C27,prep,83,83,0,905544.091,0.685,-0.676,0.195,0.188,0,0,0,0,0,0,0,0,0,0.000,0,0,0.130,0.016,-0.080,-0.100,0.020,0.014,0.994,0.011,-0.004,-0.016,-0.008,0.000,0.000,0.000,0.000,0,2,0,1,7,255,1440,200,0,0,-89.410,0.789,-31.435
EX0521-092111,18,C27,prep,83,83,0,905549.092,0.685,-0.676,0.195,0.188,0,0,0,0,0,0,0,0,0,0.000,0,0,0.060,0.016,-0.020,-0.040,-0.040,0.014,0.995,0.014,-0.004,-0.016,0.006,0.000,0.000,0.000,0.000,0,2,0,1,7,255,1440,200,0,0,-89.410,0.789,-31.435
EX0521-092111,18,C27,prep,83,83,0,905554.091,0.685,-0.676,0.195,0.188,0,0,0,0,0,0,0,0,0,0.000,0,0,0.049,0.007,-0.020,0.020,-0.040,0.015,0.991,0.010,-0.004,0.006,0.006,0.000,0.000,0.000,0.000,0,2,0,1,7,255,1440,200,0,0,-89.410,0.789,-31.435
EX0521-092111,18,C27,prep,95,95,0,905559.093,0.685,-0.676,0.195,0.188,0,0,0,0,0,0,0,0,0,0.000,0,0,0.264,0.010,-0.200,-0.100,0.140,0.013,1.000,0.011,-0.008,0.006,0.016,0.000,0.000,0.000,0.000,0,2,0,1,7,255,1440,200,0,0,-89.410,0.789,-31.435
EX0521-092111,18,C27,prep,95,95,0,905564.093,0.685,-0.676,0.195,0.188,0,0,0,0,0,0,0,0,0,0.000,0,0,0.495,0.006,0.400,0.080,-0.280,0.015,0.991,0.012,0.000,0.006,-0.018,0.000,0.000,0.000,0.000,0,2,0,1,7,255,1440,200,0,0,-89.410,0.789,-31.435
EX0521-092111,18,C27,prep,119,119,0,905569.092,0.685,-0.676,0.195,0.188,0,0,0,0,0,0,0,0,0,0.000,0,0,0.531,0.004,-0.440,-0.100,0.280,0.015,0.993,0.012,0.000,-0.004,0.002,0.000,0.000,0.000,0.000,0,2,0,1,7,255,1440,200,0,0,-89.410,0.789,-31.435
EX0521-092111,18,C27,prep,119,119,0,905574.092,0.685,-0.676,0.195,0.188,0,0,0,0,0,0,0,0,0,0.000,0,0,0.626,0.004,0.520,0.080,-0.340,0.014,0.998,0.011,0.000,-0.004,0.002,0.000,0.000,0.000,0.000,0,2,0,1,7,255,1440,200,0,0,-89.410,0.789,-31.435
EX0521-092111,18,C27,prep,158,158,0,905579.092,0.685,-0.676,0.195,0.188,0,0,0,0,0,0,0,0,0,0.000,0,0,0.546,0.004,-0.440,-0.160,0.280,0.016,0.988,0.014,0.000,-0.004,0.002,0.000,0.000,0.000,0.000,0,2,0,1,7,255,1440,200,0,0,-89.410,0.789,-31.435
EX0521-092111,18,C27,prep,158,158,0,905584.092,0.685,-0.676,0.195,0.188,0,0,0,0,0,0,0,0,0,0.000,0,0,0.463,0.004,0.400,0.080,-0.220,0.013,0.997,0.010,0.000,0.004,0.034,0.000,0.000,0.000,0.000,0,2,0,1,7,255,1440,200,0,0,-89.410,0.789,-31.435
EX0521-092111,18,C27,prep,158,158,0,905589.092,0.685,-0.676,0.195,0.188,0,0,0,0,0,0,0,0,0,0.000,0,0,0.312,0.014,-0.260,-0.100,0.140,0.014,0.993,0.013,-0.002,-0.014,-0.004,0.000,0.000,0.000,0.000,0,2,0,1,7,255,1440,200,0,0,-89.410,0.789,-31.435
EX0521-092111,18,C27,prep,158,158,0,905594.093,0.685,-0.676,0.195,0.188,0,0,0,0,0,0,0,0,0,0.000,0,0,0.069,0.018,0.040,-0.040,-0.040,0.015,0.990,0.009,0.000,0.018,-0.004,0.000,0.000,0.000,0.000,0,2,0,1,7,255,1440,200,0,0,-89.410,0.789,-31.435
EX0521-092111,18,C27,prep,158,158,0,905599.091,0.685,-0.676,0.195,0.188,0,0,0,0,0,0,0,0,0,0.000,0,0,0.224,0.002,-0.200,-0.100,0.020,0.014,0.999,0.012,-0.002,0.000,-0.004,0.000,0.000,0.000,0.000,0,2,0,1,7,255,1440,200,0,0,-89.410,0.789,-31.435
EX0521-092111,18,C27,prep,158,158,0,905604.092,0.685,-0.676,0.195,0.188,0,0,0,0,0,0,0,0,0,0.000,0,0,0.546,0.009,0.520,-0.040,-0.160,0.015,0.985,0.011,0.008,0.004,-0.028,0.000,0.000,0.000,0.000,0,2,0,1,7,255,1440,200,0,0,-89.410,0.789,-31.435
EX0521-092111,18,C27,prep,158,158,0,905609.091,0.685,-0.676,0.195,0.188,0,0,0,0,0,0,0,0,0,0.000,0,0,0.602,0.006,-0.580,0.080,0.140,0.014,1.000,0.010,0.004,0.004,0.054,0.000,0.000,0.000,0.000,0,2,0,1,7,255,1440,200,0,0,-89.410,0.789,-31.435
EX0521-092111,18,C27,prep,158,158,0,905614.092,0.685,-0.676,0.195,0.188,0,0,0,0,0,0,0,0,0,0.000,0,0,0.357,0.006,0.340,-0.100,-0.040,0.014,0.986,0.014,0.004,0.004,-0.066,0.000,0.000,0.000,0.000,0,2,0,1,7,255,1440,200,0,0,-89.410,0.789,-31.435
EX0521-092111,18,C27,prep,159,159,0,905619.091,0.685,-0.676,0.195,0.188,0,0,0,0,0,0,0,0,0,0.000,0,0,0.110,0.018,0.040,0.020,-0.100,0.015,0.997,0.008,0.004,0.018,0.034,0.000,0.000,0.000,0.000,0,2,0,1,7,255,1440,200,0,0,-89.410,0.789,-31.435
EX0521-092111,18,C27,prep,159,159,0,905624.092,0.685,-0.676,0.195,0.188,0,0,0,0,0,0,0,0,0,0.000,0,0,0.536,0.013,-0.520,-0.100,0.080,0.014,0.993,0.013,-0.008,-0.010,-0.004,0.000,0.000,0.000,0.000,0,2,0,1,7,255,1440,200,0,0,-89.410,0.789,-31.435
EX0521-092111,18,C27,prep,194,194,0,905629.092,0.685,-0.676,0.195,0.188,0,0,0,0,0,0,0,0,0,0.000,0,0,0.661,0.013,0.640,-0.040,-0.160,0.014,0.992,0.013,-0.008,-0.010,-0.004,0.000,0.000,0.000,0.000,0,2,0,1,7,255,1440,200,0,0,-89.413,0.789,-31.435
EX0521-092111,18,C27,prep,194,194,0,905634.092,0.685,-0.676,0.195,0.188,0,0,0,0,0,0,0,0,0,0.000,0,0,0.092,0.013,-0.080,0.020,-0.040,0.014,0.997,0.008,-0.008,-0.010,-0.004,0.000,0.000,0.000,0.000,0,2,0,1,7,255,1440,200,0,0,-89.413,0.789,-31.435
EX0521-092111,18,C27,prep,194,194,0,905639.091,0.685,-0.676,0.195,0.188,0,0,0,0,0,0,0,0,0,0.000,0,0,0.540,0.016,-0.520,-0.040,0.140,0.015,0.992,0.014,-0.008,-0.014,-0.014,0.000,0.000,0.000,0.000,0,2,0,1,7,255,1440,200,0,0,-89.413,0.789,-31.435
EX0521-092111,18,C27,prep,194,194,0,905644.092,0.685,-0.676,0.195,0.188,0,0,0,0,0,0,0,0,0,0.000,0,0,0.531,0.014,0.520,-0.040,-0.100,0.015,0.993,0.013,0.000,-0.014,0.000,0.000,0.000,0.000,0.000,0,2,0,1,7,255,1440,200,0,0,-89.413,0.789,-31.435
EX0521-092111,18,C27,prep,206,206,0,905649.091,0.685,-0.676,0.195,0.188,0,0,0,0,0,0,0,0,0,0.000,0,0,0.227,0.014,0.160,0.020,-0.160,0.014,0.998,0.008,0.000,-0.014,0.000,0.000,0.000,0.000,0.000,0,2,0,1,7,255,1440,200,0,0,-89.413,0.789,-31.435
EX0521-092111,18,C27,prep,206,206,0,905654.092,0.685,-0.676,0.195,0.188,0,0,0,0,0,0,0,0,0,0.000,0,0,0.861,0.014,-0.820,-0.040,0.260,0.015,0.989,0.015,0.000,-0.014,0.000,0.000,0.000,0.000,0.000,0,2,0,1,7,255,1440,200,0,0,-89.409,0.789,-31.435
EX0521-092111,18,C27,prep,208,208,0,905659.092,0.685,-0.676,0.195,0.188,0,0,0,0,0,0,0,0,0,0.000,0,0,0.603,0.008,0.580,-0.040,-0.160,0.014,0.996,0.012,-0.008,-0.002,0.024,0.000,0.000,0.000,0.000,0,2,0,1,7,255,1440,200,0,0,-89.412,0.789,-31.435
EX0521-092111,18,C27,prep,208,208,0,905664.091,0.685,-0.676,0.195,0.188,0,0,0,0,0,0,0,0,0,0.000,0,0,0.389,0.008,0.340,-0.100,-0.160,0.014,0.995,0.009,-0.008,-0.002,0.020,0.000,0.000,0.000,0.000,0,2,0,1,7,255,1440,200,0,0,-89.412,0.789,-31.435
EX0521-092111,18,C27,prep,209,209,0,905669.092,0.685,-0.676,0.195,0.188,0,0,0,0,0,0,0,0,0,0.000,0,0,0.976,0.003,-0.940,-0.040,0.260,0.015,0.991,0.013,0.002,-0.002,0.020,0.000,0.000,0.000,0.000,0,2,0,1,7,255,1440,200,0,0,-89.408,0.789,-31.435
EX0521-092111,18,C27,prep,209,209,0,905674.091,0.685,-0.676,0.195,0.188,0,0,0,0,0,0,0,0,0,0.000,0,0,0.544,0.004,0.520,0.020,-0.160,0.014,0.994,0.012,0.002,-0.004,0.010,0.000,0.000,0.000,0.000,0,2,0,1,7,255,1440,200,0,0,-89.408,0.789,-31.435
EX0521-092111,18,C27,prep,239,239,0,905679.092,0.685,-0.676,0.195,0.188,0,0,0,0,0,0,0,0,0,0.000,0,0,0.433,0.004,0.400,-0.040,-0.160,0.015,0.994,0.009,0.002,-0.004,0.004,0.000,0.000,0.000,0.000,0,2,0,1,7,255,1440,200,0,0,-89.408,0.789,-31.435
EX0521-092111,18,C27,prep,239,239,0,905684.091,0.685,-0.676,0.195,0.188,0,0,0,0,0,0,0,0,0,0.000,0,0,0.866,0.003,-0.820,-0.100,0.260,0.015,0.994,0.012,0.002,-0.002,0.006,0.000,0.000,0.000,0.000,0,2,0,1,7,255,1440,200,0,0,-89.404,0.789,-31.435
EX0521-092111,18,C27,prep,239,239,0,905689.092,0.685,-0.676,0.195,0.188,0,0,0,0,0,0,0,0,0,0.000,0,0,0.245,0.003,0.220,-0.040,-0.100,0.015,0.993,0.014,0.002,-0.002,0.004,0.000,0.000,0.000,0.000,0,2,0,1,7,255,1440,200,0,0,-89.404,0.789,-31.435
EX0521-092111,18,C27,prep,239,239,0,905694.093,0.685,-0.676,0.195,0.188,0,0,0,0,0,0,0,0,0,0.000,0,0,0.413,0.003,0.400,0.020,-0.100,0.014,0.993,0.010,0.002,-0.002,-0.004,0.000,0.000,0.000,0.000,0,2,0,1,7,255,1440,200,0,0,-89.404,0.789,-31.435
EX0521-092111,18,C27,prep,239,239,0,905699.092,0.685,-0.676,0.195,0.188,0,0,0,0,0,0,0,0,0,0.000,0,0,0.448,0.010,-0.440,0.020,0.080,0.015,0.996,0.011,0.008,0.006,-0.004,0.000,0.000,0.000,0.000,0,2,0,1,7,255,1440,200,0,0,-89.404,0.789,-31.435
EX0521-092111,18,C27,prep,239,239,0,905704.091,0.685,-0.676,0.195,0.188,0,0,0,0,0,0,0,0,0,0.000,0,0,0.092,0.010,-0.080,-0.040,0.020,0.015,0.991,0.014,0.008,0.006,-0.004,0.000,0.000,0.000,0.000,0,2,0,1,7,255,1440,200,0,0,-89.404,0.789,-31.435
EX0521-092111,18,C27,prep,256,256,0,905709.092,0.685,-0.676,0.195,0.188,0,0,0,0,0,0,0,0,0,0.000,0,0,0.414,0.006,0.400,-0.040,-0.100,0.014,0.995,0.012,-0.004,-0.004,0.020,0.000,0.000,0.000,0.000,0,2,0,1,7,255,1440,200,0,0,-89.404,0.789,-31.435
EX0521-092111,18,C27,prep,256,256,0,905714.091,0.685,-0.676,0.195,0.188,0,0,0,0,0,0,0,0,0,0.000,0,0,0.151,0.006,-0.140,-0.040,-0.040,0.015,0.995,0.010,-0.004,-0.004,0.018,0.000,0.000,0.000,0.000,0,2,0,1,7,255,1440,200,0,0,-89.404,0.789,-31.435
EX0521-092111,18,C27,prep,256,256,0,905719.092,0.685,-0.676,0.195,0.188,0,0,0,0,0,0,0,0,0,0.000,0,0,0.407,0.006,-0.380,-0.040,0.140,0.015,0.990,0.013,-0.004,-0.004,0.018,0.000,0.000,0.000,0.000,0,2,0,1,7,255,1440,200,0,0,-89.404,0.789,-31.435
EX0521-092111,18,C27,prep,256,256,0,905724.091,0.685,-0.676,0.195,0.188,0,0,0,0,0,0,0,0,0,0.000,0,0,0.414,0.013,0.400,-0.040,-0.100,0.014,0.996,0.010,0.006,0.012,0.018,0.000,0.000,0.000,0.000,0,2,0,1,7,255,1440,200,0,0,-89.404,0.789,-31.435
EX0521-092111,18,C27,prep,272,272,0,905729.092,0.685,-0.676,0.195,0.188,0,0,0,0,0,0,0,0,0,0.000,0,0,0.069,0.013,0.040,-0.040,-0.040,0.014,0.994,0.010,0.006,0.012,0.004,0.000,0.000,0.000,0.000,0,2,0,1,7,255,1440,200,0,0,-89.404,0.789,-31.435
EX0521-092111,18,C27,prep,272,272,0,905734.091,0.685,-0.676,0.195,0.188,0,0,0,0,0,0,0,0,0,0.000,0,0,0.548,0.013,-0.520,-0.100,0.140,0.014,0.993,0.014,0.006,0.012,0.004,0.000,0.000,0.000,0.000,0,2,0,1,7,255,1440,200,0,0,-89.404,0.789,-31.435
EX0521-092111,18,C27,prep,272,272,0,905739.092,0.685,-0.676,0.195,0.188,0,0,0,0,0,0,0,0,0,0.000,0,0,0.431,0.003,0.400,0.020,-0.160,0.015,0.993,0.012,0.002,-0.002,-0.004,0.000,0.000,0.000,0.000,0,2,0,1,7,255,1440,200,0,0,-89.404,0.789,-31.435
EX0521-092111,18,C27,prep,272,272,0,905744.091,0.685,-0.676,0.195,0.188,0,0,0,0,0,0,0,0,0,0.000,0,0,0.110,0.003,0.100,0.020,-0.040,0.014,0.994,0.009,0.002,-0.002,-0.004,0.000,0.000,0.000,0.000,0,2,0,1,7,255,1440,200,0,0,-89.404,0.789,-31.435
EX0521-092111,18,C27,prep,288,288,0,905749.092,0.685,-0.676,0.195,0.188,0,0,0,0,0,0,0,0,0,0.000,0,0,0.336,0.008,-0.320,-0.100,0.020,0.016,0.993,0.012,0.008,-0.002,0.000,0.000,0.000,0.000,0.000,0,2,0,1,7,255,1440,200,0,0,-89.404,0.789,-31.435
EX0521-092111,18,C27,prep,288,288,0,905754.092,0.685,-0.676,0.195,0.188,0,0,0,0,0,0,0,0,0,0.000,0,0,0.262,0.011,0.220,-0.100,-0.100,0.015,0.991,0.012,0.008,-0.008,0.000,0.000,0.000,0.000,0.000,0,2,0,1,7,255,1440,200,0,0,-89.404,0.789,-31.435
EX0521-092111,18,C27,prep,303,303,0,905759.092,0.685,-0.676,0.195,0.188,0,0,0,0,0,0,0,0,0,0.000,0,0,0.298,0.011,0.280,0.020,-0.100,0.014,0.992,0.010,0.008,-0.008,-0.010,0.000,0.000,0.000,0.000,0,2,0,1,7,255,1440,200,0,0,-89.404,0.789,-31.435
EX0521-092111,18,C27,prep,303,303,0,905764.093,0.685,-0.676,0.195,0.188,0,0,0,0,0,0,0,0,0,0.000,0,0,0.383,0.006,-0.380,-0.040,0.020,0.014,0.993,0.011,0.000,0.006,-0.010,0.000,0.000,0.000,0.000,0,2,0,1,7,255,1440,200,0,0,-89.404,0.789,-31.435
EX0521-092111,18,C27,prep,303,303,0,905769.091,0.685,-0.676,0.195,0.188,0,0,0,0,0,0,0,0,0,0.000,0,0,0.060,0.007,-0.020,-0.040,-0.040,0.014,0.993,0.013,-0.004,0.006,-0.004,0.000,0.000,0.000,0.000,0,2,0,1,7,255,1440,200,0,0,-89.404,0.789,-31.435
EX0521-092111,18,C27,prep,303,303,0,905774.092,0.685,-0.676,0.195,0.188,0,0,0,0,0,0,0,0,0,0.000,0,0,0.345,0.007,0.340,-0.040,-0.040,0.014,0.995,0.010,-0.004,0.006,0.000,0.000,0.000,0.000,0.000,0,2,0,1,7,255,1440,200,0,0,-89.404,0.789,-31.435
EX0521-092111,18,C27,prep,352,352,0,905779.091,0.685,-0.676,0.195,0.188,0,0,0,0,0,0,0,0,0,0.000,0,0,0.224,0.015,-0.200,-0.100,0.020,0.012,0.994,0.011,-0.006,0.014,0.010,0.000,0.000,0.000,0.000,0,2,0,1,7,255,1440,200,0,0,-89.404,0.789,-31.435
EX0521-092111,18,C27,prep,352,352,0,905784.092,0.685,-0.676,0.195,0.188,0,0,0,0,0,0,0,0,0,0.000,0,0,0.173,0.014,-0.140,-0.100,0.020,0.015,0.993,0.012,0.000,0.014,0.010,0.000,0.000,0.000,0.000,0,2,0,1,7,255,1440,200,0,0,-89.404,0.789,-31.435
EX0521-092111,18,C27,prep,353,353,0,905789.092,0.685,-0.676,0.195,0.188,0,0,0,0,0,0,0,0,0,0.000,0,0,0.357,0.004,0.340,-0.040,-0.100,0.015,0.992,0.012,0.000,-0.004,-0.004,0.000,0.000,0.000,0.000,0,2,0,1,7,255,1440,200,0,0,-89.404,0.789,-31.435
EX0521-092111,18,C27,prep,353,353,0,905794.093,0.685,-0.676,0.195,0.188,0,0,0,0,0,0,0,0,0,0.000,0,0,0.092,0.004,-0.080,-0.040,0.020,0.015,0.995,0.010,0.002,-0.004,-0.004,0.000,0.000,0.000,0.000,0,2,0,1,7,255,1440,200,0,0,-89.404,0.789,-31.435
EX0521-092111,18,C27,prep,354,354,0,905799.091,0.685,-0.676,0.195,0.188,0,0,0,0,0,0,0,0,0,0.000,0,0,0.205,0.004,-0.200,-0.040,0.020,0.014,0.994,0.012,0.002,-0.004,0.004,0.000,0.000,0.000,0.000,0,2,0,1,7,255,1440,200,0,0,-89.404,0.789,-31.435
EX0521-092111,18,C27,prep,354,354,0,905804.092,0.685,-0.676,0.195,0.188,0,0,0,0,0,0,0,0,0,0.000,0,0,0.245,0.007,0.220,-0.040,-0.100,0.015,0.993,0.012,0.006,-0.004,0.004,0.000,0.000,0.000,0.000,0,2,0,1,7,255,1440,200,0,0,-89.404,0.789,-31.435
EX0521-092111,18,C27,prep,354,354,0,905809.091,0.685,-0.676,0.195,0.188,0,0,0,0,0,0,0,0,0,0.000,0,0,0.049,0.007,-0.020,0.020,-0.040,0.015,0.993,0.010,0.006,-0.004,0.000,0.000,0.000,0.000,0.000,0,2,0,1,7,255,1440,200,0,0,-89.404,0.789,-31.435
EX0521-092111,18,C27,prep,354,354,0,905814.092,0.685,-0.676,0.195,0.188,0,0,0,0,0,0,0,0,0,0.000,0,0,0.237,0.008,-0.200,-0.100,0.080,0.015,0.993,0.012,0.006,-0.006,0.000,0.000,0.000,0.000,0.000,0,2,0,1,7,255,1440,200,0,0,-89.404,0.789,-31.435
EX0521-092111,18,C27,prep,367,367,0,905819.091,0.685,-0.676,0.195,0.188,0,0,0,0,0,0,0,0,0,0.000,0,0,0.170,0.006,0.160,-0.040,-0.040,0.015,0.996,0.012,0.006,-0.002,0.000,0.000,0.000,0.000,0.000,0,2,0,1,7,255,1440,200,0,0,-89.404,0.789,-31.435
EX0521-092111,18,C27,prep,367,367,0,905824.092,0.685,-0.676,0.195,0.188,0,0,0,0,0,0,0,0,0,0.000,0,0,0.170,0.006,0.160,-0.040,-0.040,0.015,0.996,0.010,0.006,-0.002,0.024,0.000,0.000,0.000,0.000,0,2,0,1,7,255,1440,200,0,0,-89.404,0.789,-31.435
EX0521-092111,18,C27,prep,367,367,0,905829.092,0.685,-0.676,0.195,0.188,0,0,0,0,0,0,0,0,0,0.000,0,0,0.264,0.003,-0.260,-0.040,0.020,0.014,0.994,0.012,0.002,-0.002,0.024,0.000,0.000,0.000,0.000,0,2,0,1,7,255,1440,200,0,0,-89.404,0.789,-31.435
EX0521-092111,18,C27,prep,367,367,0,905834.092,0.685,-0.676,0.195,0.188,0,0,0,0,0,0,0,0,0,0.000,0,0,0.060,0.006,-0.020,-0.040,-0.040,0.015,0.994,0.012,0.004,-0.004,0.008,0.000,0.000,0.000,0.000,0,2,0,1,7,255,1440,200,0,0,-89.404,0.789,-31.435
EX0521-092111,18,C27,prep,390,390,0,905839.091,0.685,-0.676,0.195,0.188,0,0,0,0,0,0,0,0,0,0.000,0,0,0.190,0.004,0.160,0.020,-0.100,0.014,0.994,0.011,0.000,-0.004,0.008,0.000,0.000,0.000,0.000,0,2,0,1,7,255,1440,200,0,0,-89.404,0.789,-31.435
EX0521-092111,18,C27,prep,390,390,0,905844.092,0.685,-0.676,0.195,0.188,0,0,0,0,0,0,0,0,0,0.000,0,0,0.173,0.004,-0.140,-0.100,0.020,0.015,0.994,0.011,0.004,0.002,0.008,0.000,0.000,0.000,0.000,0,2,0,1,7,255,1440,200,0,0,-89.404,0.789,-31.435
EX0521-092111,18,C27,prep,390,390,0,905849.092,0.685,-0.676,0.195,0.188,0,0,0,0,0,0,0,0,0,0.000,0,0,0.110,0.002,-0.020,-0.100,-0.040,0.014,0.992,0.013,0.000,0.002,0.008,0.000,0.000,0.000,0.000,0,2,0,1,7,255,1440,200,0,0,-89.404,0.789,-31.435
EX0521-092111,18,C27,prep,390,390,0,905854.092,0.685,-0.676,0.195,0.188,0,0,0,0,0,0,0,0,0,0.000,0,0,0.242,0.004,0.220,0.020,-0.100,0.015,0.994,0.011,0.004,0.002,0.004,0.000,0.000,0.000,0.000,0,2,0,1,7,255,1440,200,0,0,-89.404,0.789,-31.435
EX0521-092111,18,C27,prep,391,391,0,905859.092,0.685,-0.676,0.195,0.188,0,0,0,0,0,0,0,0,0,0.000,0,0,0.092,0.006,-0.080,-0.040,0.020,0.014,0.993,0.011,-0.002,0.006,-0.006,0.000,0.000,0.000,0.000,0,2,0,1,7,255,1440,200,0,0,-89.404,0.789,-31.435
EX0521-092111,18,C27,prep,391,391,0,905864.091,0.685,-0.676,0.195,0.188,0,0,0,0,0,0,0,0,0,0.000,0,0,0.147,0.006,-0.140,-0.040,0.020,0.014,0.993,0.012,-0.002,0.006,0.000,0.000,0.000,0.000,0.000,0,2,0,1,7,255,1440,200,0,0,-89.404,0.789,-31.435
EX0521-092111,18,C27,prep,415,415,0,905869.092,0.685,-0.676,0.195,0.188,0,0,0,0,0,0,0,0,0,0.000,0,0,0.166,0.004,0.160,0.020,-0.040,0.014,0.993,0.012,-0.004,0.002,-0.006,0.000,0.000,0.000,0.000,0,2,0,1,7,255,1440,200,0,0,-89.404,0.789,-31.435
EX0521-092111,18,C27,prep,415,415,0,905874.091,0.685,-0.676,0.195,0.188,0,0,0,0,0,0,0,0,0,0.000,0,0,0.069,0.004,0.040,-0.040,-0.040,0.014,0.994,0.011,-0.004,0.002,0.000,0.000,0.000,0.000,0.000,0,2,0,1,7,255,1440,200,0,0,-89.404,0.790,-31.435
EX0521-092111,18,C27,prep,454,454,0,905879.092,0.685,-0.676,0.195,0.188,0,0,0,0,0,0,0,0,0,0.000,0,0,0.092,0.004,-0.080,-0.040,0.020,0.015,0.994,0.012,-0.002,-0.004,0.004,0.000,0.000,0.000,0.000,0,2,0,1,7,255,1440,200,0,0,-89.405,0.790,-31.435
EX0521-092111,18,C27,prep,454,454,0,905884.091,0.685,-0.676,0.195,0.188,0,0,0,0,0,0,0,0,0,0.000,0,0,0.115,0.002,0.100,-0.040,-0.040,0.014,0.993,0.012,-0.002,0.000,0.004,0.000,0.000,0.000,0.000,0,2,0,1,7,255,1440,200,0,0,-89.405,0.790,-31.435
EX0521-092111,18,C27,prep,454,454,0,905889.092,0.685,-0.676,0.195,0.188,0,0,0,0,0,0,0,0,0,0.000,0,0,0.060,0.004,0.040,-0.040,0.020,0.015,0.993,0.011,0.004,0.000,0.000,0.000,0.000,0.000,0.000,0,2,0,1,7,255,1440,200,0,0,-89.405,0.790,-31.435
EX0521-092111,18,C27,prep,454,454,0,905894.093,0.685,-0.676,0.195,0.188,0,0,0,0,0,0,0,0,0,0.000,0,0,0.205,0.004,-0.200,-0.040,0.020,0.015,0.994,0.011,0.004,0.000,0.000,0.000,0.000,0.000,0.000,0,2,0,1,7,255,1440,200,0,0,-89.405,0.790,-31.435
EX0521-092111,18,C27,prep,454,454,0,905899.092,0.685,-0.676,0.195,0.188,0,0,0,0,0,0,0,0,0,0.000,0,0,0.115,0.004,0.100,-0.040,-0.040,0.015,0.992,0.012,0.004,0.000,-0.006,0.000,0.000,0.000,0.000,0,2,0,1,7,255,1440,200,0,0,-89.405,0.790,-31.435
EX0521-092111,18,C27,prep,454,454,0,905904.091,0.685,-0.676,0.195,0.188,0,0,0,0,0,0,0,0,0,0.000,0,0,0.110,0.004,0.100,0.020,-0.040,0.014,0.993,0.010,0.004,0.002,-0.006,0.000,0.000,0.000,0.000,0,2,0,1,7,255,1440,200,0,0,-89.405,0.790,-31.435
EX0521-092111,18,C27,prep,454,454,0,905909.092,0.685,-0.676,0.195,0.188,0,0,0,0,0,0,0,0,0,0.000,0,0,0.092,0.004,-0.080,-0.040,0.020,0.014,0.994,0.012,0.004,0.002,-0.006,0.000,0.000,0.000,0.000,0,2,0,1,7,255,1440,200,0,0,-89.405,0.790,-31.435
EX0521-092111,18,C27,prep,454,454,0,905914.091,0.685,-0.676,0.195,0.188,0,0,0,0,0,0,0,0,0,0.000,0,0,0.134,0.006,-0.080,-0.100,-0.040,0.014,0.992,0.012,-0.006,0.002,-0.006,0.000,0.000,0.000,0.000,0,2,0,1,7,255,1440,200,0,0,-89.405,0.790,-31.435
EX0521-092111,18,C27,prep,455,455,0,905919.092,0.685,-0.676,0.195,0.188,0,0,0,0,0,0,0,0,0,0.000,0,0,0.193,0.006,0.160,-0.100,-0.040,0.015,0.994,0.011,-0.006,0.002,0.008,0.000,0.000,0.000,0.000,0,2,0,1,7,255,1440,200,0,0,-89.405,0.790,-31.435
EX0521-092111,18,C27,prep,455,455,0,905924.091,0.685,-0.676,0.195,0.188,0,0,0,0,0,0,0,0,0,0.000,0,0,0.049,0.004,-0.020,-0.040,0.020,0.014,0.993,0.012,-0.004,0.002,-0.006,0.000,0.000,0.000,0.000,0,2,0,1,7,255,1440,200,0,0,-89.405,0.790,-31.435
EX0521-092111,18,C27,prep,464,464,0,905929.092,0.685,-0.676,0.195,0.188,0,0,0,0,0,0,0,0,0,0.000,0,0,0.098,0.006,-0.080,-0.040,-0.040,0.015,0.993,0.012,0.004,-0.004,-0.006,0.000,0.000,0.000,0.000,0,2,0,1,7,255,1440,200,0,0,-89.405,0.790,-31.435
EX0521-092111,18,C27,prep,464,464,0,905934.091,0.685,-0.676,0.195,0.188,0,0,0,0,0,0,0,0,0,0.000,0,0,0.193,0.004,0.160,-0.040,-0.100,0.014,0.995,0.011,0.000,-0.004,-0.006,0.000,0.000,0.000,0.000,0,2,0,1,7,255,1440,200,0,0,-89.405,0.790,-31.435
EX0521-092111,18,C27,prep,493,493,0,905939.092,0.685,-0.676,0.195,0.188,0,0,0,0,0,0,0,0,0,0.000,0,0,0.085,0.004,-0.080,0.020,0.020,0.014,0.995,0.011,0.000,0.004,0.014,0.000,0.000,0.000,0.000,0,2,0,1,7,255,1440,200,0,0,-89.405,0.790,-31.435
EX0521-092111,18,C27,prep,493,493,0,905944.091,0.685,-0.676,0.195,0.188,0,0,0,0,0,0,0,0,0,0.000,0,0,0.092,0.004,-0.080,-0.040,0.020,0.014,0.993,0.012,0.000,0.004,0.014,0.000,0.000,0.000,0.000,0,2,0,1,7,255,1440,200,0,0,-89.405,0.790,-31.435
EX0521-092111,18,C27,prep,493,493,0,905949.092,0.685,-0.676,0.195,0.188,0,0,0,0,0,0,0,0,0,0.000,0,0,0.147,0.004,0.100,-0.040,-0.100,0.014,0.992,0.012,-0.004,-0.002,-0.006,0.000,0.000,0.000,0.000,0,2,0,1,7,255,1440,200,0,0,-89.405,0.790,-31.435
EX0521-092111,18,C27,prep,493,493,0,905954.092,0.685,-0.676,0.195,0.188,0,0,0,0,0,0,0,0,0,0.000,0,0,0.060,0.004,-0.020,-0.040,-0.040,0.014,0.994,0.011,-0.004,-0.002,-0.006,0.000,0.000,0.000,0.000,0,2,0,1,7,255,1440,200,0,0,-89.405,0.790,-31.435
EX0521-092111,18,C27,prep,495,495,0,905959.093,0.685,-0.676,0.195,0.188,0,0,0,0,0,0,0,0,0,0.000,0,0,0.173,0.007,-0.140,-0.100,0.020,0.014,0.993,0.011,-0.004,0.006,-0.002,0.000,0.000,0.000,0.000,0,2,0,1,7,255,1440,200,0,0,-89.405,0.790,-31.435
EX0521-092111,18,C27,prep,495,495,0,905964.093,0.685,-0.676,0.195,0.188,0,0,0,0,0,0,0,0,0,0.000,0,0,0.115,0.006,0.040,-0.100,-0.040,0.015,0.993,0.012,0.000,0.006,0.000,0.000,0.000,0.000,0.000,0,2,0,1,7,255,1440,200,0,0,-89.405,0.790,-31.435
EX0521-092111,18,C27,prep,524,524,0,905969.092,0.685,-0.676,0.195,0.188,0,0,0,0,0,0,0,0,0,0.000,0,0,0.069,0.004,0.040,-0.040,-0.040,0.014,0.994,0.011,0.000,0.004,0.000,0.000,0.000,0.000,0.000,0,2,0,1,7,255,1440,200,0,0,-89.405,0.790,-31.435
EX0521-092111,18,C27,prep,524,524,0,905974.092,0.685,-0.676,0.195,0.188,0,0,0,0,0,0,0,0,0,0.000,0,0,0.092,0.004,-0.080,-0.040,0.020,0.014,0.994,0.012,0.000,-0.004,0.004,0.000,0.000,0.000,0.000,0,2,0,1,7,255,1440,200,0,0,-89.405,0.790,-31.435
EX0521-092111,18,C27,prep,555,555,0,905979.091,0.685,-0.676,0.195,0.188,0,0,0,0,0,0,0,0,0,0.000,0,0,0.049,0.004,-0.020,-0.040,0.020,0.015,0.993,0.012,0.000,-0.004,0.004,0.000,0.000,0.000,0.000,0,2,0,1,7,255,1440,200,0,0,-89.405,0.790,-31.435
EX0521-092111,18,C27,prep,555,555,0,905984.092,0.685,-0.676,0.195,0.188,0,0,0,0,0,0,0,0,0,0.000,0,0,0.115,0.006,0.100,-0.040,-0.040,0.015,0.994,0.010,0.004,-0.004,0.004,0.000,0.000,0.000,0.000,0,2,0,1,7,255,1440,200,0,0,-89.405,0.790,-31.435
EX0521-092111,18,C27,prep,555,555,0,905989.092,0.685,-0.676,0.195,0.188,0,0,0,0,0,0,0,0,0,0.000,0,0,0.092,0.004,-0.080,0.020,-0.040,0.015,0.993,0.011,0.004,0.000,0.000,0.000,0.000,0.000,0.000,0,2,0,1,7,255,1440,200,0,0,-89.405,0.790,-31.435
EX0521-092111,18,C27,prep,555,555,0,905994.093,0.685,-0.676,0.195,0.188,0,0,0,0,0,0,0,0,0,0.000,0,0,0.098,0.004,-0.080,-0.040,-0.040,0.014,0.992,0.014,0.004,0.000,-0.002,0.000,0.000,0.000,0.000,0,2,0,1,7,255,1440,200,0,0,-89.405,0.790,-31.435
EX0521-092111,18,C27,prep,555,555,0,905999.091,0.685,-0.676,0.195,0.188,0,0,0,0,0,0,0,0,0,0.000,0,0,0.110,0.004,0.100,0.020,-0.040,0.014,0.994,0.010,0.004,0.000,-0.002,0.000,0.000,0.000,0.000,0,2,0,1,7,255,1440,200,0,0,-89.405,0.790,-31.435
EX0521-092111,18,C27,prep,555,555,0,906004.092,0.685,-0.676,0.195,0.188,0,0,0,0,0,0,0,0,0,0.000,0,0,0.049,0.008,-0.020,-0.040,0.020,0.014,0.994,0.011,0.002,0.008,0.004,0.000,0.000,0.000,0.000,0,2,0,1,7,255,1440,200,0,0,-89.405,0.790,-31.435
EX0521-092111,18,C27,prep,557,557,0,906009.091,0.685,-0.676,0.195,0.188,0,0,0,0,0,0,0,0,0,0.000,0,0,0.060,0.009,-0.020,-0.040,-0.040,0.015,0.994,0.011,0.004,0.008,0.008,0.000,0.000,0.000,0.000,0,2,0,1,7,255,1440,200,0,0,-89.405,0.790,-31.435
EX0521-092111,18,C27,prep,557,557,0,906014.092,0.685,-0.676,0.195,0.188,0,0,0,0,0,0,0,0,0,0.000,0,0,0.147,0.004,0.040,-0.100,-0.100,0.014,0.995,0.011,0.002,0.004,0.008,0.000,0.000,0.000,0.000,0,2,0,1,7,255,1440,200,0,0,-89.405,0.790,-31.435
EX0521-092111,18,C27,prep,558,558,0,906019.091,0.685,-0.676,0.195,0.188,0,0,0,0,0,0,0,0,0,0.000,0,0,0.069,0.004,0.040,-0.040,-0.040,0.015,0.994,0.011,0.004,0.002,0.008,0.000,0.000,0.000,0.000,0,2,0,1,7,255,1440,200,0,0,-89.405,0.790,-31.435
EX0521-092111,18,C27,prep,558,558,0,906024.092,0.685,-0.676,0.195,0.188,0,0,0,0,0,0,0,0,0,0.000,0,0,0.092,0.003,-0.080,-0.040,0.020,0.015,0.994,0.012,0.002,0.002,0.008,0.000,0.000,0.000,0.000,0,2,0,1,7,255,1440,200,0,0,-89.405,0.790,-31.435
EX0521-092111,18,C27,prep,592,592,0,906029.092,0.685,-0.676,0.195,0.188,0,0,0,0,0,0,0,0,0,0.000,0,0,0.069,0.004,0.040,-0.040,-0.040,0.015,0.993,0.012,0.002,-0.004,0.004,0.000,0.000,0.000,0.000,0,2,0,1,7,255,1440,200,0,0,-89.405,0.790,-31.435
EX0521-092111,18,C27,prep,592,592,0,906034.092,0.685,-0.676,0.195,0.188,0,0,0,0,0,0,0,0,0,0.000,0,0,0.060,0.004,-0.020,-0.040,-0.040,0.015,0.994,0.011,0.002,-0.004,0.004,0.000,0.000,0.000,0.000,0,2,0,1,7,255,1440,200,0,0,-89.405,0.790,-31.435
EX0521-092111,18,C27,prep,592,592,0,906039.091,0.685,-0.676,0.195,0.188,0,0,0,0,0,0,0,0,0,0.000,0,0,0.098,0.004,-0.080,-0.040,-0.040,0.015,0.995,0.011,0.004,-0.002,0.004,0.000,0.000,0.000,0.000,0,2,0,1,7,255,1440,200,0,0,-89.405,0.790,-31.435
EX0521-092111,18,C27,prep,592,592,0,906044.092,0.685,-0.676,0.195,0.188,0,0,0,0,0,0,0,0,0,0.000,0,0,0.060,0.004,0.040,-0.040,0.020,0.015,0.993,0.011,0.004,0.000,0.004,0.000,0.000,0.000,0.000,0,2,0,1,7,255,1440,200,0,0,-89.405,0.790,-31.435
EX0521-092111,18,C27,prep,592,592,0,906049.091,0.685,-0.676,0.195,0.188,0,0,0,0,0,0,0,0,0,0.000,0,0,0.147,0.004,0.100,-0.100,-0.040,0.015,0.993,0.011,0.004,0.000,-0.006,0.000,0.000,0.000,0.000,0,2,0,1,7,255,1440,200,0,0,-89.405,0.790,-31.435
EX0521-092111,18,C27,prep,592,592,0,906054.092,0.685,-0.676,0.195,0.188,0,0,0,0,0,0,0,0,0,0.000,0,0,0.060,0.004,-0.020,-0.040,-0.040,0.016,0.995,0.011,0.004,0.000,-0.006,0.000,0.000,0.000,0.000,0,2,0,1,7,255,1440,200,0,0,-89.405,0.790,-31.435
EX0521-092111,18,C27,prep,593,593,0,906059.092,0.685,-0.676,0.195,0.188,0,0,0,0,0,0,0,0,0,0.000,0,0,0.110,0.006,-0.020,-0.100,-0.040,0.015,0.993,0.012,0.004,-0.004,-0.002,0.000,0.000,0.000,0.000,0,2,0,1,7,255,1440,200,0,0,-89.405,0.790,-31.435
EX0521-092111,18,C27,prep,593,593,0,906064.092,0.685,-0.676,0.195,0.188,0,0,0,0,0,0,0,0,0,0.000,0,0,0.069,0.007,0.040,-0.040,-0.040,0.015,0.993,0.011,0.006,-0.004,-0.002,0.000,0.000,0.000,0.000,0,2,0,1,7,255,1440,200,0,0,-89.405,0.790,-31.435
EX0521-092111,18,C27,prep,622,622,0,906069.092,0.685,-0.676,0.195,0.188,0,0,0,0,0,0,0,0,0,0.000,0,0,0.049,0.007,-0.020,-0.040,0.020,0.015,0.993,0.012,0.006,-0.004,-0.002,0.000,0.000,0.000,0.000,0,2,0,1,7,255,1440,200,0,0,-89.405,0.790,-31.435
EX0521-092111,18,C27,prep,622,622,0,906074.093,0.685,-0.676,0.195,0.188,0,0,0,0,0,0,0,0,0,0.000,0,0,0.060,0.006,-0.020,-0.040,-0.040,0.015,0.993,0.011,0.006,0.000,-0.002,0.000,0.000,0.000,0.000,0,2,0,1,7,255,1440,200,0,0,-89.405,0.790,-31.435
EX0521-092111,18,C27,prep,640,640,0,906079.092,0.685,-0.676,0.195,0.188,0,0,0,0,0,0,0,0,0,0.000,0,0,0.115,0.004,0.100,-0.040,-0.040,0.014,0.993,0.011,0.004,0.000,-0.002,0.000,0.000,0.000,0.000,0,2,0,1,7,255,1440,200,0,0,-89.405,0.790,-31.435
EX0521-092111,18,C27,prep,640,640,0,906084.091,0.685,-0.676,0.195,0.188,0,0,0,0,0,0,0,0,0,0.000,0,0,0.060,0.004,-0.020,-0.040,-0.040,0.014,0.995,0.011,0.000,0.004,-0.002,0.000,0.000,0.000,0.000,0,2,0,1,7,255,1440,200,0,0,-89.405,0.790,-31.435
EX0521-092111,18,C27,prep,640,640,0,906089.093,0.685,-0.676,0.195,0.188,0,0,0,0,0,0,0,0,0,0.000,0,0,0.049,0.004,-0.020,0.020,-0.040,0.015,0.994,0.013,0.000,0.004,0.004,0.000,0.000,0.000,0.000,0,2,0,1,7,255,1440,200,0,0,-89.405,0.790,-31.435
EX0521-092111,18,C27,prep,640,640,0,906094.093,0.685,-0.676,0.195,0.188,0,0,0,0,0,0,0,0,0,0.000,0,0,0.069,0.002,0.040,-0.040,-0.040,0.014,0.994,0.012,-0.002,0.000,0.004,0.000,0.000,0.000,0.000,0,2,0,1,7,255,1440,200,0,0,-89.405,0.790,-31.435
EX0521-092111,18,C27,prep,640,640,0,906099.092,0.685,-0.676,0.195,0.188,0,0,0,0,0,0,0,0,0,0.000,0,0,0.092,0.000,-0.080,0.020,-0.040,0.014,0.994,0.011,0.000,0.000,0.004,0.000,0.000,0.000,0.000,0,2,0,1,7,255,1440,200,0,0,-89.405,0.790,-31.435
EX0521-092111,18,C27,prep,640,640,0,906104.091,0.685,-0.676,0.195,0.188,0,0,0,0,0,0,0,0,0,0.000,0,0,0.098,0.006,-0.080,-0.040,-0.040,0.014,0.994,0.011,-0.004,0.004,0.004,0.000,0.000,0.000,0.000,0,2,0,1,7,255,1440,200,0,0,-89.406,0.790,-31.435
EX0521-092111,18,C27,prep,657,657,0,906109.092,0.685,-0.676,0.195,0.188,0,0,0,0,0,0,0,0,0,0.000,0,0,0.115,0.004,0.040,-0.100,-0.040,0.014,0.993,0.012,-0.002,0.004,0.002,0.000,0.000,0.000,0.000,0,2,0,1,7,255,1440,200,0,0,-89.406,0.790,-31.435
EX0521-092111,18,C27,prep,657,657,0,906114.091,0.685,-0.676,0.195,0.188,0,0,0,0,0,0,0,0,0,0.000,0,0,0.110,0.004,0.100,0.020,-0.040,0.014,0.994,0.012,-0.004,0.002,0.008,0.000,0.000,0.000,0.000,0,2,0,1,7,255,1440,200,0,0,-89.406,0.790,-31.435
EX0521-092111,18,C27,prep,658,658,0,906119.092,0.685,-0.676,0.195,0.188,0,0,0,0,0,0,0,0,0,0.000,0,0,0.049,0.002,-0.020,-0.040,0.020,0.014,0.993,0.012,-0.002,0.000,-0.006,0.000,0.000,0.000,0.000,0,2,0,1,7,255,1440,200,0,0,-89.406,0.790,-31.435
EX0521-092111,18,C27,prep,658,658,0,906124.091,0.685,-0.676,0.195,0.188,0,0,0,0,0,0,0,0,0,0.000,0,0,0.060,0.002,0.040,-0.040,0.020,0.014,0.995,0.012,-0.002,0.000,0.008,0.000,0.000,0.000,0.000,0,2,0,1,7,255,1440,200,0,0,-89.406,0.790,-31.435
EX0521-092111,18,C27,prep,659,659,0,906129.092,0.685,-0.676,0.195,0.188,0,0,0,0,0,0,0,0,0,0.000,0,0,0.115,0.002,0.100,-0.040,-0.040,0.014,0.993,0.012,-0.002,0.000,-0.006,0.000,0.000,0.000,0.000,0,2,0,1,7,255,1440,200,0,0,-89.406,0.790,-31.435
EX0521-092111,18,C27,prep,659,659,0,906134.091,0.685,-0.676,0.195,0.188,0,0,0,0,0,0,0,0,0,0.000,0,0,0.098,0.002,-0.080,-0.040,-0.040,0.015,0.994,0.013,-0.002,0.000,0.004,0.000,0.000,0.000,0.000,0,2,0,1,7,255,1440,200,0,0,-89.406,0.790,-31.435
EX0521-092111,18,C27,prep,687,687,0,906139.092,0.685,-0.676,0.195,0.188,0,0,0,0,0,0,0,0,0,0.000,0,0,0.110,0.006,-0.020,-0.100,-0.040,0.015,0.995,0.012,-0.002,-0.006,0.004,0.000,0.000,0.000,0.000,0,2,0,1,7,255,1440,200,0,0,-89.406,0.790,-31.435
EX0521-092111,18,C27,prep,687,687,0,906144.091,0.685,-0.676,0.195,0.188,0,0,0,0,0,0,0,0,0,0.000,0,0,0.069,0.008,0.040,-0.040,-0.040,0.015,0.994,0.010,0.006,-0.006,0.008,0.000,0.000,0.000,0.000,0,2,0,1,7,255,1440,200,0,0,-89.406,0.790,-31.435
EX0521-092111,18,C27,prep,687,687,0,906149.092,0.685,-0.676,0.195,0.188,0,0,0,0,0,0,0,0,0,0.000,0,0,0.049,0.008,-0.020,0.020,-0.040,0.015,0.994,0.012,0.006,-0.006,0.008,0.000,0.000,0.000,0.000,0,2,0,1,7,255,1440,200,0,0,-89.406,0.790,-31.435
EX0521-092111,18,C27,prep,687,687,0,906154.091,0.685,-0.676,0.195,0.188,0,0,0,0,0,0,0,0,0,0.000,0,0,0.060,0.006,-0.020,-0.040,-0.040,0.014,0.994,0.012,0.006,0.000,0.002,0.000,0.000,0.000,0.000,0,2,0,1,7,255,1440,200,0,0,-89.406,0.790,-31.435
EX0521-092111,18,C27,prep,688,688,0,906159.093,0.685,-0.676,0.195,0.188,0,0,0,0,0,0,0,0,0,0.000,0,0,0.060,0.006,0.040,-0.040,0.020,0.015,0.994,0.011,0.006,-0.002,0.002,0.000,0.000,0.000,0.000,0,2,0,1,7,255,1440,200,0,0,-89.406,0.790,-31.435
EX0521-092111,18,C27,prep,688,688,0,906164.093,0.685,-0.676,0.195,0.188,0,0,0,0,0,0,0,0,0,0.000,0,0,0.110,0.000,-0.020,-0.100,-0.040,0.014,0.994,0.011,0.000,0.000,0.008,0.000,0.000,0.000,0.000,0,2,0,1,7,255,1440,200,0,0,-89.406,0.790,-31.435
EX0521-092111,18,C27,prep,703,703,0,906169.092,0.685,-0.676,0.195,0.188,0,0,0,0,0,0,0,0,0,0.000,0,0,0.098,0.003,-0.080,-0.040,-0.040,0.015,0.993,0.012,0.002,-0.002,0.008,0.000,0.000,0.000,0.000,0,2,0,1,7,255,1440,200,0,0,-89.406,0.790,-31.435
EX0521-092111,18,C27,prep,703,703,0,906174.092,0.685,-0.676,0.195,0.188,0,0,0,0,0,0,0,0,0,0.000,0,0,0.115,0.002,0.040,-0.040,-0.100,0.015,0.993,0.011,0.002,0.000,-0.002,0.000,0.000,0.000,0.000,0,2,0,1,7,255,1440,200,0,0,-89.406,0.790,-31.435
EX0521-092111,18,C27,prep,736,736,0,906179.092,0.685,-0.676,0.195,0.188,0,0,0,0,0,0,0,0,0,0.000,0,0,0.069,0.004,0.040,-0.040,-0.040,0.015,0.993,0.012,0.002,-0.004,-0.002,0.000,0.000,0.000,0.000,0,2,0,1,7,255,1440,200,0,0,-89.406,0.790,-31.435
EX0521-092111,18,C27,prep,736,736,0,906184.092,0.685,-0.676,0.195,0.188,0,0,0,0,0,0,0,0,0,0.000,0,0,0.092,0.004,-0.080,-0.040,0.020,0.015,0.993,0.012,0.002,-0.004,-0.006,0.000,0.000,0.000,0.000,0,2,0,1,7,255,1440,200,0,0,-89.406,0.790,-31.435
EX0521-092111,18,C27,prep,753,753,0,906189.093,0.685,-0.676,0.195,0.188,0,0,0,0,0,0,0,0,0,0.000,0,0,0.049,0.006,-0.020,0.020,-0.040,0.015,0.995,0.012,0.002,-0.006,-0.006,0.000,0.000,0.000,0.000,0,2,0,1,7,255,1440,200,0,0,-89.406,0.790,-31.435
EX0521-092111,18,C27,prep,753,753,0,906194.093,0.685,-0.676,0.195,0.188,0,0,0,0,0,0,0,0,0,0.000,0,0,0.060,0.010,0.040,-0.040,0.020,0.016,0.993,0.012,0.002,-0.010,-0.006,0.000,0.000,0.000,0.000,0,2,0,1,7,255,1440,200,0,0,-89.406,0.790,-31.435
EX0521-092111,18,C27,prep,754,754,0,906199.091,0.685,-0.676,0.195,0.188,0,0,0,0,0,0,0,0,0,0.000,0,0,0.092,0.008,-0.080,-0.040,0.020,0.015,0.994,0.010,0.006,-0.006,0.008,0.000,0.000,0.000,0.000,0,2,0,1,7,255,1440,200,0,0,-89.406,0.790,-31.435
EX0521-092111,18,C27,prep,754,754,0,906204.092,0.685,-0.676,0.195,0.188,0,0,0,0,0,0,0,0,0,0.000,0,0,0.060,0.008,-0.020,-0.040,-0.040,0.015,0.994,0.012,0.006,-0.006,0.002,0.000,0.000,0.000,0.000,0,2,0,1,7,255,1440,200,0,0,-89.406,0.790,-31.435
EX0521-092111,18,C27,prep,755,755,0,906209.092,0.685,-0.676,0.195,0.188,0,0,0,0,0,0,0,0,0,0.000,0,0,0.115,0.008,0.040,-0.100,-0.040,0.014,0.993,0.011,0.002,0.008,0.002,0.000,0.000,0.000,0.000,0,2,0,1,7,255,1440,200,0,0,-89.406,0.790,-31.435
EX0521-092111,18,C27,prep,755,755,0,906214.092,0.685,-0.676,0.195,0.188,0,0,0,0,0,0,0,0,0,0.000,0,0,0.049,0.008,-0.020,-0.040,0.020,0.014,0.993,0.011,0.002,0.008,-0.002,0.000,0.000,0.000,0.000,0,2,0,1,7,255,1440,200,0,0,-89.406,0.790,-31.435
EX0521-092111,18,C27,prep,767,767,0,906219.091,0.685,-0.676,0.195,0.188,0,0,0,0,0,0,0,0,0,0.000,0,0,0.060,0.008,-0.020,-0.040,-0.040,0.014,0.993,0.012,0.002,0.008,-0.002,0.000,0.000,0.000,0.000,0,2,0,1,7,255,1440,200,0,0,-89.406,0.790,-31.435
EX0521-092111,18,C27,prep,767,767,0,906224.092,0.685,-0.676,0.195,0.188,0,0,0,0,0,0,0,0,0,0.000,0,0,0.069,0.004,0.040,-0.040,-0.040,0.014,0.993,0.011,0.000,0.004,-0.002,0.000,0.000,0.000,0.000,0,2,0,1,7,255,1440,200,0,0,-89.406,0.790,-31.435
EX0521-092111,18,C27,prep,767,767,0,906229.093,0.685,-0.676,0.195,0.188,0,0,0,0,0,0,0,0,0,0.000,0,0,0.049,0.002,0.040,0.020,0.020,0.015,0.993,0.011,0.000,0.002,-0.002,0.000,0.000,0.000,0.000,0,2,0,1,7,255,1440,200,0,0,-89.406,0.790,-31.435
EX0521-092111,18,C27,prep,767,767,0,906234.092,0.685,-0.676,0.195,0.188,0,0,0,0,0,0,0,0,0,0.000,0,0,0.098,0.004,-0.080,-0.040,-0.040,0.016,0.993,0.011,0.004,0.002,-0.002,0.000,0.000,0.000,0.000,0,2,0,1,7,255,1440,200,0,0,-89.406,0.790,-31.435
EX0521-092111,18,C27,prep,786,786,0,906239.091,0.685,-0.676,0.195,0.188,0,0,0,0,0,0,0,0,0,0.000,0,0,0.049,0.004,-0.020,0.020,-0.040,0.014,0.994,0.011,0.004,0.002,-0.002,0.000,0.000,0.000,0.000,0,2,0,1,7,255,1440,200,0,0,-89.406,0.790,-31.435
EX0521-092111,18,C27,prep,786,786,0,906244.092,0.685,-0.676,0.195,0.188,0,0,0,0,0,0,0,0,0,0.000,0,0,0.069,0.004,0.040,-0.040,-0.040,0.014,0.994,0.011,0.000,0.004,0.002,0.000,0.000,0.000,0.000,0,2,0,1,7,255,1440,200,0,0,-89.406,0.790,-31.435
EX0521-092111,18,C27,prep,786,786,0,906249.091,0.685,-0.676,0.195,0.188,0,0,0,0,0,0,0,0,0,0.000,0,0,0.060,0.007,-0.020,-0.040,-0.040,0.014,0.993,0.011,-0.004,0.006,0.002,0.000,0.000,0.000,0.000,0,2,0,1,7,255,1440,200,0,0,-89.406,0.790,-31.435
EX0521-092111,18,C27,prep,786,786,0,906254.092,0.685,-0.676,0.195,0.188,0,0,0,0,0,0,0,0,0,0.000,0,0,0.110,0.007,0.040,-0.100,0.020,0.014,0.993,0.012,-0.004,0.006,-0.006,0.000,0.000,0.000,0.000,0,2,0,1,7,255,1440,200,0,0,-89.406,0.790,-31.435
EX0521-092111,18,C27,prep,800,800,0,906259.091,0.685,-0.676,0.195,0.188,0,0,0,0,0,0,0,0,0,0.000,0,0,0.060,0.007,-0.020,-0.040,-0.040,0.014,0.994,0.011,-0.004,0.006,-0.006,0.000,0.000,0.000,0.000,0,2,0,1,7,255,1440,200,0,0,-89.406,0.790,-31.435
EX0521-092111,18,C27,prep,800,800,0,906264.092,0.685,-0.676,0.195,0.188,0,0,0,0,0,0,0,0,0,0.000,0,0,0.060,0.004,-0.020,-0.040,-0.040,0.014,0.994,0.012,-0.004,0.000,0.002,0.000,0.000,0.000,0.000,0,2,0,1,7,255,1440,200,0,0,-89.406,0.790,-31.435
EX0521-092111,18,C27,prep,819,819,0,906269.091,0.685,-0.676,0.195,0.188,0,0,0,0,0,0,0,0,0,0.000,0,0,0.069,0.002,0.040,-0.040,-0.040,0.015,0.993,0.012,-0.002,0.000,0.002,0.000,0.000,0.000,0.000,0,2,0,1,7,255,1440,200,0,0,-89.406,0.790,-31.435
EX0521-092111,18,C27,prep,819,819,0,906274.092,0.685,-0.676,0.195,0.188,0,0,0,0,0,0,0,0,0,0.000,0,0,0.069,0.000,0.040,-0.040,-0.040,0.015,0.994,0.011,0.000,0.000,0.008,0.000,0.000,0.000,0.000,0,2,0,1,7,255,1440,200,0,0,-89.406,0.790,-31.435
EX0521-092111,18,C27,prep,859,859,0,906279.091,0.685,-0.676,0.195,0.188,0,0,0,0,0,0,0,0,0,0.000,0,0,0.060,0.003,-0.020,-0.040,-0.040,0.014,0.993,0.011,0.002,0.002,-0.002,0.000,0.000,0.000,0.000,0,2,0,1,7,255,1440,200,0,0,-89.406,0.790,-31.435
EX0521-092111,18,C27,prep,859,859,0,906284.092,0.685,-0.676,0.195,0.188,0,0,0,0,0,0,0,0,0,0.000,0,0,0.110,0.003,-0.020,-0.100,-0.040,0.013,0.993,0.012,0.002,0.002,-0.002,0.000,0.000,0.000,0.000,0,2,0,1,7,255,1440,200,0,0,-89.406,0.790,-31.435
EX0521-092111,18,C27,prep,859,859,0,906289.092,0.685,-0.676,0.195,0.188,0,0,0,0,0,0,0,0,0,0.000,0,0,0.049,0.000,-0.020,-0.040,0.020,0.015,0.994,0.012,0.000,0.000,-0.002,0.000,0.000,0.000,0.000,0,2,0,1,7,255,1440,200,0,0,-89.406,0.790,-31.435
EX0521-092111,18,C27,prep,859,859,0,906294.093,0.685,-0.676,0.195,0.188,0,0,0,0,0,0,0,0,0,0.000,0,0,0.060,0.004,-0.020,-0.040,-0.040,0.016,0.994,0.011,0.000,-0.004,0.002,0.000,0.000,0.000,0.000,0,2,0,1,7,255,1440,200,0,0,-89.406,0.790,-31.435
EX0521-092111,18,C27,prep,859,859,0,906299.092,0.685,-0.676,0.195,0.188,0,0,0,0,0,0,0,0,0,0.000,0,0,0.115,0.007,0.040,-0.040,-0.100,0.015,0.993,0.012,0.004,-0.006,0.002,0.000,0.000,0.000,0.000,0,2,0,1,7,255,1440,200,0,0,-89.406,0.790,-31.435
EX0521-092111,18,C27,prep,859,859,0,906304.091,0.685,-0.676,0.195,0.188,0,0,0,0,0,0,0,0,0,0.000,0,0,0.069,0.007,0.040,-0.040,-0.040,0.015,0.994,0.013,0.004,-0.006,0.002,0.000,0.000,0.000,0.000,0,2,0,1,7,255,1440,200,0,0,-89.406,0.790,-31.435
EX0521-092111,18,C27,prep,859,859,0,906309.092,0.685,-0.676,0.195,0.188,0,0,0,0,0,0,0,0,0,0.000,0,0,0.069,0.009,0.040,-0.040,-0.040,0.016,0.995,0.012,0.004,-0.008,0.002,0.000,0.000,0.000,0.000,0,2,0,1,7,255,1440,200,0,0,-89.406,0.790,-31.435
EX0521-092111,18,C27,prep,859,859,0,906314.091,0.685,-0.676,0.195,0.188,0,0,0,0,0,0,0,0,0,0.000,0,0,0.069,0.011,0.040,-0.040,-0.040,0.015,0.994,0.010,0.008,-0.008,0.008,0.000,0.000,0.000,0.000,0,2,0,1,7,255,1440,200,0,0,-89.406,0.790,-31.435
EX0521-092111,18,C27,prep,860,860,0,906319.092,0.685,-0.676,0.195,0.188,0,0,0,0,0,0,0,0,0,0.000,0,0,0.060,0.012,-0.020,-0.040,-0.040,0.016,0.993,0.011,0.012,0.000,0.008,0.000,0.000,0.000,0.000,0,2,0,1,7,255,1440,200,0,0,-89.406,0.790,-31.435
EX0521-092111,18,C27,prep,860,860,0,906324.091,0.685,-0.676,0.195,0.188,0,0,0,0,0,0,0,0,0,0.000,0,0,0.069,0.012,0.040,-0.040,-0.040,0.015,0.994,0.011,0.012,0.000,0.002,0.000,0.000,0.000,0.000,0,2,0,1,7,255,1440,200,0,0,-89.407,0.790,-31.435
EX0521-092111,18,C27,prep,864,864,0,906329.092,0.685,-0.676,0.195,0.188,0,0,0,0,0,0,0,0,0,0.000,0,0,0.060,0.006,-0.020,-0.040,-0.040,0.014,0.993,0.012,0.006,0.000,-0.002,0.000,0.000,0.000,0.000,0,2,0,1,7,255,1440,200,0,0,-89.407,0.790,-31.435
EX0521-092111,18,C27,prep,864,864,0,906334.091,0.685,-0.676,0.195,0.188,0,0,0,0,0,0,0,0,0,0.000,0,0,0.060,0.004,-0.020,-0.040,-0.040,0.014,0.994,0.012,-0.004,0.000,0.002,0.000,0.000,0.000,0.000,0,2,0,1,7,255,1440,200,0,0,-89.407,0.790,-31.435
EX0521-092111,18,C27,prep,891,891,0,906339.092,0.685,-0.676,0.195,0.188,0,0,0,0,0,0,0,0,0,0.000,0,0,0.069,0.004,0.040,-0.040,-0.040,0.015,0.993,0.011,-0.004,0.002,-0.002,0.000,0.000,0.000,0.000,0,2,0,1,7,255,1440,200,0,0,-89.407,0.790,-31.435
EX0521-092111,18,C27,prep,891,891,0,906344.091,0.685,-0.676,0.195,0.188,0,0,0,0,0,0,0,0,0,0.000,0,0,0.060,0.008,-0.020,-0.040,-0.040,0.014,0.993,0.012,-0.008,0.002,-0.002,0.000,0.000,0.000,0.000,0,2,0,1,7,255,1440,200,0,0,-89.407,0.790,-31.435
EX0521-092111,18,C27,prep,891,891,0,906349.092,0.685,-0.676,0.195,0.188,0,0,0,0,0,0,0,0,0,0.000,0,0,0.060,0.003,-0.020,-0.040,-0.040,0.015,0.993,0.012,-0.002,0.002,-0.002,0.000,0.000,0.000,0.000,0,2,0,1,7,255,1440,200,0,0,-89.407,0.790,-31.435
EX0521-092111,18,C27,prep,891,891,0,906354.091,0.685,-0.676,0.195,0.188,0,0,0,0,0,0,0,0,0,0.000,0,0,0.069,0.004,0.040,-0.040,-0.040,0.014,0.992,0.012,-0.004,0.000,-0.002,0.000,0.000,0.000,0.000,0,2,0,1,7,255,1440,200,0,0,-89.407,0.790,-31.435
EX0521-092111,18,C27,prep,892,892,0,906359.092,0.685,-0.676,0.195,0.188,0,0,0,0,0,0,0,0,0,0.000,0,0,0.098,0.002,-0.080,-0.040,-0.040,0.014,0.993,0.011,-0.002,0.000,-0.006,0.000,0.000,0.000,0.000,0,2,0,1,7,255,1440,200,0,0,-89.407,0.790,-31.435
EX0521-092111,18,C27,prep,892,892,0,906364.093,0.685,-0.676,0.195,0.188,0,0,0,0,0,0,0,0,0,0.000,0,0,0.060,0.004,-0.020,-0.040,-0.040,0.013,0.992,0.013,-0.004,0.000,-0.012,0.000,0.000,0.000,0.000,0,2,0,1,7,255,1440,200,0,0,-89.407,0.790,-31.435
EX0521-092111,18,C27,prep,914,914,0,906369.092,0.685,-0.676,0.195,0.188,0,0,0,0,0,0,0,0,0,0.000,0,0,0.049,0.004,-0.020,-0.040,0.020,0.014,0.994,0.012,-0.004,0.000,-0.006,0.000,0.000,0.000,0.000,0,2,0,1,7,255,1440,200,0,0,-89.407,0.790,-31.435
EX0521-092111,18,C27,prep,914,914,0,906374.091,0.685,-0.676,0.195,0.188,0,0,0,0,0,0,0,0,0,0.000,0,0,0.060,0.004,-0.020,-0.040,-0.040,0.014,0.993,0.012,-0.004,0.000,-0.006,0.000,0.000,0.000,0.000,0,2,0,1,7,255,1440,200,0,0,-89.407,0.790,-31.435
EX0521-092111,18,C27,prep,948,948,0,906379.092,0.685,-0.676,0.195,0.188,0,0,0,0,0,0,0,0,0,0.000,0,0,0.104,0.004,-0.020,-0.100,0.020,0.014,0.994,0.013,-0.004,0.000,0.002,0.000,0.000,0.000,0.000,0,2,0,1,7,255,1440,200,0,0,-89.407,0.790,-31.435
EX0521-092111,18,C27,prep,948,948,0,906384.091,0.685,-0.676,0.195,0.188,0,0,0,0,0,0,0,0,0,0.000,0,0,0.060,0.004,-0.020,-0.040,-0.040,0.014,0.993,0.011,-0.004,0.000,-0.006,0.000,0.000,0.000,0.000,0,2,0,1,7,255,1440,200,0,0,-89.407,0.790,-31.435
EX0521-092111,18,C27,prep,948,948,0,906389.092,0.685,-0.676,0.195,0.188,0,0,0,0,0,0,0,0,0,0.000,0,0,0.049,0.004,-0.020,0.020,-0.040,0.015,0.993,0.011,-0.004,0.000,-0.006,0.000,0.000,0.000,0.000,0,2,0,1,7,255,1440,200,0,0,-89.407,0.790,-31.435
EX0521-092111,18,C27,prep,948,948,0,906394.093,0.685,-0.676,0.195,0.188,0,0,0,0,0,0,0,0,0,0.000,0,0,0.060,0.006,-0.020,-0.040,-0.040,0.013,0.992,0.012,-0.004,0.004,-0.006,0.000,0.000,0.000,0.000,0,2,0,1,7,255,1440,200,0,0,-89.407,0.790,-31.435
EX0521-092111,18,C27,prep,948,948,0,906399.092,0.685,-0.676,0.195,0.188,0,0,0,0,0,0,0,0,0,0.000,0,0,0.049,0.004,-0.020,0.020,-0.040,0.015,0.994,0.013,-0.004,0.000,-0.006,0.000,0.000,0.000,0.000,0,2,0,1,7,255,1440,200,0,0,-89.407,0.790,-31.435
EX0521-092111,18,C27,prep,948,948,0,906404.092,0.685,-0.676,0.195,0.188,0,0,0,0,0,0,0,0,0,0.000,0,0,0.049,0.004,-0.020,-0.040,0.020,0.015,0.994,0.011,-0.004,-0.002,0.004,0.000,0.000,0.000,0.000,0,2,0,1,7,255,1440,200,0,0,-89.407,0.790,-31.435
EX0521-092111,18,C27,prep,959,959,0,906409.091,0.685,-0.676,0.195,0.188,0,0,0,0,0,0,0,0,0,0.000,0,0,0.049,0.011,-0.020,0.020,-0.040,0.016,0.994,0.012,0.008,-0.008,0.004,0.000,0.000,0.000,0.000,0,2,0,1,7,255,1440,200,0,0,-89.407,0.790,-31.435
EX0521-092111,18,C27,prep,959,959,0,906414.092,0.685,-0.676,0.195,0.188,0,0,0,0,0,0,0,0,0,0.000,0,0,0.104,0.008,-0.020,-0.100,0.020,0.014,0.994,0.011,0.008,-0.002,0.004,0.000,0.000,0.000,0.000,0,2,0,1,7,255,1440,200,0,0,-89.407,0.790,-31.435
EX0521-092111,18,C27,prep,959,959,0,906419.092,0.685,-0.676,0.195,0.188,0,0,0,0,0,0,0,0,0,0.000,0,0,0.069,0.004,0.040,-0.040,-0.040,0.015,0.994,0.011,0.004,0.002,0.004,0.000,0.000,0.000,0.000,0,2,0,1,7,255,1440,200,0,0,-89.407,0.790,-31.435
EX0521-092111,18,C27,prep,959,959,0,906424.092,0.685,-0.676,0.195,0.188,0,0,0,0,0,0,0,0,0,0.000,0,0,0.060,0.006,0.040,-0.040,0.020,0.015,0.993,0.011,0.004,0.004,0.004,0.000,0.000,0.000,0.000,0,2,0,1,7,255,1440,200,0,0,-89.407,0.790,-31.435
EX0521-092111,18,C27,prep,959,959,0,906429.092,0.685,-0.676,0.195,0.188,0,0,0,0,0,0,0,0,0,0.000,0,0,0.035,0.007,-0.020,0.020,0.020,0.015,0.992,0.011,0.006,0.004,-0.002,0.000,0.000,0.000,0.000,0,2,0,1,7,255,1440,200,0,0,-89.407,0.790,-31.435
EX0521-092111,18,C27,prep,959,959,0,906434.092,0.685,-0.676,0.195,0.188,0,0,0,0,0,0,0,0,0,0.000,0,0,0.115,0.007,0.100,-0.040,-0.040,0.013,0.994,0.012,0.006,0.004,-0.002,0.000,0.000,0.000,0.000,0,2,0,1,7,255,1440,200,0,0,-89.407,0.790,-31.435
EX0521-092111,18,C27,prep,989,989,0,906439.091,0.685,-0.676,0.195,0.188,0,0,0,0,0,0,0,0,0,0.000,0,0,0.110,0.002,-0.020,-0.040,-0.100,0.015,0.993,0.012,0.002,0.000,-0.002,0.000,0.000,0.000,0.000,0,2,0,1,7,255,1440,200,0,0,-89.407,0.790,-31.435
EX0521-092111,18,C27,prep,989,989,0,906444.092,0.685,-0.676,0.195,0.188,0,0,0,0,0,0,0,0,0,0.000,0,0,0.060,0.004,-0.020,-0.040,-0.040,0.014,0.994,0.012,-0.004,0.000,0.004,0.000,0.000,0.000,0.000,0,2,0,1,7,255,1440,200,0,0,-89.407,0.790,-31.435
EX0521-092111,18,C27,prep,992,992,0,906449.091,0.685,-0.676,0.195,0.188,0,0,0,0,0,0,0,0,0,0.000,0,0,0.069,0.008,0.040,-0.040,-0.040,0.015,0.993,0.012,-0.002,-0.008,-0.002,0.000,0.000,0.000,0.000,0,2,0,1,7,255,1440,200,0,0,-89.407,0.791,-31.435
EX0521-092111,18,C27,prep,992,992,0,906454.092,0.685,-0.676,0.195,0.188,0,0,0,0,0,0,0,0,0,0.000,0,0,0.060,0.004,-0.020,-0.040,-0.040,0.014,0.994,0.011,-0.004,0.000,0.004,0.000,0.000,0.000,0.000,0,2,0,1,7,255,1440,200,0,0,-89.407,0.791,-31.435
EX0521-092111,18,C27,prep,992,992,0,906459.091,0.685,-0.676,0.195,0.188,0,0,0,0,0,0,0,0,0,0.000,0,0,0.060,0.006,-0.020,-0.040,-0.040,0.015,0.993,0.012,-0.002,-0.006,-0.002,0.000,0.000,0.000,0.000,0,2,0,1,7,255,1440,200,0,0,-89.407,0.791,-31.435
EX0521-092111,18,C27,prep,992,992,0,906464.092,0.685,-0.676,0.195,0.188,0,0,0,0,0,0,0,0,0,0.000,0,0,0.035,0.007,-0.020,0.020,0.020,0.015,0.993,0.011,0.004,0.006,-0.002,0.000,0.000,0.000,0.000,0,2,0,1,7,255,1440,200,0,0,-89.407,0.791,-31.435
EX0521-092111,18,C27,prep,1014,1014,0,906469.091,0.685,-0.676,0.195,0.188,0,0,0,0,0,0,0,0,0,0.000,0,0,0.060,0.006,0.040,-0.040,0.020,0.014,0.993,0.011,0.004,0.004,-0.006,0.000,0.000,0.000,0.000,0,2,0,1,7,255,1440,200,0,0,-89.407,0.791,-31.435
EX0521-092111,18,C27,prep,1014,1014,0,906474.092,0.685,-0.676,0.195,0.188,0,0,0,0,0,0,0,0,0,0.000,0,0,0.098,0.004,-0.080,-0.040,-0.040,0.014,0.994,0.012,0.000,0.004,-0.006,0.000,0.000,0.000,0.000,0,2,0,1,7,255,1440,200,0,0,-89.407,0.791,-31.435
EX0521-092111,18,C27,prep,1050,1050,0,906479.091,0.685,-0.676,0.195,0.188,0,0,0,0,0,0,0,0,0,0.000,0,0,0.060,0.008,-0.020,-0.040,-0.040,0.014,0.994,0.012,-0.008,0.002,0.004,0.000,0.000,0.000,0.000,0,2,0,1,7,255,1440,200,0,0,-89.407,0.791,-31.435
EX0521-092111,18,C27,prep,1050,1050,0,906484.092,0.685,-0.676,0.195,0.188,0,0,0,0,0,0,0,0,0,0.000,0,0,0.115,0.008,0.040,-0.040,-0.100,0.014,0.994,0.011,-0.008,0.002,0.004,0.000,0.000,0.000,0.000,0,2,0,1,7,255,1440,200,0,0,-89.407,0.791,-31.435
EX0521-092111,18,C27,prep,1050,1050,0,906489.093,0.685,-0.676,0.195,0.188,0,0,0,0,0,0,0,0,0,0.000,0,0,0.060,0.004,-0.020,-0.040,-0.040,0.015,0.993,0.011,-0.004,0.002,0.004,0.000,0.000,0.000,0.000,0,2,0,1,7,255,1440,200,0,0,-89.407,0.791,-31.435
EX0521-092111,18,C27,prep,1050,1050,0,906494.093,0.685,-0.676,0.195,0.188,0,0,0,0,0,0,0,0,0,0.000,0,0,0.060,0.000,-0.020,-0.040,-0.040,0.015,0.993,0.012,0.000,0.000,-0.002,0.000,0.000,0.000,0.000,0,2,0,1,7,255,1440,200,0,0,-89.407,0.791,-31.435
EX0521-092111,18,C27,prep,1050,1050,0,906499.091,0.685,-0.676,0.195,0.188,0,0,0,0,0,0,0,0,0,0.000,0,0,0.115,0.004,0.040,-0.100,-0.040,0.015,0.994,0.011,0.004,0.000,-0.002,0.000,0.000,0.000,0.000,0,2,0,1,7,255,1440,200,0,0,-89.407,0.791,-31.435
EX0521-092111,18,C27,prep,1050,1050,0,906504.092,0.685,-0.676,0.195,0.188,0,0,0,0,0,0,0,0,0,0.000,0,0,0.060,0.002,-0.020,-0.040,-0.040,0.014,0.993,0.011,0.000,0.002,-0.002,0.000,0.000,0.000,0.000,0,2,0,1,7,255,1440,200,0,0,-89.407,0.791,-31.435
EX0521-092111,18,C27,prep,1051,1051,0,906509.093,0.685,-0.676,0.195,0.188,0,0,0,0,0,0,0,0,0,0.000,0,0,0.060,0.004,0.040,-0.040,0.020,0.014,0.992,0.012,-0.004,0.002,-0.002,0.000,0.000,0.000,0.000,0,2,0,1,7,255,1440,200,0,0,-89.407,0.791,-31.435
EX0521-092111,18,C27,prep,1051,1051,0,906514.092,0.685,-0.676,0.195,0.188,0,0,0,0,0,0,0,0,0,0.000,0,0,0.060,0.006,-0.020,-0.040,-0.040,0.014,0.993,0.012,-0.006,-0.002,-0.006,0.000,0.000,0.000,0.000,0,2,0,1,7,255,1440,200,0,0,-89.407,0.791,-31.435
EX0521-092111,18,C27,prep,1051,1051,0,906519.092,0.685,-0.676,0.195,0.188,0,0,0,0,0,0,0,0,0,0.000,0,0,0.060,0.007,-0.020,-0.040,-0.040,0.015,0.993,0.013,-0.006,-0.004,-0.006,0.000,0.000,0.000,0.000,0,2,0,1,7,255,1440,200,0,0,-89.407,0.791,-31.435
EX0521-092111,18,C27,prep,1051,1051,0,906524.092,0.685,-0.676,0.195,0.188,0,0,0,0,0,0,0,0,0,0.000,0,0,0.060,0.004,-0.020,-0.040,-0.040,0.015,0.994,0.012,-0.004,-0.002,-0.002,0.000,0.000,0.000,0.000,0,2,0,1,7,255,1440,200,0,0,-89.407,0.791,-31.435
EX0521-092111,18,C27,prep,1072,1072,0,906529.092,0.685,-0.676,0.195,0.188,0,0,0,0,0,0,0,0,0,0.000,0,0,0.060,0.004,-0.020,-0.040,-0.040,0.014,0.994,0.012,-0.004,-0.002,0.004,0.000,0.000,0.000,0.000,0,2,0,1,7,255,1440,200,0,0,-89.407,0.791,-31.435
EX0521-092111,18,C27,prep,1072,1072,0,906534.091,0.685,-0.676,0.195,0.188,0,0,0,0,0,0,0,0,0,0.000,0,0,0.060,0.000,-0.020,-0.040,-0.040,0.014,0.994,0.011,0.000,0.000,0.004,0.000,0.000,0.000,0.000,0,2,0,1,7,255,1440,200,0,0,-89.407,0.791,-31.435
EX0521-092111,18,C27,prep,1072,1072,0,906539.092,0.685,-0.676,0.195,0.188,0,0,0,0,0,0,0,0,0,0.000,0,0,0.060,0.000,0.040,-0.040,0.020,0.015,0.994,0.011,0.000,0.000,0.004,0.000,0.000,0.000,0.000,0,2,0,1,7,255,1440,200,0,0,-89.407,0.791,-31.435
EX0521-092111,18,C27,prep,1072,1072,0,906544.091,0.685,-0.676,0.195,0.188,0,0,0,0,0,0,0,0,0,0.000,0,0,0.060,0.006,0.040,-0.040,0.020,0.015,0.992,0.012,0.006,-0.002,0.004,0.000,0.000,0.000,0.000,0,2,0,1,7,255,1440,200,0,0,-89.408,0.791,-31.435
EX0521-092111,18,C27,prep,1087,1087,0,906549.092,0.685,-0.676,0.195,0.188,0,0,0,0,0,0,0,0,0,0.000,0,0,0.035,0.006,-0.020,0.020,0.020,0.014,0.993,0.012,0.006,-0.002,-0.002,0.000,0.000,0.000,0.000,0,2,0,1,7,255,1440,200,0,0,-89.408,0.791,-31.435
EX0521-092111,18,C27,prep,1087,1087,0,906554.091,0.685,-0.676,0.195,0.188,0,0,0,0,0,0,0,0,0,0.000,0,0,0.060,0.006,-0.020,-0.040,-0.040,0.015,0.993,0.011,0.006,-0.002,-0.006,0.000,0.000,0.000,0.000,0,2,0,1,7,255,1440,200,0,0,-89.408,0.791,-31.435
EX0521-092111,18,C27,prep,1103,1103,0,906559.092,0.685,-0.676,0.195,0.188,0,0,0,0,0,0,0,0,0,0.000,0,0,0.049,0.008,-0.020,-0.040,0.020,0.015,0.993,0.011,0.008,0.000,-0.006,0.000,0.000,0.000,0.000,0,2,0,1,7,255,1440,200,0,0,-89.408,0.791,-31.435
EX0521-092111,18,C27,prep,1103,1103,0,906564.093,0.685,-0.676,0.195,0.188,0,0,0,0,0,0,0,0,0,0.000,0,0,0.060,0.008,0.040,0.020,-0.040,0.015,0.993,0.013,0.008,-0.002,-0.006,0.000,0.000,0.000,0.000,0,2,0,1,7,255,1440,200,0,0,-89.408,0.791,-31.435
EX0521-092111,18,C27,prep,1103,1103,0,906569.092,0.685,-0.676,0.195,0.188,0,0,0,0,0,0,0,0,0,0.000,0,0,0.069,0.006,0.040,-0.040,-0.040,0.015,0.994,0.011,0.006,0.002,-0.002,0.000,0.000,0.000,0.000,0,2,0,1,7,255,1440,200,0,0,-89.408,0.791,-31.435
EX0521-092111,18,C27,prep,1103,1103,0,906574.091,0.685,-0.676,0.195,0.188,0,0,0,0,0,0,0,0,0,0.000,0,0,0.060,0.006,0.040,-0.040,0.020,0.014,0.994,0.011,0.002,0.006,0.004,0.000,0.000,0.000,0.000,0,2,0,1,7,255,1440,200,0,0,-89.408,0.791,-31.435
EX0521-092111,18,C27,prep,1135,1135,0,906579.092,0.685,-0.676,0.195,0.188,0,0,0,0,0,0,0,0,0,0.000,0,0,0.092,0.006,-0.080,-0.040,0.020,0.014,0.993,0.011,0.002,0.006,0.004,0.000,0.000,0.000,0.000,0,2,0,1,7,255,1440,200,0,0,-89.408,0.791,-31.435
EX0521-092111,18,C27,prep,1135,1135,0,906584.091,0.685,-0.676,0.195,0.188,0,0,0,0,0,0,0,0,0,0.000,0,0,0.049,0.006,-0.020,-0.040,0.020,0.015,0.993,0.011,0.002,0.006,-0.006,0.000,0.000,0.000,0.000,0,2,0,1,7,255,1440,200,0,0,-89.408,0.791,-31.435
EX0521-092111,18,C27,prep,1135,1135,0,906589.092,0.685,-0.676,0.195,0.188,0,0,0,0,0,0,0,0,0,0.000,0,0,0.049,0.004,-0.020,-0.040,0.020,0.014,0.994,0.012,-0.004,-0.002,-0.006,0.000,0.000,0.000,0.000,0,2,0,1,7,255,1440,200,0,0,-89.408,0.791,-31.435
EX0521-092111,18,C27,prep,1135,1135,0,906594.093,0.685,-0.676,0.195,0.188,0,0,0,0,0,0,0,0,0,0.000,0,0,0.098,0.007,-0.080,-0.040,-0.040,0.014,0.994,0.013,-0.006,-0.004,0.004,0.000,0.000,0.000,0.000,0,2,0,1,7,255,1440,200,0,0,-89.408,0.791,-31.435
EX0521-092111,18,C27,prep,1135,1135,0,906599.092,0.685,-0.676,0.195,0.188,0,0,0,0,0,0,0,0,0,0.000,0,0,0.060,0.009,-0.020,-0.040,-0.040,0.013,0.993,0.011,-0.008,-0.004,0.004,0.000,0.000,0.000,0.000,0,2,0,1,7,255,1440,200,0,0,-89.408,0.791,-31.435
EX0521-092111,18,C27,prep,1135,1135,0,906604.091,0.685,-0.676,0.195,0.188,0,0,0,0,0,0,0,0,0,0.000,0,0,0.049,0.008,-0.020,0.020,-0.040,0.015,0.994,0.012,-0.008,-0.002,0.004,0.000,0.000,0.000,0.000,0,2,0,1,7,255,1440,200,0,0,-89.408,0.791,-31.435
EX0521-092111,18,C27,prep,1167,1167,0,906609.092,0.685,-0.676,0.195,0.188,0,0,0,0,0,0,0,0,0,0.000,0,0,0.049,0.002,-0.020,-0.040,0.020,0.015,0.993,0.011,0.000,0.002,-0.006,0.000,0.000,0.000,0.000,0,2,0,1,7,255,1440,200,0,0,-89.408,0.791,-31.435
EX0521-092111,18,C27,prep,1167,1167,0,906614.091,0.685,-0.676,0.195,0.188,0,0,0,0,0,0,0,0,0,0.000,0,0,0.060,0.002,-0.020,-0.040,-0.040,0.014,0.994,0.012,0.000,-0.002,0.004,0.000,0.000,0.000,0.000,0,2,0,1,7,255,1440,200,0,0,-89.408,0.791,-31.435
EX0521-092111,18,C27,prep,1167,1167,0,906619.092,0.685,-0.676,0.195,0.188,0,0,0,0,0,0,0,0,0,0.000,0,0,0.110,0.004,-0.020,-0.100,-0.040,0.015,0.994,0.011,0.004,0.002,0.004,0.000,0.000,0.000,0.000,0,2,0,1,7,255,1440,200,0,0,-89.408,0.791,-31.435
EX0521-092111,18,C27,prep,1167,1167,0,906624.091,0.685,-0.676,0.195,0.188,0,0,0,0,0,0,0,0,0,0.000,0,0,0.060,0.003,-0.020,-0.040,-0.040,0.014,0.993,0.011,0.002,0.002,0.004,0.000,0.000,0.000,0.000,0,2,0,1,7,255,1440,200,0,0,-89.408,0.791,-31.435
EX0521-092111,18,C27,prep,1167,1167,0,906629.092,0.685,-0.676,0.195,0.188,0,0,0,0,0,0,0,0,0,0.000,0,0,0.049,0.003,-0.020,-0.040,0.020,0.014,0.993,0.012,0.002,0.002,-0.006,0.000,0.000,0.000,0.000,0,2,0,1,7,255,1440,200,0,0,-89.408,0.791,-31.435
EX0521-092111,18,C27,prep,1167,1167,0,906634.092,0.685,-0.676,0.195,0.188,0,0,0,0,0,0,0,0,0,0.000,0,0,0.115,0.004,0.040,-0.100,-0.040,0.014,0.993,0.012,-0.004,0.000,-0.006,0.000,0.000,0.000,0.000,0,2,0,1,7,255,1440,200,0,0,-89.408,0.791,-31.435
EX0521-092111,18,C27,prep,1167,1167,0,906639.092,0.685,-0.676,0.195,0.188,0,0,0,0,0,0,0,0,0,0.000,0,0,0.060,0.010,-0.020,-0.040,-0.040,0.013,0.993,0.012,-0.010,0.000,-0.002,0.000,0.000,0.000,0.000,0,2,0,1,7,255,1440,200,0,0,-89.408,0.791,-31.435
EX0521-092111,18,C27,prep,1167,1167,0,906644.092,0.685,-0.676,0.195,0.188,0,0,0,0,0,0,0,0,0,0.000,0,0,0.110,0.004,-0.020,-0.040,-0.100,0.015,0.993,0.011,-0.004,0.000,-0.002,0.000,0.000,0.000,0.000,0,2,0,1,7,255,1440,200,0,0,-89.408,0.791,-31.435
EX0521-092111,18,C27,prep,1185,1185,0,906649.091,0.685,-0.676,0.195,0.188,0,0,0,0,0,0,0,0,0,0.000,0,0,0.060,0.004,0.040,0.020,-0.040,0.015,0.994,0.011,0.004,0.000,-0.002,0.000,0.000,0.000,0.000,0,2,0,1,7,255,1440,200,0,0,-89.408,0.791,-31.435
EX0521-092111,18,C27,prep,1185,1185,0,906654.092,0.685,-0.676,0.195,0.188,0,0,0,0,0,0,0,0,0,0.000,0,0,0.060,0.004,-0.020,-0.040,-0.040,0.014,0.994,0.012,0.004,0.000,0.004,0.000,0.000,0.000,0.000,0,2,0,1,7,255,1440,200,0,0,-89.408,0.791,-31.435
EX0521-092111,18,C27,prep,1199,1199,0,906659.091,0.685,-0.676,0.195,0.188,0,0,0,0,0,0,0,0,0,0.000,0,0,0.069,0.004,0.040,-0.040,-0.040,0.014,0.992,0.010,0.004,0.002,0.004,0.000,0.000,0.000,0.000,0,2,0,1,7,255,1440,200,0,0,-89.408,0.791,-31.435
EX0521-092111,18,C27,prep,1199,1199,0,906664.092,0.685,-0.676,0.195,0.188,0,0,0,0,0,0,0,0,0,0.000,0,0,0.060,0.002,-0.020,-0.040,-0.040,0.015,0.994,0.012,0.000,0.002,0.008,0.000,0.000,0.000,0.000,0,2,0,1,7,255,1440,200,0,0,-89.408,0.791,-31.435
EX0521-092111,18,C27,prep,1199,1199,0,906669.091,0.685,-0.676,0.195,0.188,0,0,0,0,0,0,0,0,0,0.000,0,0,0.110,0.004,0.040,-0.100,0.020,0.015,0.993,0.012,0.002,-0.004,0.000,0.000,0.000,0.000,0.000,0,2,0,1,7,255,1440,200,0,0,-89.408,0.791,-31.435
EX0521-092111,18,C27,prep,1199,1199,0,906674.092,0.685,-0.676,0.195,0.188,0,0,0,0,0,0,0,0,0,0.000,0,0,0.060,0.006,0.040,-0.040,0.020,0.015,0.993,0.012,0.002,-0.006,0.000,0.000,0.000,0.000,0.000,0,2,0,1,7,255,1440,200,0,0,-89.408,0.791,-31.435
EX0521-092111,18,C27,prep,1252,1252,0,906679.091,0.685,-0.676,0.195,0.188,0,0,0,0,0,0,0,0,0,0.000,0,0,0.049,0.006,-0.020,0.020,-0.040,0.014,0.992,0.012,0.002,-0.006,-0.002,0.000,0.000,0.000,0.000,0,2,0,1,7,255,1440,200,0,0,-89.408,0.791,-31.435
EX0521-092111,18,C27,prep,1252,1252,0,906684.092,0.685,-0.676,0.195,0.188,0,0,0,0,0,0,0,0,0,0.000,0,0,0.069,0.004,0.040,-0.040,-0.040,0.015,0.994,0.011,0.004,-0.002,-0.002,0.000,0.000,0.000,0.000,0,2,0,1,7,255,1440,200,0,0,-89.408,0.791,-31.435
EX0521-092111,18,C27,prep,1252,1252,0,906689.092,0.685,-0.676,0.195,0.188,0,0,0,0,0,0,0,0,0,0.000,0,0,0.069,0.002,0.040,-0.040,-0.040,0.014,0.993,0.011,0.000,0.002,-0.006,0.000,0.000,0.000,0.000,0,2,0,1,7,255,1440,200,0,0,-89.408,0.791,-31.435
EX0521-092111,18,C27,prep,1252,1252,0,906694.093,0.685,-0.676,0.195,0.188,0,0,0,0,0,0,0,0,0,0.000,0,0,0.035,0.004,-0.020,0.020,0.020,0.016,0.993,0.011,0.004,0.002,-0.006,0.000,0.000,0.000,0.000,0,2,0,1,7,255,1440,200,0,0,-89.408,0.791,-31.435
EX0521-092111,18,C27,prep,1252,1252,0,906699.091,0.685,-0.676,0.195,0.188,0,0,0,0,0,0,0,0,0,0.000,0,0,0.069,0.013,0.040,-0.040,-0.040,0.015,0.993,0.010,0.012,0.004,-0.006,0.000,0.000,0.000,0.000,0,2,0,1,7,255,1440,200,0,0,-89.408,0.791,-31.435
EX0521-092111,18,C27,prep,1252,1252,0,906704.092,0.685,-0.676,0.195,0.188,0,0,0,0,0,0,0,0,0,0.000,0,0,0.069,0.012,0.040,-0.040,-0.040,0.015,0.994,0.011,0.012,0.000,-0.006,0.000,0.000,0.000,0.000,0,2,0,1,7,255,1440,200,0,0,-89.408,0.791,-31.435
EX0521-092111,18,C27,prep,1252,1252,0,906709.091,0.685,-0.676,0.195,0.188,0,0,0,0,0,0,0,0,0,0.000,0,0,0.060,0.010,-0.020,-0.040,-0.040,0.015,0.992,0.010,0.008,0.006,-0.006,0.000,0.000,0.000,0.000,0,2,0,1,7,255,1440,200,0,0,-89.408,0.791,-31.435
EX0521-092111,18,C27,prep,1252,1252,0,906714.092,0.685,-0.676,0.195,0.188,0,0,0,0,0,0,0,0,0,0.000,0,0,0.110,0.008,-0.020,-0.100,-0.040,0.015,0.994,0.012,0.008,-0.002,0.004,0.000,0.000,0.000,0.000,0,2,0,1,7,255,1440,200,0,0,-89.408,0.791,-31.435
EX0521-092111,18,C27,prep,1254,1254,0,906719.091,0.685,-0.676,0.195,0.188,0,0,0,0,0,0,0,0,0,0.000,0,0,0.060,0.004,-0.020,-0.040,-0.040,0.014,0.993,0.011,0.000,0.004,0.000,0.000,0.000,0.000,0.000,0,2,0,1,7,255,1440,200,0,0,-89.408,0.791,-31.435
EX0521-092111,18,C27,prep,1254,1254,0,906724.092,0.685,-0.676,0.195,0.188,0,0,0,0,0,0,0,0,0,0.000,0,0,0.049,0.003,-0.020,-0.040,0.020,0.014,0.993,0.012,-0.002,0.002,0.000,0.000,0.000,0.000,0.000,0,2,0,1,7,255,1440,200,0,0,-89.408,0.791,-31.435
EX0521-092111,18,C27,prep,1265,1265,0,906729.092,0.685,-0.676,0.195,0.188,0,0,0,0,0,0,0,0,0,0.000,0,0,0.115,0.003,0.040,-0.100,-0.040,0.015,0.994,0.011,-0.002,0.002,0.000,0.000,0.000,0.000,0.000,0,2,0,1,7,255,1440,200,0,0,-89.408,0.791,-31.435
EX0521-092111,18,C27,prep,1265,1265,0,906734.092,0.685,-0.676,0.195,0.188,0,0,0,0,0,0,0,0,0,0.000,0,0,0.069,0.008,0.040,-0.040,-0.040,0.014,0.994,0.012,-0.008,0.002,0.004,0.000,0.000,0.000,0.000,0,2,0,1,7,255,1440,200,0,0,-89.408,0.791,-31.435
EX0521-092111,18,C27,prep,1282,1282,0,906739.091,0.685,-0.676,0.195,0.188,0,0,0,0,0,0,0,0,0,0.000,0,0,0.060,0.003,-0.020,-0.040,-0.040,0.015,0.993,0.011,0.002,0.002,0.004,0.000,0.000,0.000,0.000,0,2,0,1,7,255,1440,200,0,0,-89.408,0.791,-31.435
EX0521-092111,18,C27,prep,1282,1282,0,906744.092,0.685,-0.676,0.195,0.188,0,0,0,0,0,0,0,0,0,0.000,0,0,0.049,0.004,-0.020,0.020,-0.040,0.014,0.994,0.012,-0.004,0.002,0.004,0.000,0.000,0.000,0.000,0,2,0,1,7,255,1440,200,0,0,-89.408,0.791,-31.435
EX0521-092111,18,C27,prep,1282,1282,0,906749.091,0.685,-0.676,0.195,0.188,0,0,0,0,0,0,0,0,0,0.000,0,0,0.115,0.004,0.040,-0.040,-0.100,0.015,0.993,0.011,0.004,0.000,0.000,0.000,0.000,0.000,0.000,0,2,0,1,7,255,1440,200,0,0,-89.408,0.791,-31.435
EX0521-092111,18,C27,prep,1282,1282,0,906754.092,0.685,-0.676,0.195,0.188,0,0,0,0,0,0,0,0,0,0.000,0,0,0.060,0.004,-0.020,-0.040,-0.040,0.014,0.994,0.012,-0.004,0.000,0.008,0.000,0.000,0.000,0.000,0,2,0,1,7,255,1440,200,0,0,-89.408,0.791,-31.435
EX0521-092111,18,C27,prep,1295,1295,0,906759.092,0.685,-0.676,0.195,0.188,0,0,0,0,0,0,0,0,0,0.000,0,0,0.060,0.004,-0.020,-0.040,-0.040,0.014,0.994,0.012,-0.004,0.000,0.004,0.000,0.000,0.000,0.000,0,2,0,1,7,255,1440,200,0,0,-89.408,0.791,-31.435
EX0521-092111,18,C27,prep,1295,1295,0,906764.093,0.685,-0.676,0.195,0.188,0,0,0,0,0,0,0,0,0,0.000,0,0,0.069,0.006,0.040,-0.040,-0.040,0.015,0.993,0.012,-0.004,-0.004,0.004,0.000,0.000,0.000,0.000,0,2,0,1,7,255,1440,200,0,0,-89.408,0.791,-31.435
EX0521-092111,18,C27,prep,1317,1317,0,906769.092,0.685,-0.676,0.195,0.188,0,0,0,0,0,0,0,0,0,0.000,0,0,0.110,0.002,0.100,-0.040,0.020,0.015,0.993,0.011,-0.002,0.000,0.000,0.000,0.000,0.000,0.000,0,2,0,1,7,255,1440,200,0,0,-89.409,0.791,-31.435
EX0521-092111,18,C27,prep,1317,1317,0,906774.091,0.685,-0.676,0.195,0.188,0,0,0,0,0,0,0,0,0,0.000,0,0,0.049,0.004,-0.020,-0.040,0.020,0.014,0.994,0.011,-0.002,0.004,0.000,0.000,0.000,0.000,0.000,0,2,0,1,7,255,1440,200,0,0,-89.409,0.791,-31.435
EX0521-092111,18,C27,prep,1356,1356,0,906779.092,0.685,-0.676,0.195,0.188,0,0,0,0,0,0,0,0,0,0.000,0,0,0.049,0.004,-0.020,0.020,-0.040,0.015,0.994,0.011,0.002,0.004,0.004,0.000,0.000,0.000,0.000,0,2,0,1,7,255,1440,200,0,0,-89.409,0.791,-31.435
EX0521-092111,18,C27,prep,1356,1356,0,906784.091,0.685,-0.676,0.195,0.188,0,0,0,0,0,0,0,0,0,0.000,0,0,0.069,0.002,0.040,-0.040,-0.040,0.015,0.993,0.011,0.002,0.000,0.004,0.000,0.000,0.000,0.000,0,2,0,1,7,255,1440,200,0,0,-89.409,0.791,-31.435
EX0521-092111,18,C27,prep,1356,1356,0,906789.092,0.685,-0.676,0.195,0.188,0,0,0,0,0,0,0,0,0,0.000,0,0,0.049,0.002,-0.020,0.020,-0.040,0.014,0.994,0.012,0.002,0.000,0.004,0.000,0.000,0.000,0.000,0,2,0,1,7,255,1440,200,0,0,-89.409,0.791,-31.435
EX0521-092111,18,C27,prep,1356,1356,0,906794.093,0.685,-0.676,0.195,0.188,0,0,0,0,0,0,0,0,0,0.000,0,0,0.060,0.004,-0.020,-0.040,-0.040,0.015,0.993,0.011,0.004,-0.002,0.000,0.000,0.000,0.000,0.000,0,2,0,1,7,255,1440,200,0,0,-89.409,0.791,-31.435
EX0521-092111,18,C27,prep,1356,1356,0,906799.092,0.685,-0.676,0.195,0.188,0,0,0,0,0,0,0,0,0,0.000,0,0,0.110,0.009,0.100,-0.040,0.020,0.016,0.994,0.012,0.008,-0.004,0.004,0.000,0.000,0.000,0.000,0,2,0,1,7,255,1440,200,0,0,-89.409,0.791,-31.435
EX0521-092111,18,C27,prep,1356,1356,0,906804.091,0.685,-0.676,0.195,0.188,0,0,0,0,0,0,0,0,0,0.000,0,0,0.060,0.008,-0.020,-0.040,-0.040,0.014,0.994,0.011,0.008,-0.002,0.004,0.000,0.000,0.000,0.000,0,2,0,1,7,255,1440,200,0,0,-89.409,0.791,-31.435
EX0521-092111,18,C27,prep,1356,1356,0,906809.092,0.685,-0.676,0.195,0.188,0,0,0,0,0,0,0,0,0,0.000,0,0,0.060,0.007,-0.020,-0.040,-0.040,0.015,0.994,0.011,0.006,0.004,0.004,0.000,0.000,0.000,0.000,0,2,0,1,7,255,1440,200,0,0,-89.409,0.791,-31.435
EX0521-092111,18,C27,prep,1356,1356,0,906814.091,0.685,-0.676,0.195,0.188,0,0,0,0,0,0,0,0,0,0.000,0,0,0.098,0.004,-0.080,-0.040,-0.040,0.014,0.993,0.012,0.002,0.004,0.004,0.000,0.000,0.000,0.000,0,2,0,1,7,255,1440,200,0,0,-89.409,0.791,-31.435
EX0521-092111,18,C27,prep,1357,1357,0,906819.092,0.685,-0.676,0.195,0.188,0,0,0,0,0,0,0,0,0,0.000,0,0,0.115,0.004,0.040,-0.100,-0.040,0.015,0.993,0.012,0.004,0.000,-0.006,0.000,0.000,0.000,0.000,0,2,0,1,7,255,1440,200,0,0,-89.409,0.791,-31.435
EX0521-092111,18,C27,prep,1357,1357,0,906824.091,0.685,-0.676,0.195,0.188,0,0,0,0,0,0,0,0,0,0.000,0,0,0.060,0.004,-0.020,-0.040,-0.040,0.015,0.993,0.012,0.000,-0.004,-0.006,0.000,0.000,0.000,0.000,0,2,0,1,7,255,1440,200,0,0,-89.409,0.791,-31.435
EX0521-092111,18,C27,prep,1384,1384,0,906829.092,0.685,-0.676,0.195,0.188,0,0,0,0,0,0,0,0,0,0.000,0,0,0.060,0.004,-0.020,-0.040,-0.040,0.014,0.994,0.011,0.000,-0.004,-0.006,0.000,0.000,0.000,0.000,0,2,0,1,7,255,1440,200,0,0,-89.409,0.791,-31.435
EX0521-092111,18,C27,prep,1384,1384,0,906834.091,0.685,-0.676,0.195,0.188,0,0,0,0,0,0,0,0,0,0.000,0,0,0.049,0.004,-0.020,-0.040,0.020,0.016,0.993,0.012,0.000,-0.004,0.000,0.000,0.000,0.000,0.000,0,2,0,1,7,255,1440,200,0,0,-89.409,0.791,-31.435
EX0521-092111,18,C27,prep,1384,1384,0,906839.092,0.685,-0.676,0.195,0.188,0,0,0,0,0,0,0,0,0,0.000,0,0,0.110,0.004,-0.020,-0.100,-0.040,0.015,0.993,0.012,0.000,-0.004,0.000,0.000,0.000,0.000,0.000,0,2,0,1,7,255,1440,200,0,0,-89.409,0.791,-31.435
EX0521-092111,18,C27,prep,1384,1384,0,906844.091,0.685,-0.676,0.195,0.188,0,0,0,0,0,0,0,0,0,0.000,0,0,0.035,0.004,-0.020,0.020,0.020,0.015,0.994,0.011,0.002,-0.004,0.000,0.000,0.000,0.000,0.000,0,2,0,1,7,255,1440,200,0,0,-89.409,0.791,-31.435
EX0521-092111,18,C27,prep,1385,1385,0,906849.092,0.685,-0.676,0.195,0.188,0,0,0,0,0,0,0,0,0,0.000,0,0,0.110,0.004,-0.020,-0.100,-0.040,0.015,0.993,0.012,0.000,-0.004,0.000,0.000,0.000,0.000,0.000,0,2,0,1,7,255,1440,200,0,0,-89.409,0.791,-31.435
EX0521-092111,18,C27,prep,1385,1385,0,906854.091,0.685,-0.676,0.195,0.188,0,0,0,0,0,0,0,0,0,0.000,0,0,0.035,0.000,-0.020,0.020,0.020,0.014,0.993,0.011,0.000,0.000,-0.006,0.000,0.000,0.000,0.000,0,2,0,1,7,255,1440,200,0,0,-89.409,0.791,-31.435
EX0521-092111,18,C27,prep,1413,1413,0,906859.092,0.685,-0.676,0.195,0.188,0,0,0,0,0,0,0,0,0,0.000,0,0,0.069,0.004,0.040,-0.040,-0.040,0.014,0.993,0.011,0.000,0.004,-0.006,0.000,0.000,0.000,0.000,0,2,0,1,7,255,1440,200,0,0,-89.409,0.791,-31.435
EX0521-092111,18,C27,prep,1413,1413,0,906864.091,0.685,-0.676,0.195,0.188,0,0,0,0,0,0,0,0,0,0.000,0,0,0.069,0.004,0.040,-0.040,-0.040,0.015,0.993,0.012,-0.002,0.004,0.000,0.000,0.000,0.000,0.000,0,2,0,1,7,255,1440,200,0,0,-89.409,0.791,-31.435
EX0521-092111,18,C27,prep,1413,1413,0,906869.092,0.685,-0.676,0.195,0.188,0,0,0,0,0,0,0,0,0,0.000,0,0,0.049,0.003,-0.020,0.020,-0.040,0.014,0.992,0.012,-0.002,0.002,0.000,0.000,0.000,0.000,0.000,0,2,0,1,7,255,1440,200,0,0,-89.409,0.791,-31.435
EX0521-092111,18,C27,prep,1413,1413,0,906874.091,0.685,-0.676,0.195,0.188,0,0,0,0,0,0,0,0,0,0.000,0,0,0.060,0.009,-0.020,-0.040,-0.040,0.015,0.993,0.013,-0.004,-0.008,0.000,0.000,0.000,0.000,0.000,0,2,0,1,7,255,1440,200,0,0,-89.409,0.791,-31.435
EX0521-092111,18,C27,prep,1451,1451,0,906879.092,0.685,-0.676,0.195,0.188,0,0,0,0,0,0,0,0,0,0.000,0,0,0.060,0.004,-0.020,-0.040,-0.040,0.014,0.993,0.011,-0.004,0.002,0.000,0.000,0.000,0.000,0.000,0,2,0,1,7,255,1440,200,0,0,-89.409,0.791,-31.435
EX0521-092111,18,C27,prep,1451,1451,0,906884.091,0.685,-0.676,0.195,0.188,0,0,0,0,0,0,0,0,0,0.000,0,0,0.049,0.008,-0.020,0.020,-0.040,0.015,0.994,0.012,-0.002,-0.008,0.000,0.000,0.000,0.000,0.000,0,2,0,1,7,255,1440,200,0,0,-89.409,0.791,-31.435
EX0521-092111,18,C27,prep,1451,1451,0,906889.092,0.685,-0.676,0.195,0.188,0,0,0,0,0,0,0,0,0,0.000,0,0,0.110,0.004,-0.020,-0.040,-0.100,0.014,0.993,0.011,-0.002,0.004,0.000,0.000,0.000,0.000,0.000,0,2,0,1,7,255,1440,200,0,0,-89.409,0.791,-31.435
EX0521-092111,18,C27,prep,1451,1451,0,906894.093,0.685,-0.676,0.195,0.188,0,0,0,0,0,0,0,0,0,0.000,0,0,0.060,0.008,-0.020,-0.040,-0.040,0.015,0.993,0.012,-0.002,-0.008,0.000,0.000,0.000,0.000,0.000,0,2,0,1,7,255,1440,200,0,0,-89.409,0.791,-31.435
EX0521-092111,18,C27,prep,1451,1451,0,906899.092,0.685,-0.676,0.195,0.188,0,0,0,0,0,0,0,0,0,0.000,0,0,0.069,0.003,0.040,-0.040,-0.040,0.014,0.993,0.012,-0.002,-0.002,0.000,0.000,0.000,0.000,0.000,0,2,0,1,7,255,1440,200,0,0,-89.409,0.791,-31.435
EX0521-092111,18,C27,prep,1451,1451,0,906904.092,0.685,-0.676,0.195,0.188,0,0,0,0,0,0,0,0,0,0.000,0,0,0.069,0.003,0.040,-0.040,-0.040,0.014,0.993,0.011,-0.002,-0.002,0.000,0.000,0.000,0.000,0.000,0,2,0,1,7,255,1440,200,0,0,-89.409,0.791,-31.435
EX0521-092111,18,C27,prep,1455,1455,0,906909.092,0.685,-0.676,0.195,0.188,0,0,0,0,0,0,0,0,0,0.000,0,0,0.060,0.004,-0.020,-0.040,-0.040,0.014,0.992,0.011,-0.002,0.004,0.000,0.000,0.000,0.000,0.000,0,2,0,1,7,255,1440,200,0,0,-89.409,0.791,-31.435
EX0521-092111,18,C27,prep,1455,1455,0,906914.092,0.685,-0.676,0.195,0.188,0,0,0,0,0,0,0,0,0,0.000,0,0,0.060,0.008,-0.020,-0.040,-0.040,0.014,0.993,0.010,0.002,0.008,-0.006,0.000,0.000,0.000,0.000,0,2,0,1,7,255,1440,200,0,0,-89.409,0.791,-31.435
EX0521-092111,18,C27,prep,1455,1455,0,906919.091,0.685,-0.676,0.195,0.188,0,0,0,0,0,0,0,0,0,0.000,0,0,0.069,0.013,0.040,-0.040,-0.040,0.014,0.994,0.010,0.004,0.012,-0.006,0.000,0.000,0.000,0.000,0,2,0,1,7,255,1440,200,0,0,-89.409,0.791,-31.435
EX0521-092111,18,C27,prep,1455,1455,0,906924.092,0.685,-0.676,0.195,0.188,0,0,0,0,0,0,0,0,0,0.000,0,0,0.060,0.013,0.040,0.020,-0.040,0.014,0.993,0.012,0.004,0.012,0.000,0.000,0.000,0.000,0.000,0,2,0,1,7,255,1440,200,0,0,-89.409,0.791,-31.435
EX0521-092111,18,C27,prep,1472,1472,0,906929.092,0.685,-0.676,0.195,0.188,0,0,0,0,0,0,0,0,0,0.000,0,0,0.049,0.004,0.040,0.020,0.020,0.014,0.993,0.012,-0.004,0.000,0.000,0.000,0.000,0.000,0.000,0,2,0,1,7,255,1440,200,0,0,-89.409,0.791,-31.435
EX0521-092111,18,C27,prep,1472,1472,0,906934.092,0.685,-0.676,0.195,0.188,0,0,0,0,0,0,0,0,0,0.000,0,0,0.060,0.007,0.040,-0.040,0.020,0.014,0.993,0.012,-0.006,-0.004,0.000,0.000,0.000,0.000,0.000,0,2,0,1,7,255,1440,200,0,0,-89.409,0.791,-31.435
EX0521-092111,18,C27,prep,1472,1472,0,906939.091,0.685,-0.676,0.195,0.188,0,0,0,0,0,0,0,0,0,0.000,0,0,0.069,0.004,0.040,-0.040,-0.040,0.015,0.994,0.011,-0.004,0.000,0.000,0.000,0.000,0.000,0.000,0,2,0,1,7,255,1440,200,0,0,-89.409,0.791,-31.435
EX0521-092111,18,C27,prep,1472,1472,0,906944.092,0.685,-0.676,0.195,0.188,0,0,0,0,0,0,0,0,0,0.000,0,0,0.110,0.004,-0.020,-0.100,-0.040,0.015,0.993,0.012,0.000,-0.004,0.000,0.000,0.000,0.000,0.000,0,2,0,1,7,255,1440,200,0,0,-89.409,0.791,-31.435
EX0521-092111,18,C27,prep,1488,1488,0,906949.091,0.685,-0.676,0.195,0.188,0,0,0,0,0,0,0,0,0,0.000,0,0,0.069,0.004,0.040,-0.040,-0.040,0.015,0.993,0.012,0.002,-0.004,-0.006,0.000,0.000,0.000,0.000,0,2,0,1,7,255,1440,200,0,0,-89.409,0.791,-31.435
EX0521-092111,18,C27,prep,1488,1488,0,906954.092,0.685,-0.676,0.195,0.188,0,0,0,0,0,0,0,0,0,0.000,0,0,0.069,0.004,0.040,-0.040,-0.040,0.014,0.993,0.011,0.000,-0.004,-0.006,0.000,0.000,0.000,0.000,0,2,0,1,7,255,1440,200,0,0,-89.409,0.791,-31.435
EX0521-092111,18,C27,prep,1503,1503,0,906959.092,0.685,-0.676,0.195,0.188,0,0,0,0,0,0,0,0,0,0.000,0,0,0.049,0.004,-0.020,-0.040,0.020,0.015,0.993,0.011,0.004,0.002,-0.006,0.000,0.000,0.000,0.000,0,2,0,1,7,255,1440,200,0,0,-89.409,0.791,-31.435
EX0521-092111,18,C27,prep,1503,1503,0,906964.093,0.685,-0.676,0.195,0.188,0,0,0,0,0,0,0,0,0,0.000,0,0,0.060,0.010,-0.020,-0.040,-0.040,0.015,0.993,0.011,0.010,0.002,-0.006,0.000,0.000,0.000,0.000,0,2,0,1,7,255,1440,200,0,0,-89.409,0.791,-31.435
EX0521-092111,18,C27,prep,1503,1503,0,906969.091,0.685,-0.676,0.195,0.188,0,0,0,0,0,0,0,0,0,0.000,0,0,0.115,0.010,0.040,-0.100,-0.040,0.015,0.993,0.013,0.010,0.002,-0.006,0.000,0.000,0.000,0.000,0,2,0,1,7,255,1440,200,0,0,-89.409,0.791,-31.435
EX0521-092111,18,C27,prep,1503,1503,0,906974.092,0.685,-0.676,0.195,0.188,0,0,0,0,0,0,0,0,0,0.000,0,0,0.049,0.006,-0.020,-0.040,0.020,0.014,0.994,0.011,-0.006,0.002,0.000,0.000,0.000,0.000,0.000,0,2,0,1,7,255,1440,200,0,0,-89.409,0.791,-31.435
EX0521-092111,18,C27,prep,1536,1536,0,906979.091,0.685,-0.676,0.195,0.188,0,0,0,0,0,0,0,0,0,0.000,0,0,0.069,0.008,0.040,-0.040,-0.040,0.014,0.994,0.011,-0.006,0.006,0.004,0.000,0.000,0.000,0.000,0,2,0,1,7,255,1440,200,0,0,-89.409,0.791,-31.435
EX0521-092111,18,C27,prep,1536,1536,0,906984.092,0.685,-0.676,0.195,0.188,0,0,0,0,0,0,0,0,0,0.000,0,0,0.060,0.008,-0.020,-0.040,-0.040,0.014,0.994,0.011,-0.006,0.006,0.004,0.000,0.000,0.000,0.000,0,2,0,1,7,255,1440,200,0,0,-89.409,0.791,-31.435
EX0521-092111,18,C27,prep,1552,1552,0,906989.092,0.685,-0.676,0.195,0.188,0,0,0,0,0,0,0,0,0,0.000,0,0,0.060,0.006,-0.020,-0.040,-0.040,0.015,0.993,0.012,-0.002,0.006,0.004,0.000,0.000,0.000,0.000,0,2,0,1,7,255,1440,200,0,0,-89.410,0.791,-31.435
EX0521-092111,18,C27,prep,1552,1552,0,906994.093,0.685,-0.676,0.195,0.188,0,0,0,0,0,0,0,0,0,0.000,0,0,0.049,0.008,-0.020,-0.040,0.020,0.016,0.992,0.012,0.002,-0.008,0.000,0.000,0.000,0.000,0.000,0,2,0,1,7,255,1440,200,0,0,-89.410,0.791,-31.435
EX0521-092111,18,C27,prep,1552,1552,0,906999.091,0.685,-0.676,0.195,0.188,0,0,0,0,0,0,0,0,0,0.000,0,0,0.069,0.008,0.040,-0.040,-0.040,0.014,0.992,0.011,-0.002,-0.008,-0.010,0.000,0.000,0.000,0.000,0,2,0,1,7,255,1440,200,0,0,-89.410,0.791,-31.435
EX0521-092111,18,C27,prep,1552,1552,0,907004.092,0.685,-0.676,0.195,0.188,0,0,0,0,0,0,0,0,0,0.000,0,0,0.069,0.006,0.040,-0.040,-0.040,0.014,0.993,0.011,0.002,0.006,-0.010,0.000,0.000,0.000,0.000,0,2,0,1,7,255,1440,200,0,0,-89.410,0.791,-31.435
EX0521-092111,18,C27,prep,1552,1552,0,907009.091,0.685,-0.676,0.195,0.188,0,0,0,0,0,0,0,0,0,0.000,0,0,0.110,0.006,-0.020,-0.100,-0.040,0.014,0.993,0.011,-0.002,0.006,0.000,0.000,0.000,0.000,0.000,0,2,0,1,7,255,1440,200,0,0,-89.410,0.791,-31.435
EX0521-092111,18,C27,prep,1552,1552,0,907014.092,0.685,-0.676,0.195,0.188,0,0,0,0,0,0,0,0,0,0.000,0,0,0.069,0.004,0.040,-0.040,-0.040,0.015,0.993,0.011,0.002,0.004,0.000,0.000,0.000,0.000,0.000,0,2,0,1,7,255,1440,200,0,0,-89.410,0.791,-31.435
EX0521-092111,18,C27,prep,1553,1553,0,907019.091,0.685,-0.676,0.195,0.188,0,0,0,0,0,0,0,0,0,0.000,0,0,0.060,0.007,-0.020,-0.040,-0.040,0.016,0.994,0.012,0.006,0.004,0.000,0.000,0.000,0.000,0.000,0,2,0,1,7,255,1440,200,0,0,-89.410,0.791,-31.435
EX0521-092111,18,C27,prep,1553,1553,0,907024.092,0.685,-0.676,0.195,0.188,0,0,0,0,0,0,0,0,0,0.000,0,0,0.060,0.008,0.040,-0.040,0.020,0.015,0.993,0.012,0.006,-0.006,0.000,0.000,0.000,0.000,0.000,0,2,0,1,7,255,1440,200,0,0,-89.410,0.792,-31.435
EX0521-092111,18,C27,prep,1567,1567,0,907029.092,0.685,-0.676,0.195,0.188,0,0,0,0,0,0,0,0,0,0.000,0,0,0.049,0.007,0.040,0.020,0.020,0.014,0.993,0.011,0.004,-0.006,0.000,0.000,0.000,0.000,0.000,0,2,0,1,7,255,1440,200,0,0,-89.410,0.792,-31.435
EX0521-092111,18,C27,prep,1567,1567,0,907034.092,0.685,-0.676,0.195,0.188,0,0,0,0,0,0,0,0,0,0.000,0,0,0.049,0.006,-0.020,-0.040,0.020,0.015,0.994,0.010,0.004,0.004,0.000,0.000,0.000,0.000,0.000,0,2,0,1,7,255,1440,200,0,0,-89.410,0.792,-31.435
EX0521-092111,18,C27,prep,1585,1585,0,907039.092,0.685,-0.676,0.195,0.188,0,0,0,0,0,0,0,0,0,0.000,0,0,0.049,0.004,-0.020,-0.040,0.020,0.015,0.992,0.011,0.002,0.004,-0.006,0.000,0.000,0.000,0.000,0,2,0,1,7,255,1440,200,0,0,-89.410,0.792,-31.435
EX0521-092111,18,C27,prep,1585,1585,0,907044.091,0.685,-0.676,0.195,0.188,0,0,0,0,0,0,0,0,0,0.000,0,0,0.115,0.011,0.040,-0.100,-0.040,0.015,0.993,0.010,0.008,0.008,0.000,0.000,0.000,0.000,0.000,0,2,0,1,7,255,1440,200,0,0,-89.410,0.792,-31.435
EX0521-092111,18,C27,prep,1586,1586,0,907049.092,0.685,-0.676,0.195,0.188,0,0,0,0,0,0,0,0,0,0.000,0,0,0.069,0.003,0.040,-0.040,-0.040,0.014,0.992,0.012,0.002,0.002,-0.010,0.000,0.000,0.000,0.000,0,2,0,1,7,255,1440,200,0,0,-89.410,0.792,-31.435
EX0521-092111,18,C27,prep,1586,1586,0,907054.091,0.685,-0.676,0.195,0.188,0,0,0,0,0,0,0,0,0,0.000,0,0,0.035,0.002,-0.020,0.020,0.020,0.015,0.994,0.012,0.000,0.002,0.000,0.000,0.000,0.000,0.000,0,2,0,1,7,255,1440,200,0,0,-89.410,0.792,-31.435
EX0521-092111,18,C27,prep,1600,1600,0,907059.092,0.685,-0.676,0.195,0.188,0,0,0,0,0,0,0,0,0,0.000,0,0,0.069,0.004,0.040,-0.040,-0.040,0.015,0.994,0.012,0.000,-0.004,0.004,0.000,0.000,0.000,0.000,0,2,0,1,7,255,1440,200,0,0,-89.410,0.792,-31.435
EX0521-092111,18,C27,prep,1600,1600,0,907064.091,0.685,-0.676,0.195,0.188,0,0,0,0,0,0,0,0,0,0.000,0,0,0.115,0.004,0.040,-0.040,-0.100,0.016,0.993,0.011,0.002,-0.004,0.004,0.000,0.000,0.000,0.000,0,2,0,1,7,255,1440,200,0,0,-89.410,0.792,-31.435
EX0521-092111,18,C27,prep,1620,1620,0,907069.093,0.685,-0.676,0.195,0.188,0,0,0,0,0,0,0,0,0,0.000,0,0,0.110,0.004,-0.020,-0.040,-0.100,0.015,0.992,0.011,0.002,-0.004,0.000,0.000,0.000,0.000,0.000,0,2,0,1,7,255,1440,200,0,0,-89.410,0.792,-31.435
EX0521-092111,18,C27,prep,1621,1621,0,907074.093,0.685,-0.676,0.195,0.188,0,0,0,0,0,0,0,0,0,0.000,0,0,0.069,0.004,0.040,-0.040,-0.040,0.014,0.993,0.012,0.002,-0.004,-0.004,0.000,0.000,0.000,0.000,0,2,0,1,7,255,1440,200,0,0,-89.410,0.792,-31.435
EX0521-092111,18,C27,prep,1654,1654,0,907079.092,0.685,-0.676,0.195,0.188,0,0,0,0,0,0,0,0,0,0.000,0,0,0.060,0.006,0.040,-0.040,0.020,0.015,0.993,0.012,0.002,-0.006,-0.004,0.000,0.000,0.000,0.000,0,2,0,1,7,255,1440,200,0,0,-89.410,0.792,-31.435
EX0521-092111,18,C27,prep,1654,1654,0,907084.091,0.685,-0.676,0.195,0.188,0,0,0,0,0,0,0,0,0,0.000,0,0,0.069,0.007,0.040,-0.040,-0.040,0.016,0.993,0.011,0.004,-0.006,-0.004,0.000,0.000,0.000,0.000,0,2,0,1,7,255,1440,200,0,0,-89.410,0.792,-31.435
EX0521-092111,18,C27,prep,1654,1654,0,907089.092,0.685,-0.676,0.195,0.188,0,0,0,0,0,0,0,0,0,0.000,0,0,0.049,0.009,-0.020,-0.040,0.020,0.015,0.993,0.011,0.008,-0.004,-0.004,0.000,0.000,0.000,0.000,0,2,0,1,7,255,1440,200,0,0,-89.410,0.792,-31.435
EX0521-092111,18,C27,prep,1654,1654,0,907094.093,0.685,-0.676,0.195,0.188,0,0,0,0,0,0,0,0,0,0.000,0,0,0.049,0.008,0.040,0.020,0.020,0.015,0.994,0.011,0.008,0.002,0.000,0.000,0.000,0.000,0.000,0,2,0,1,7,255,1440,200,0,0,-89.410,0.792,-31.435
EX0521-092111,18,C27,prep,1654,1654,0,907099.092,0.685,-0.676,0.195,0.188,0,0,0,0,0,0,0,0,0,0.000,0,0,0.110,0.006,-0.020,-0.040,-0.100,0.015,0.993,0.011,0.004,0.004,0.000,0.000,0.000,0.000,0.000,0,2,0,1,7,255,1440,200,0,0,-89.410,0.792,-31.435
EX0521-092111,18,C27,prep,1654,1654,0,907104.091,0.685,-0.676,0.195,0.188,0,0,0,0,0,0,0,0,0,0.000,0,0,0.060,0.006,0.040,0.020,-0.040,0.015,0.993,0.011,0.004,0.004,0.000,0.000,0.000,0.000,0.000,0,2,0,1,7,255,1440,200,0,0,-89.410,0.792,-31.435
EX0521-092111,18,C27,prep,1656,1656,0,907109.092,0.685,-0.676,0.195,0.188,0,0,0,0,0,0,0,0,0,0.000,0,0,0.069,0.004,0.040,-0.040,-0.040,0.014,0.993,0.011,0.002,0.004,0.000,0.000,0.000,0.000,0.000,0,2,0,1,7,255,1440,200,0,0,-89.410,0.792,-31.435
EX0521-092111,18,C27,prep,1656,1656,0,907114.091,0.685,-0.676,0.195,0.188,0,0,0,0,0,0,0,0,0,0.000,0,0,0.060,0.002,-0.020,-0.040,-0.040,0.016,0.993,0.011,0.002,0.000,0.000,0.000,0.000,0.000,0.000,0,2,0,1,7,255,1440,200,0,0,-89.410,0.792,-31.435
EX0521-092111,18,C27,prep,1656,1656,0,907119.092,0.685,-0.676,0.195,0.188,0,0,0,0,0,0,0,0,0,0.000,0,0,0.060,0.004,0.040,0.020,-0.040,0.015,0.993,0.012,0.000,-0.004,-0.004,0.000,0.000,0.000,0.000,0,2,0,1,7,255,1440,200,0,0,-89.410,0.792,-31.435
EX0521-092111,18,C27,prep,1656,1656,0,907124.091,0.685,-0.676,0.195,0.188,0,0,0,0,0,0,0,0,0,0.000,0,0,0.049,0.006,-0.020,-0.040,0.020,0.015,0.992,0.012,0.004,-0.004,-0.004,0.000,0.000,0.000,0.000,0,2,0,1,7,255,1440,200,0,0,-89.410,0.792,-31.435
EX0521-092111,18,C27,prep,1663,1663,0,907129.092,0.685,-0.676,0.195,0.188,0,0,0,0,0,0,0,0,0,0.000,0,0,0.049,0.007,-0.020,0.020,-0.040,0.015,0.993,0.012,0.004,-0.006,-0.004,0.000,0.000,0.000,0.000,0,2,0,1,7,255,1440,200,0,0,-89.410,0.792,-31.435
EX0521-092111,18,C27,prep,1663,1663,0,907134.091,0.685,-0.676,0.195,0.188,0,0,0,0,0,0,0,0,0,0.000,0,0,0.110,0.007,-0.020,-0.100,-0.040,0.015,0.993,0.011,0.004,-0.006,-0.004,0.000,0.000,0.000,0.000,0,2,0,1,7,255,1440,200,0,0,-89.410,0.792,-31.435
EX0521-092111,18,C27,prep,1679,1679,0,907139.092,0.685,-0.676,0.195,0.188,0,0,0,0,0,0,0,0,0,0.000,0,0,0.049,0.004,-0.020,-0.040,0.020,0.014,0.993,0.011,0.004,-0.002,-0.004,0.000,0.000,0.000,0.000,0,2,0,1,7,255,1440,200,0,0,-89.410,0.792,-31.435
EX0521-092111,18,C27,prep,1679,1679,0,907144.091,0.685,-0.676,0.195,0.188,0,0,0,0,0,0,0,0,0,0.000,0,0,0.069,0.006,0.040,-0.040,-0.040,0.015,0.993,0.011,0.006,-0.002,-0.004,0.000,0.000,0.000,0.000,0,2,0,1,7,255,1440,200,0,0,-89.410,0.792,-31.435
EX0521-092111,18,C27,prep,1679,1679,0,907149.092,0.685,-0.676,0.195,0.188,0,0,0,0,0,0,0,0,0,0.000,0,0,0.060,0.008,-0.020,-0.040,-0.040,0.014,0.992,0.011,-0.006,0.006,-0.004,0.000,0.000,0.000,0.000,0,2,0,1,7,255,1440,200,0,0,-89.410,0.792,-31.435
EX0521-092111,18,C27,prep,1679,1679,0,907154.091,0.685,-0.676,0.195,0.188,0,0,0,0,0,0,0,0,0,0.000,0,0,0.060,0.004,-0.020,-0.040,-0.040,0.014,0.993,0.011,-0.002,0.004,-0.004,0.000,0.000,0.000,0.000,0,2,0,1,7,255,1440,200,0,0,-89.410,0.792,-31.435
EX0521-092111,18,C27,prep,1695,1695,0,907159.092,0.685,-0.676,0.195,0.188,0,0,0,0,0,0,0,0,0,0.000,0,0,0.060,0.004,-0.020,-0.040,-0.040,0.014,0.993,0.011,-0.002,0.004,0.000,0.000,0.000,0.000,0.000,0,2,0,1,7,255,1440,200,0,0,-89.410,0.792,-31.435
EX0521-092111,18,C27,prep,1695,1695,0,907164.093,0.685,-0.676,0.195,0.188,0,0,0,0,0,0,0,0,0,0.000,0,0,0.060,0.004,-0.020,-0.040,-0.040,0.015,0.994,0.011,-0.002,0.004,0.000,0.000,0.000,0.000,0.000,0,2,0,1,7,255,1440,200,0,0,-89.410,0.792,-31.435
EX0521-092111,18,C27,prep,1720,1720,0,907169.092,0.685,-0.676,0.195,0.188,0,0,0,0,0,0,0,0,0,0.000,0,0,0.060,0.006,-0.020,-0.040,-0.040,0.015,0.993,0.011,0.004,0.004,0.000,0.000,0.000,0.000,0.000,0,2,0,1,7,255,1440,200,0,0,-89.410,0.792,-31.435
EX0521-092111,18,C27,prep,1720,1720,0,907174.092,0.685,-0.676,0.195,0.188,0,0,0,0,0,0,0,0,0,0.000,0,0,0.049,0.006,-0.020,-0.040,0.020,0.015,0.992,0.012,0.004,0.004,-0.004,0.000,0.000,0.000,0.000,0,2,0,1,7,255,1440,200,0,0,-89.410,0.792,-31.435
EX0521-092111,18,C27,prep,1749,1749,0,907179.092,0.685,-0.676,0.195,0.188,0,0,0,0,0,0,0,0,0,0.000,0,0,0.060,0.002,-0.020,-0.040,-0.040,0.015,0.993,0.011,0.002,0.000,-0.004,0.000,0.000,0.000,0.000,0,2,0,1,7,255,1440,200,0,0,-89.410,0.792,-31.435
EX0521-092111,18,C27,prep,1749,1749,0,907184.092,0.685,-0.676,0.195,0.188,0,0,0,0,0,0,0,0,0,0.000,0,0,0.060,0.002,-0.020,-0.040,-0.040,0.015,0.993,0.011,0.002,0.000,-0.004,0.000,0.000,0.000,0.000,0,2,0,1,7,255,1440,200,0,0,-89.410,0.792,-31.435
EX0521-092111,18,C27,prep,1749,1749,0,907189.092,0.685,-0.676,0.195,0.188,0,0,0,0,0,0,0,0,0,0.000,0,0,0.049,0.004,-0.020,-0.040,0.020,0.014,0.993,0.010,0.002,0.004,-0.004,0.000,0.000,0.000,0.000,0,2,0,1,7,255,1440,200,0,0,-89.410,0.792,-31.435
EX0521-092111,18,C27,prep,1749,1749,0,907194.093,0.685,-0.676,0.195,0.188,0,0,0,0,0,0,0,0,0,0.000,0,0,0.035,0.006,-0.020,0.020,0.020,0.015,0.994,0.011,0.004,0.004,0.000,0.000,0.000,0.000,0.000,0,2,0,1,7,255,1440,200,0,0,-89.410,0.792,-31.435
EX0521-092111,18,C27,prep,1749,1749,0,907199.091,0.685,-0.676,0.195,0.188,0,0,0,0,0,0,0,0,0,0.000,0,0,0.049,0.008,-0.020,-0.040,0.020,0.016,0.993,0.012,0.008,0.002,0.000,0.000,0.000,0.000,0.000,0,2,0,1,7,255,1440,200,0,0,-89.410,0.792,-31.435
EX0521-092111,18,C27,prep,1749,1749,0,907204.092,0.685,-0.676,0.195,0.188,0,0,0,0,0,0,0,0,0,0.000,0,0,0.098,0.014,-0.080,-0.040,-0.040,0.015,0.992,0.013,0.008,-0.012,-0.004,0.000,0.000,0.000,0.000,0,2,0,1,7,255,1440,200,0,0,-89.410,0.792,-31.435
EX0521-092111,18,C27,prep,1760,1760,0,907209.091,0.685,-0.676,0.195,0.188,0,0,0,0,0,0,0,0,0,0.000,0,0,0.069,0.012,0.040,-0.040,-0.040,0.015,0.992,0.012,0.000,-0.012,-0.008,0.000,0.000,0.000,0.000,0,2,0,1,7,255,1440,200,0,0,-89.410,0.792,-31.435
EX0521-092111,18,C27,prep,1760,1760,0,907214.092,0.685,-0.676,0.195,0.188,0,0,0,0,0,0,0,0,0,0.000,0,0,0.049,0.010,-0.020,-0.040,0.020,0.016,0.992,0.012,0.000,-0.010,-0.008,0.000,0.000,0.000,0.000,0,2,0,1,7,255,1440,200,0,0,-89.411,0.792,-31.435
EX0521-092111,18,C27,prep,1760,1760,0,907219.091,0.685,-0.676,0.195,0.188,0,0,0,0,0,0,0,0,0,0.000,0,0,0.060,0.007,0.040,-0.040,0.020,0.015,0.993,0.012,0.004,-0.006,-0.008,0.000,0.000,0.000,0.000,0,2,0,1,7,255,1440,200,0,0,-89.411,0.792,-31.435
EX0521-092111,18,C27,prep,1760,1760,0,907224.092,0.685,-0.676,0.195,0.188,0,0,0,0,0,0,0,0,0,0.000,0,0,0.060,0.007,0.040,-0.040,0.020,0.015,0.992,0.011,0.004,-0.006,-0.008,0.000,0.000,0.000,0.000,0,2,0,1,7,255,1440,200,0,0,-89.411,0.792,-31.435
EX0521-092111,18,C27,prep,1790,1790,0,907229.092,0.685,-0.676,0.195,0.188,0,0,0,0,0,0,0,0,0,0.000,0,0,0.060,0.004,-0.020,-0.040,-0.040,0.015,0.993,0.011,0.004,-0.002,-0.004,0.000,0.000,0.000,0.000,0,2,0,1,7,255,1440,200,0,0,-89.411,0.792,-31.435
EX0521-092111,18,C27,prep,1790,1790,0,907234.092,0.685,-0.676,0.195,0.188,0,0,0,0,0,0,0,0,0,0.000,0,0,0.069,0.004,0.040,-0.040,-0.040,0.014,0.993,0.012,0.004,-0.002,0.000,0.000,0.000,0.000,0.000,0,2,0,1,7,255,1440,200,0,0,-89.411,0.792,-31.435
EX0521-092111,18,C27,prep,1790,1790,0,907239.091,0.685,-0.676,0.195,0.188,0,0,0,0,0,0,0,0,0,0.000,0,0,0.060,0.012,-0.020,-0.040,-0.040,0.013,0.993,0.012,-0.012,-0.002,0.000,0.000,0.000,0.000,0.000,0,2,0,1,7,255,1440,200,0,0,-89.411,0.792,-31.435
EX0521-092111,18,C27,prep,1790,1790,0,907244.092,0.685,-0.676,0.195,0.188,0,0,0,0,0,0,0,0,0,0.000,0,0,0.069,0.013,0.040,-0.040,-0.040,0.014,0.994,0.011,-0.012,0.004,0.000,0.000,0.000,0.000,0.000,0,2,0,1,7,255,1440,200,0,0,-89.411,0.792,-31.435
EX0521-092111,18,C27,prep,1790,1790,0,907249.091,0.685,-0.676,0.195,0.188,0,0,0,0,0,0,0,0,0,0.000,0,0,0.069,0.009,0.040,-0.040,-0.040,0.014,0.993,0.012,-0.008,0.004,-0.004,0.000,0.000,0.000,0.000,0,2,0,1,7,255,1440,200,0,0,-89.411,0.792,-31.435
EX0521-092111,18,C27,prep,1790,1790,0,907254.092,0.685,-0.676,0.195,0.188,0,0,0,0,0,0,0,0,0,0.000,0,0,0.060,0.006,-0.020,-0.040,-0.040,0.015,0.994,0.012,-0.004,-0.004,0.006,0.000,0.000,0.000,0.000,0,2,0,1,7,255,1440,200,0,0,-89.411,0.792,-31.435
EX0521-092111,18,C27,prep,1792,1792,0,907259.091,0.685,-0.676,0.195,0.188,0,0,0,0,0,0,0,0,0,0.000,0,0,0.049,0.007,-0.020,-0.040,0.020,0.014,0.993,0.011,-0.006,-0.004,0.000,0.000,0.000,0.000,0.000,0,2,0,1,7,255,1440,200,0,0,-89.411,0.792,-31.435
EX0521-092111,18,C27,prep,1792,1792,0,907264.092,0.685,-0.676,0.195,0.188,0,0,0,0,0,0,0,0,0,0.000,0,0,0.069,0.004,0.040,-0.040,-0.040,0.016,0.993,0.012,0.000,-0.004,0.002,0.000,0.000,0.000,0.000,0,2,0,1,7,255,1440,200,0,0,-89.411,0.792,-31.435
EX0521-092111,18,C27,prep,1820,1820,0,907269.091,0.685,-0.676,0.195,0.188,0,0,0,0,0,0,0,0,0,0.000,0,0,0.060,0.006,-0.020,-0.040,-0.040,0.014,0.993,0.011,0.000,0.006,0.000,0.000,0.000,0.000,0.000,0,2,0,1,7,255,1440,200,0,0,-89.411,0.792,-31.435
EX0521-092111,18,C27,prep,1820,1820,0,907274.092,0.685,-0.676,0.195,0.188,0,0,0,0,0,0,0,0,0,0.000,0,0,0.060,0.007,-0.020,-0.040,-0.040,0.015,0.994,0.012,0.004,-0.006,0.002,0.000,0.000,0.000,0.000,0,2,0,1,7,255,1440,200,0,0,-89.411,0.792,-31.435
EX0521-092111,18,C27,prep,1851,1851,0,907279.091,0.685,-0.676,0.195,0.188,0,0,0,0,0,0,0,0,0,0.000,0,0,0.060,0.006,0.040,-0.040,0.020,0.014,0.993,0.011,0.000,0.006,0.000,0.000,0.000,0.000,0.000,0,2,0,1,7,255,1440,200,0,0,-89.411,0.792,-31.435
EX0521-092111,18,C27,prep,1851,1851,0,907284.092,0.685,-0.676,0.195,0.188,0,0,0,0,0,0,0,0,0,0.000,0,0,0.049,0.004,-0.020,-0.040,0.020,0.015,0.994,0.012,0.000,-0.004,0.010,0.000,0.000,0.000,0.000,0,2,0,1,7,255,1440,200,0,0,-89.411,0.792,-31.435
EX0521-092111,18,C27,prep,1851,1851,0,907289.092,0.685,-0.676,0.195,0.188,0,0,0,0,0,0,0,0,0,0.000,0,0,0.035,0.007,-0.020,0.020,0.020,0.014,0.992,0.011,-0.004,0.006,0.000,0.000,0.000,0.000,0.000,0,2,0,1,7,255,1440,200,0,0,-89.411,0.792,-31.435
EX0521-092111,18,C27,prep,1851,1851,0,907294.093,0.685,-0.676,0.195,0.188,0,0,0,0,0,0,0,0,0,0.000,0,0,0.069,0.000,0.040,-0.040,-0.040,0.015,0.993,0.011,0.000,0.000,-0.004,0.000,0.000,0.000,0.000,0,2,0,1,7,255,1440,200,0,0,-89.411,0.792,-31.435
EX0521-092111,18,C27,prep,1851,1851,0,907299.092,0.685,-0.676,0.195,0.188,0,0,0,0,0,0,0,0,0,0.000,0,0,0.049,0.004,-0.020,0.020,-0.040,0.014,0.993,0.013,-0.004,0.000,-0.004,0.000,0.000,0.000,0.000,0,2,0,1,7,255,1440,200,0,0,-89.411,0.792,-31.435
EX0521-092111,18,C27,prep,1851,1851,0,907304.092,0.685,-0.676,0.195,0.188,0,0,0,0,0,0,0,0,0,0.000,0,0,0.069,0.004,0.040,-0.040,-0.040,0.014,0.992,0.012,-0.004,-0.002,-0.004,0.000,0.000,0.000,0.000,0,2,0,1,7,255,1440,200,0,0,-89.411,0.792,-31.435
EX0521-092111,18,C27,prep,1853,1853,0,907309.092,0.685,-0.676,0.195,0.188,0,0,0,0,0,0,0,0,0,0.000,0,0,0.060,0.004,-0.020,-0.040,-0.040,0.014,0.992,0.012,-0.004,-0.002,-0.008,0.000,0.000,0.000,0.000,0,2,0,1,7,255,1440,200,0,0,-89.411,0.792,-31.435
EX0521-092111,18,C27,prep,1853,1853,0,907314.091,0.685,-0.676,0.195,0.188,0,0,0,0,0,0,0,0,0,0.000,0,0,0.060,0.004,-0.020,-0.040,-0.040,0.015,0.991,0.011,-0.004,-0.002,-0.014,0.000,0.000,0.000,0.000,0,2,0,1,7,255,1440,200,0,0,-89.411,0.792,-31.435
EX0521-092111,18,C27,prep,1854,1854,0,907319.092,0.685,-0.676,0.195,0.188,0,0,0,0,0,0,0,0,0,0.000,0,0,0.060,0.004,0.040,-0.040,0.020,0.014,0.993,0.012,-0.004,0.000,-0.014,0.000,0.000,0.000,0.000,0,2,0,1,7,255,1440,200,0,0,-89.411,0.792,-31.435
EX0521-092111,18,C27,prep,1854,1854,0,907324.091,0.685,-0.676,0.195,0.188,0,0,0,0,0,0,0,0,0,0.000,0,0,0.060,0.004,0.040,-0.040,0.020,0.014,0.992,0.012,-0.004,0.000,-0.008,0.000,0.000,0.000,0.000,0,2,0,1,7,255,1440,200,0,0,-89.411,0.792,-31.435
EX0521-092111,18,C27,prep,1872,1872,0,907329.092,0.685,-0.676,0.195,0.188,0,0,0,0,0,0,0,0,0,0.000,0,0,0.069,0.004,0.040,-0.040,-0.040,0.014,0.992,0.012,-0.004,-0.002,-0.008,0.000,0.000,0.000,0.000,0,2,0,1,7,255,1440,200,0,0,-89.411,0.792,-31.435
EX0521-092111,18,C27,prep,1872,1872,0,907334.091,0.685,-0.676,0.195,0.188,0,0,0,0,0,0,0,0,0,0.000,0,0,0.060,0.007,0.040,-0.040,0.020,0.015,0.992,0.012,-0.004,-0.006,-0.008,0.000,0.000,0.000,0.000,0,2,0,1,7,255,1440,200,0,0,-89.411,0.792,-31.435
EX0521-092111,18,C27,prep,1904,1904,0,907339.092,0.685,-0.676,0.195,0.188,0,0,0,0,0,0,0,0,0,0.000,0,0,0.060,0.006,-0.020,-0.040,-0.040,0.014,0.993,0.010,0.002,-0.006,-0.008,0.000,0.000,0.000,0.000,0,2,0,1,7,255,1440,200,0,0,-89.411,0.792,-31.435
EX0521-092111,18,C27,prep,1904,1904,0,907344.091,0.685,-0.676,0.195,0.188,0,0,0,0,0,0,0,0,0,0.000,0,0,0.069,0.010,0.040,-0.040,-0.040,0.014,0.995,0.011,0.002,0.010,0.002,0.000,0.000,0.000,0.000,0,2,0,1,7,255,1440,200,0,0,-89.411,0.792,-31.435
EX0521-092111,18,C27,prep,1904,1904,0,907349.092,0.685,-0.676,0.195,0.188,0,0,0,0,0,0,0,0,0,0.000,0,0,0.049,0.010,-0.020,-0.040,0.020,0.015,0.993,0.011,0.002,0.010,0.002,0.000,0.000,0.000,0.000,0,2,0,1,7,255,1440,200,0,0,-89.411,0.792,-31.435
EX0521-092111,18,C27,prep,1904,1904,0,907354.091,0.685,-0.676,0.195,0.188,0,0,0,0,0,0,0,0,0,0.000,0,0,0.049,0.002,-0.020,-0.040,0.020,0.015,0.993,0.011,0.002,0.000,-0.004,0.000,0.000,0.000,0.000,0,2,0,1,7,255,1440,200,0,0,-89.411,0.792,-31.435
EX0521-092111,18,C27,prep,1904,1904,0,907359.092,0.685,-0.676,0.195,0.188,0,0,0,0,0,0,0,0,0,0.000,0,0,0.060,0.002,-0.020,-0.040,-0.040,0.014,0.993,0.012,0.002,0.000,-0.004,0.000,0.000,0.000,0.000,0,2,0,1,7,255,1440,200,0,0,-89.411,0.792,-31.435
EX0521-092111,18,C27,prep,1904,1904,0,907364.093,0.685,-0.676,0.195,0.188,0,0,0,0,0,0,0,0,0,0.000,0,0,0.069,0.006,0.040,-0.040,-0.040,0.016,0.993,0.011,0.006,-0.002,-0.004,0.000,0.000,0.000,0.000,0,2,0,1,7,255,1440,200,0,0,-89.411,0.792,-31.435
EX0521-092111,18,C27,prep,1904,1904,0,907369.092,0.685,-0.676,0.195,0.188,0,0,0,0,0,0,0,0,0,0.000,0,0,0.069,0.008,0.040,-0.040,-0.040,0.013,0.993,0.011,-0.008,0.002,-0.004,0.000,0.000,0.000,0.000,0,2,0,1,7,255,1440,200,0,0,-89.411,0.792,-31.435
EX0521-092111,18,C27,prep,1904,1904,0,907374.091,0.685,-0.676,0.195,0.188,0,0,0,0,0,0,0,0,0,0.000,0,0,0.049,0.008,-0.020,0.020,-0.040,0.015,0.994,0.011,0.008,0.002,0.002,0.000,0.000,0.000,0.000,0,2,0,1,7,255,1440,200,0,0,-89.411,0.792,-31.435
EX0521-092111,18,C27,prep,1936,1936,0,907379.092,0.685,-0.676,0.195,0.188,0,0,0,0,0,0,0,0,0,0.000,0,0,0.060,0.002,-0.020,-0.040,-0.040,0.015,0.994,0.012,0.000,0.002,0.006,0.000,0.000,0.000,0.000,0,2,0,1,7,255,1440,200,0,0,-89.411,0.792,-31.435
EX0521-092111,18,C27,prep,1936,1936,0,907384.091,0.685,-0.676,0.195,0.188,0,0,0,0,0,0,0,0,0,0.000,0,0,0.049,0.004,-0.020,0.020,-0.040,0.014,0.993,0.012,0.000,-0.004,0.006,0.000,0.000,0.000,0.000,0,2,0,1,7,255,1440,200,0,0,-89.411,0.792,-31.435
EX0521-092111,18,C27,prep,1938,1938,0,907389.092,0.685,-0.676,0.195,0.188,0,0,0,0,0,0,0,0,0,0.000,0,0,0.060,0.004,-0.020,-0.040,-0.040,0.015,0.994,0.012,0.000,-0.004,0.006,0.000,0.000,0.000,0.000,0,2,0,1,7,255,1440,200,0,0,-89.411,0.792,-31.435
EX0521-092111,18,C27,prep,1938,1938,0,907394.093,0.685,-0.676,0.195,0.188,0,0,0,0,0,0,0,0,0,0.000,0,0,0.049,0.009,-0.020,-0.040,0.020,0.014,0.993,0.012,-0.008,-0.004,0.002,0.000,0.000,0.000,0.000,0,2,0,1,7,255,1440,200,0,0,-89.411,0.792,-31.435
EX0521-092111,18,C27,prep,1938,1938,0,907399.092,0.685,-0.676,0.195,0.188,0,0,0,0,0,0,0,0,0,0.000,0,0,0.049,0.004,-0.020,-0.040,0.020,0.014,0.994,0.011,-0.004,0.002,0.006,0.000,0.000,0.000,0.000,0,2,0,1,7,255,1440,200,0,0,-89.411,0.792,-31.435
EX0521-092111,18,C27,prep,1938,1938,0,907404.091,0.685,-0.676,0.195,0.188,0,0,0,0,0,0,0,0,0,0.000,0,0,0.060,0.004,-0.020,-0.040,-0.040,0.015,0.992,0.012,-0.004,0.002,0.002,0.000,0.000,0.000,0.000,0,2,0,1,7,255,1440,200,0,0,-89.411,0.792,-31.435
EX0521-092111,18,C27,prep,1954,1954,0,907409.092,0.685,-0.676,0.195,0.188,0,0,0,0,0,0,0,0,0,0.000,0,0,0.069,0.004,0.040,-0.040,-0.040,0.014,0.993,0.012,-0.004,-0.002,-0.004,0.000,0.000,0.000,0.000,0,2,0,1,7,255,1440,200,0,0,-89.411,0.792,-31.435
EX0521-092111,18,C27,prep,1954,1954,0,907414.091,0.685,-0.676,0.195,0.188,0,0,0,0,0,0,0,0,0,0.000,0,0,0.060,0.003,0.040,0.020,-0.040,0.015,0.993,0.011,0.002,-0.002,-0.004,0.000,0.000,0.000,0.000,0,2,0,1,7,255,1440,200,0,0,-89.411,0.792,-31.435
EX0521-092111,18,C27,prep,1955,1955,0,907419.092,0.685,-0.676,0.195,0.188,0,0,0,0,0,0,0,0,0,0.000,0,0,0.060,0.010,0.040,-0.040,0.020,0.014,0.992,0.012,-0.010,-0.002,-0.004,0.000,0.000,0.000,0.000,0,2,0,1,7,255,1440,200,0,0,-89.411,0.792,-31.435
EX0521-092111,18,C27,prep,1955,1955,0,907424.092,0.685,-0.676,0.195,0.188,0,0,0,0,0,0,0,0,0,0.000,0,0,0.060,0.008,-0.020,-0.040,-0.040,0.014,0.994,0.012,-0.008,0.000,-0.004,0.000,0.000,0.000,0.000,0,2,0,1,7,255,1440,200,0,0,-89.411,0.792,-31.435
EX0521-092111,18,C27,prep,1967,1967,0,907429.092,0.685,-0.676,0.195,0.188,0,0,0,0,0,0,0,0,0,0.000,0,0,0.060,0.008,0.040,-0.040,0.020,0.014,0.994,0.011,-0.008,0.002,0.006,0.000,0.000,0.000,0.000,0,2,0,1,7,255,1440,200,0,0,-89.411,0.792,-31.435
EX0521-092111,18,C27,prep,1967,1967,0,907434.092,0.685,-0.676,0.195,0.188,0,0,0,0,0,0,0,0,0,0.000,0,0,0.069,0.003,0.040,-0.040,-0.040,0.014,0.993,0.011,-0.002,0.002,0.006,0.000,0.000,0.000,0.000,0,2,0,1,7,255,1440,200,0,0,-89.412,0.792,-31.435
EX0521-092111,18,C27,prep,1989,1989,0,907439.092,0.685,-0.676,0.195,0.188,0,0,0,0,0,0,0,0,0,0.000,0,0,0.060,0.004,-0.020,-0.040,-0.040,0.014,0.993,0.011,-0.002,0.004,0.002,0.000,0.000,0.000,0.000,0,2,0,1,7,255,1440,200,0,0,-89.412,0.792,-31.435
EX0521-092111,18,C27,prep,1989,1989,0,907444.092,0.685,-0.676,0.195,0.188,0,0,0,0,0,0,0,0,0,0.000,0,0,0.060,0.003,-0.020,-0.040,-0.040,0.015,0.991,0.012,-0.002,0.002,-0.004,0.000,0.000,0.000,0.000,0,2,0,1,7,255,1440,200,0,0,-89.412,0.792,-31.435
EX0521-092111,18,C27,prep,2000,2000,0,907449.091,0.685,-0.676,0.195,0.188,0,0,0,0,0,0,0,0,0,0.000,0,0,0.069,0.004,0.040,-0.040,-0.040,0.015,0.991,0.011,-0.002,0.004,-0.018,0.000,0.000,0.000,0.000,0,2,0,1,7,255,1440,200,0,0,-89.412,0.792,-31.435
EX0521-092111,18,C27,prep,2000,2000,0,907454.092,0.685,-0.676,0.195,0.188,0,0,0,0,0,0,0,0,0,0.000,0,0,0.110,0.003,-0.020,-0.040,-0.100,0.014,0.992,0.011,-0.002,0.002,-0.018,0.000,0.000,0.000,0.000,0,2,0,1,7,255,1440,200,0,0,-89.412,0.792,-31.435
EX0521-092111,18,C27,prep,2000,2000,0,907459.091,0.685,-0.676,0.195,0.188,0,0,0,0,0,0,0,0,0,0.000,0,0,0.060,0.006,0.040,0.020,-0.040,0.016,0.992,0.011,0.006,0.002,-0.008,0.000,0.000,0.000,0.000,0,2,0,1,7,255,1440,200,0,0,-89.412,0.792,-31.435
EX0521-092111,18,C27,prep,2000,2000,0,907464.092,0.685,-0.676,0.195,0.188,0,0,0,0,0,0,0,0,0,0.000,0,0,0.069,0.003,0.040,-0.040,-0.040,0.014,0.992,0.011,-0.002,0.002,-0.008,0.000,0.000,0.000,0.000,0,2,0,1,7,255,1440,200,0,0,-89.412,0.792,-31.435
EX0521-092111,18,C27,prep,2022,2022,0,907469.091,0.685,-0.676,0.195,0.188,0,0,0,0,0,0,0,0,0,0.000,0,0,0.069,0.004,0.040,-0.040,-0.040,0.015,0.992,0.012,0.004,0.000,-0.008,0.000,0.000,0.000,0.000,0,2,0,1,7,255,1440,200,0,0,-89.412,0.792,-31.435
EX0521-092111,18,C27,prep,2022,2022,0,907474.092,0.685,-0.676,0.195,0.188,0,0,0,0,0,0,0,0,0,0.000,0,0,0.060,0.003,-0.020,-0.040,-0.040,0.014,0.994,0.012,-0.002,-0.002,-0.008,0.000,0.000,0.000,0.000,0,2,0,1,7,255,1440,200,0,0,-89.412,0.792,-31.435
EX0521-092111,18,C27,prep,2056,2056,0,907479.091,0.685,-0.676,0.195,0.188,0,0,0,0,0,0,0,0,0,0.000,0,0,0.049,0.004,-0.020,0.020,-0.040,0.014,0.992,0.010,0.004,-0.002,-0.008,0.000,0.000,0.000,0.000,0,2,0,1,7,255,1440,200,0,0,-89.412,0.792,-31.435
EX0521-092111,18,C27,prep,2056,2056,0,907484.092,0.685,-0.676,0.195,0.188,0,0,0,0,0,0,0,0,0,0.000,0,0,0.115,0.004,0.040,-0.040,-0.100,0.015,0.994,0.011,0.004,0.002,0.006,0.000,0.000,0.000,0.000,0,2,0,1,7,255,1440,200,0,0,-89.412,0.792,-31.435
EX0521-092111,18,C27,prep,2056,2056,0,907489.092,0.685,-0.676,0.195,0.188,0,0,0,0,0,0,0,0,0,0.000,0,0,0.110,0.004,-0.020,-0.040,-0.100,0.015,0.992,0.013,0.004,0.002,-0.008,0.000,0.000,0.000,0.000,0,2,0,1,7,255,1440,200,0,0,-89.412,0.792,-31.435
EX0521-092111,18,C27,prep,2056,2056,0,907494.093,0.685,-0.676,0.195,0.188,0,0,0,0,0,0,0,0,0,0.000,0,0,0.060,0.010,-0.020,-0.040,-0.040,0.015,0.994,0.012,0.002,-0.010,0.006,0.000,0.000,0.000,0.000,0,2,0,1,7,255,1440,200,0,0,-89.412,0.792,-31.435
EX0521-092111,18,C27,prep,2056,2056,0,907499.091,0.685,-0.676,0.195,0.188,0,0,0,0,0,0,0,0,0,0.000,0,0,0.115,0.010,0.040,-0.040,-0.100,0.015,0.993,0.012,-0.002,-0.010,0.002,0.000,0.000,0.000,0.000,0,2,0,1,7,255,1440,200,0,0,-89.412,0.792,-31.435
EX0521-092111,18,C27,prep,2056,2056,0,907504.092,0.685,-0.676,0.195,0.188,0,0,0,0,0,0,0,0,0,0.000,0,0,0.110,0.008,-0.020,-0.040,-0.100,0.015,0.994,0.012,0.000,-0.008,0.006,0.000,0.000,0.000,0.000,0,2,0,1,7,255,1440,200,0,0,-89.412,0.792,-31.435
EX0521-092111,18,C27,prep,2056,2056,0,907509.091,0.685,-0.676,0.195,0.188,0,0,0,0,0,0,0,0,0,0.000,0,0,0.143,0.004,-0.020,-0.100,-0.100,0.015,0.995,0.011,0.000,-0.004,0.006,0.000,0.000,0.000,0.000,0,2,0,1,7,255,1440,200,0,0,-89.412,0.792,-31.435
EX0521-092111,18,C27,prep,2056,2056,0,907514.092,0.685,-0.676,0.195,0.188,0,0,0,0,0,0,0,0,0,0.000,0,0,0.060,0.003,0.040,0.020,-0.040,0.015,0.993,0.011,0.002,-0.002,0.006,0.000,0.000,0.000,0.000,0,2,0,1,7,255,1440,200,0,0,-89.412,0.792,-31.435
EX0521-092111,18,C27,prep,2057,2057,0,907519.091,0.685,-0.676,0.195,0.188,0,0,0,0,0,0,0,0,0,0.000,0,0,0.147,0.003,0.040,-0.100,-0.100,0.014,0.994,0.011,0.002,0.002,0.012,0.000,0.000,0.000,0.000,0,2,0,1,7,255,1440,200,0,0,-89.412,0.792,-31.435
EX0521-092111,18,C27,prep,2057,2057,0,907524.092,0.685,-0.676,0.195,0.188,0,0,0,0,0,0,0,0,0,0.000,0,0,0.069,0.006,0.040,-0.040,-0.040,0.015,0.993,0.011,0.004,0.004,0.002,0.000,0.000,0.000,0.000,0,2,0,1,7,255,1440,200,0,0,-89.412,0.792,-31.435
EX0521-092111,18,C27,prep,2063,2063,0,907529.092,0.685,-0.676,0.195,0.188,0,0,0,0,0,0,0,0,0,0.000,0,0,0.069,0.004,0.040,-0.040,-0.040,0.014,0.992,0.012,0.000,0.004,0.002,0.000,0.000,0.000,0.000,0,2,0,1,7,255,1440,200,0,0,-89.412,0.792,-31.435
EX0521-092111,18,C27,prep,2063,2063,0,907534.092,0.685,-0.676,0.195,0.188,0,0,0,0,0,0,0,0,0,0.000,0,0,0.060,0.002,0.040,-0.040,0.020,0.015,0.994,0.012,0.000,0.002,0.002,0.000,0.000,0.000,0.000,0,2,0,1,7,255,1440,200,0,0,-89.412,0.792,-31.435
EX0521-092111,18,C27,prep,2088,2088,0,907539.091,0.685,-0.676,0.195,0.188,0,0,0,0,0,0,0,0,0,0.000,0,0,0.060,0.004,0.040,-0.040,0.020,0.015,0.993,0.012,-0.002,-0.004,-0.004,0.000,0.000,0.000,0.000,0,2,0,1,7,255,1440,200,0,0,-89.412,0.792,-31.435
EX0521-092111,18,C27,prep,2088,2088,0,907544.092,0.685,-0.676,0.195,0.188,0,0,0,0,0,0,0,0,0,0.000,0,0,0.049,0.008,-0.020,-0.040,0.020,0.015,0.994,0.013,-0.002,-0.008,0.006,0.000,0.000,0.000,0.000,0,2,0,1,7,255,1440,200,0,0,-89.412,0.792,-31.435
EX0521-092111,18,C27,prep,2089,2089,0,907549.092,0.685,-0.676,0.195,0.188,0,0,0,0,0,0,0,0,0,0.000,0,0,0.049,0.008,-0.020,-0.040,0.020,0.015,0.994,0.011,-0.002,-0.008,0.006,0.000,0.000,0.000,0.000,0,2,0,1,7,255,1440,200,0,0,-89.412,0.792,-31.435
EX0521-092111,18,C27,prep,2089,2089,0,907554.092,0.685,-0.676,0.195,0.188,0,0,0,0,0,0,0,0,0,0.000,0,0,0.049,0.008,-0.020,-0.040,0.020,0.015,0.993,0.012,-0.002,-0.008,0.006,0.000,0.000,0.000,0.000,0,2,0,1,7,255,1440,200,0,0,-89.412,0.792,-31.435
EX0521-092111,18,C27,prep,2096,2096,0,907559.093,0.685,-0.676,0.195,0.188,0,0,0,0,0,0,0,0,0,0.000,0,0,0.069,0.004,0.040,-0.040,-0.040,0.014,0.993,0.012,-0.002,-0.004,0.002,0.000,0.000,0.000,0.000,0,2,0,1,7,255,1440,200,0,0,-89.412,0.792,-31.435
EX0521-092111,18,C27,prep,2096,2096,0,907564.093,0.685,-0.676,0.195,0.188,0,0,0,0,0,0,0,0,0,0.000,0,0,0.035,0.004,-0.020,0.020,0.020,0.015,0.993,0.012,-0.002,-0.004,0.002,0.000,0.000,0.000,0.000,0,2,0,1,7,255,1440,200,0,0,-89.412,0.792,-31.435
EX0521-092111,18,C27,prep,2121,2121,0,907569.092,0.685,-0.676,0.195,0.188,0,0,0,0,0,0,0,0,0,0.000,0,0,0.060,0.004,-0.020,-0.040,-0.040,0.014,0.993,0.011,-0.002,-0.004,0.002,0.000,0.000,0.000,0.000,0,2,0,1,7,255,1440,200,0,0,-89.412,0.792,-31.435
EX0521-092111,18,C27,prep,2121,2121,0,907574.091,0.685,-0.676,0.195,0.188,0,0,0,0,0,0,0,0,0,0.000,0,0,0.110,0.004,-0.020,-0.100,-0.040,0.015,0.993,0.012,0.000,-0.004,-0.004,0.000,0.000,0.000,0.000,0,2,0,1,7,255,1440,200,0,0,-89.412,0.792,-31.435
EX0521-092111,18,C27,prep,2154,2154,0,907579.092,0.685,-0.676,0.195,0.188,0,0,0,0,0,0,0,0,0,0.000,0,0,0.049,0.004,-0.020,-0.040,0.020,0.014,0.992,0.011,-0.002,0.004,-0.004,0.000,0.000,0.000,0.000,0,2,0,1,7,255,1440,200,0,0,-89.412,0.792,-31.435
EX0521-092111,18,C27,prep,2154,2154,0,907584.091,0.685,-0.676,0.195,0.188,0,0,0,0,0,0,0,0,0,0.000,0,0,0.049,0.004,-0.020,-0.040,0.020,0.015,0.993,0.012,0.000,-0.004,-0.004,0.000,0.000,0.000,0.000,0,2,0,1,7,255,1440,200,0,0,-89.412,0.792,-31.435
EX0521-092111,18,C27,prep,2154,2154,0,907589.093,0.685,-0.676,0.195,0.188,0,0,0,0,0,0,0,0,0,0.000,0,0,0.060,0.004,-0.020,-0.040,-0.040,0.016,0.993,0.012,0.000,-0.004,-0.004,0.000,0.000,0.000,0.000,0,2,0,1,7,255,1440,200,0,0,-89.412,0.792,-31.435
EX0521-092111,18,C27,prep,2154,2154,0,907594.093,0.685,-0.676,0.195,0.188,0,0,0,0,0,0,0,0,0,0.000,0,0,0.069,0.004,0.040,-0.040,-0.040,0.015,0.993,0.011,0.002,-0.004,-0.004,0.000,0.000,0.000,0.000,0,2,0,1,7,255,1440,200,0,0,-89.412,0.793,-31.435
EX0521-092111,18,C27,prep,2154,2154,0,907599.092,0.685,-0.676,0.195,0.188,0,0,0,0,0,0,0,0,0,0.000,0,0,0.115,0.004,0.040,-0.100,-0.040,0.015,0.994,0.011,0.004,0.000,-0.002,0.000,0.000,0.000,0.000,0,2,0,1,7,255,1440,200,0,0,-89.412,0.793,-31.435
EX0521-092111,18,C27,prep,2154,2154,0,907604.091,0.685,-0.676,0.195,0.188,0,0,0,0,0,0,0,0,0,0.000,0,0,0.069,0.002,0.040,-0.040,-0.040,0.014,0.993,0.012,0.002,0.000,0.002,0.000,0.000,0.000,0.000,0,2,0,1,7,255,1440,200,0,0,-89.412,0.793,-31.435
EX0521-092111,18,C27,prep,2155,2155,0,907609.092,0.685,-0.676,0.195,0.188,0,0,0,0,0,0,0,0,0,0.000,0,0,0.049,0.002,-0.020,-0.040,0.020,0.015,0.993,0.012,-0.002,0.000,0.002,0.000,0.000,0.000,0.000,0,2,0,1,7,255,1440,200,0,0,-89.412,0.793,-31.435
EX0521-092111,18,C27,prep,2155,2155,0,907614.091,0.685,-0.676,0.195,0.188,0,0,0,0,0,0,0,0,0,0.000,0,0,0.049,0.008,-0.020,0.020,-0.040,0.015,0.993,0.012,-0.002,-0.008,0.002,0.000,0.000,0.000,0.000,0,2,0,1,7,255,1440,200,0,0,-89.412,0.793,-31.435
EX0521-092111,18,C27,prep,2155,2155,0,907619.092,0.685,-0.676,0.195,0.188,0,0,0,0,0,0,0,0,0,0.000,0,0,0.110,0.008,-0.020,-0.040,-0.100,0.015,0.993,0.012,-0.002,-0.008,-0.004,0.000,0.000,0.000,0.000,0,2,0,1,7,255,1440,200,0,0,-89.412,0.793,-31.435
EX0521-092111,18,C27,prep,2155,2155,0,907624.091,0.685,-0.676,0.195,0.188,0,0,0,0,0,0,0,0,0,0.000,0,0,0.060,0.004,-0.020,-0.040,-0.040,0.014,0.993,0.011,-0.002,-0.004,-0.004,0.000,0.000,0.000,0.000,0,2,0,1,7,255,1440,200,0,0,-89.412,0.793,-31.435
EX0521-092111,18,C27,prep,2160,2160,0,907629.092,0.685,-0.676,0.195,0.188,0,0,0,0,0,0,0,0,0,0.000,0,0,0.069,0.007,0.040,-0.040,-0.040,0.014,0.991,0.012,-0.006,-0.004,-0.004,0.000,0.000,0.000,0.000,0,2,0,1,7,255,1440,200,0,0,-89.412,0.793,-31.435
EX0521-092111,18,C27,prep,2160,2160,0,907634.092,0.685,-0.676,0.195,0.188,0,0,0,0,0,0,0,0,0,0.000,0,0,0.060,0.007,-0.020,-0.040,-0.040,0.014,0.993,0.011,-0.006,0.004,-0.004,0.000,0.000,0.000,0.000,0,2,0,1,7,255,1440,200,0,0,-89.412,0.793,-31.435
EX0521-092111,18,C27,prep,2192,2192,0,907639.092,0.685,-0.676,0.195,0.188,0,0,0,0,0,0,0,0,0,0.000,0,0,0.060,0.004,-0.020,-0.040,-0.040,0.015,0.993,0.012,-0.002,-0.004,0.002,0.000,0.000,0.000,0.000,0,2,0,1,7,255,1440,200,0,0,-89.412,0.793,-31.435
EX0521-092111,18,C27,prep,2192,2192,0,907644.091,0.685,-0.676,0.195,0.188,0,0,0,0,0,0,0,0,0,0.000,0,0,0.110,0.004,0.040,0.020,-0.100,0.014,0.993,0.013,-0.002,-0.004,0.002,0.000,0.000,0.000,0.000,0,2,0,1,7,255,1440,200,0,0,-89.412,0.793,-31.435
EX0521-092111,18,C27,prep,2192,2192,0,907649.092,0.685,-0.676,0.195,0.188,0,0,0,0,0,0,0,0,0,0.000,0,0,0.069,0.004,0.040,-0.040,-0.040,0.015,0.993,0.011,0.000,-0.004,0.002,0.000,0.000,0.000,0.000,0,2,0,1,7,255,1440,200,0,0,-89.412,0.793,-31.435
EX0521-092111,18,C27,prep,2192,2192,0,907654.091,0.685,-0.676,0.195,0.188,0,0,0,0,0,0,0,0,0,0.000,0,0,0.110,0.003,0.040,0.020,-0.100,0.015,0.994,0.011,0.002,-0.002,0.002,0.000,0.000,0.000,0.000,0,2,0,1,7,255,1440,200,0,0,-89.413,0.793,-31.435
EX0521-092111,18,C27,prep,2192,2192,0,907659.092,0.685,-0.676,0.195,0.188,0,0,0,0,0,0,0,0,0,0.000,0,0,0.115,0.003,0.040,-0.100,-0.040,0.015,0.993,0.012,0.002,-0.002,0.002,0.000,0.000,0.000,0.000,0,2,0,1,7,255,1440,200,0,0,-89.413,0.793,-31.435
EX0521-092111,18,C27,prep,2192,2192,0,907664.091,0.685,-0.676,0.195,0.188,0,0,0,0,0,0,0,0,0,0.000,0,0,0.060,0.003,-0.020,-0.040,-0.040,0.014,0.993,0.011,-0.002,0.002,0.002,0.000,0.000,0.000,0.000,0,2,0,1,7,255,1440,200,0,0,-89.413,0.793,-31.435
EX0521-092111,18,C27,prep,2230,2230,0,907669.092,0.685,-0.676,0.195,0.188,0,0,0,0,0,0,0,0,0,0.000,0,0,0.060,0.003,-0.020,-0.040,-0.040,0.015,0.993,0.012,-0.002,-0.002,0.002,0.000,0.000,0.000,0.000,0,2,0,1,7,255,1440,200,0,0,-89.413,0.793,-31.435
EX0521-092111,18,C27,prep,2230,2230,0,907674.091,0.685,-0.676,0.195,0.188,0,0,0,0,0,0,0,0,0,0.000,0,0,0.060,0.002,-0.020,-0.040,-0.040,0.015,0.993,0.012,0.000,-0.002,0.002,0.000,0.000,0.000,0.000,0,2,0,1,7,255,1440,200,0,0,-89.413,0.793,-31.435
EX0521-092111,18,C27,prep,2245,2245,0,907679.092,0.685,-0.676,0.195,0.188,0,0,0,0,0,0,0,0,0,0.000,0,0,0.035,0.002,-0.020,0.020,0.020,0.015,0.993,0.011,0.000,-0.002,0.002,0.000,0.000,0.000,0.000,0,2,0,1,7,255,1440,200,0,0,-89.413,0.793,-31.435
EX0521-092111,18,C27,prep,2245,2245,0,907684.092,0.685,-0.676,0.195,0.188,0,0,0,0,0,0,0,0,0,0.000,0,0,0.069,0.003,0.040,-0.040,-0.040,0.015,0.993,0.011,0.002,0.002,0.002,0.000,0.000,0.000,0.000,0,2,0,1,7,255,1440,200,0,0,-89.413,0.793,-31.435
EX0521-092111,18,C27,prep,2245,2245,0,907689.092,0.685,-0.676,0.195,0.188,0,0,0,0,0,0,0,0,0,0.000,0,0,0.069,0.004,0.040,-0.040,-0.040,0.013,0.994,0.012,0.002,0.004,0.002,0.000,0.000,0.000,0.000,0,2,0,1,7,255,1440,200,0,0,-89.413,0.793,-31.435
EX0521-092111,18,C27,prep,2245,2245,0,907694.093,0.685,-0.676,0.195,0.188,0,0,0,0,0,0,0,0,0,0.000,0,0,0.060,0.003,-0.020,-0.040,-0.040,0.015,0.994,0.012,0.002,0.002,0.006,0.000,0.000,0.000,0.000,0,2,0,1,7,255,1440,200,0,0,-89.413,0.793,-31.435
EX0521-092111,18,C27,prep,2245,2245,0,907699.092,0.685,-0.676,0.195,0.188,0,0,0,0,0,0,0,0,0,0.000,0,0,0.060,0.004,-0.020,-0.040,-0.040,0.014,0.994,0.011,-0.002,0.004,0.006,0.000,0.000,0.000,0.000,0,2,0,1,7,255,1440,200,0,0,-89.413,0.793,-31.435
EX0521-092111,18,C27,prep,2245,2245,0,907704.092,0.685,-0.676,0.195,0.188,0,0,0,0,0,0,0,0,0,0.000,0,0,0.069,0.003,0.040,-0.040,-0.040,0.014,0.995,0.012,-0.002,0.002,0.006,0.000,0.000,0.000,0.000,0,2,0,1,7,255,1440,200,0,0,-89.413,0.793,-31.435
EX0521-092111,18,C27,prep,2255,2255,0,907709.091,0.685,-0.676,0.195,0.188,0,0,0,0,0,0,0,0,0,0.000,0,0,0.069,0.004,0.040,-0.040,-0.040,0.014,0.993,0.011,-0.002,0.004,0.006,0.000,0.000,0.000,0.000,0,2,0,1,7,255,1440,200,0,0,-89.413,0.793,-31.435
EX0521-092111,18,C27,prep,2255,2255,0,907714.092,0.685,-0.676,0.195,0.188,0,0,0,0,0,0,0,0,0,0.000,0,0,0.060,0.004,-0.020,-0.040,-0.040,0.014,0.994,0.011,-0.002,0.004,0.006,0.000,0.000,0.000,0.000,0,2,0,1,7,255,1440,200,0,0,-89.413,0.793,-31.435
EX0521-092111,18,C27,prep,2255,2255,0,907719.091,0.685,-0.676,0.195,0.188,0,0,0,0,0,0,0,0,0,0.000,0,0,0.049,0.004,-0.020,-0.040,0.020,0.015,0.993,0.011,0.000,0.004,0.002,0.000,0.000,0.000,0.000,0,2,0,1,7,255,1440,200,0,0,-89.413,0.793,-31.435
EX0521-092111,18,C27,prep,2255,2255,0,907724.092,0.685,-0.676,0.195,0.188,0,0,0,0,0,0,0,0,0,0.000,0,0,0.049,0.004,-0.020,0.020,-0.040,0.014,0.994,0.012,0.000,0.004,0.006,0.000,0.000,0.000,0.000,0,2,0,1,7,255,1440,200,0,0,-89.413,0.793,-31.435
EX0521-092111,18,C27,prep,2279,2279,0,907729.091,0.685,-0.676,0.195,0.188,0,0,0,0,0,0,0,0,0,0.000,0,0,0.069,0.002,0.040,-0.040,-0.040,0.015,0.994,0.012,0.002,0.000,0.006,0.000,0.000,0.000,0.000,0,2,0,1,7,255,1440,200,0,0,-89.413,0.793,-31.435
EX0521-092111,18,C27,prep,2279,2279,0,907734.092,0.685,-0.676,0.195,0.188,0,0,0,0,0,0,0,0,0,0.000,0,0,0.060,0.002,-0.020,-0.040,-0.040,0.015,0.992,0.011,0.002,0.000,0.006,0.000,0.000,0.000,0.000,0,2,0,1,7,255,1440,200,0,0,-89.413,0.793,-31.435
EX0521-092111,18,C27,prep,2279,2279,0,907739.091,0.685,-0.676,0.195,0.188,0,0,0,0,0,0,0,0,0,0.000,0,0,0.060,0.002,-0.020,-0.040,-0.040,0.015,0.993,0.011,0.002,0.000,-0.004,0.000,0.000,0.000,0.000,0,2,0,1,7,255,1440,200,0,0,-89.413,0.793,-31.435
EX0521-092111,18,C27,prep,2279,2279,0,907744.092,0.685,-0.676,0.195,0.188,0,0,0,0,0,0,0,0,0,0.000,0,0,0.060,0.002,0.040,-0.040,0.020,0.015,0.993,0.012,0.002,0.000,-0.004,0.000,0.000,0.000,0.000,0,2,0,1,7,255,1440,200,0,0,-89.413,0.793,-31.435
EX0521-092111,18,C27,prep,2279,2279,0,907749.091,0.685,-0.676,0.195,0.188,0,0,0,0,0,0,0,0,0,0.000,0,0,0.069,0.004,0.040,-0.040,-0.040,0.015,0.994,0.011,0.004,-0.002,-0.004,0.000,0.000,0.000,0.000,0,2,0,1,7,255,1440,200,0,0,-89.413,0.793,-31.435
EX0521-092111,18,C27,prep,2279,2279,0,907754.092,0.685,-0.676,0.195,0.188,0,0,0,0,0,0,0,0,0,0.000,0,0,0.069,0.002,0.040,-0.040,-0.040,0.014,0.993,0.011,0.000,-0.002,-0.004,0.000,0.000,0.000,0.000,0,2,0,1,7,255,1440,200,0,0,-89.413,0.793,-31.435
EX0521-092111,18,C27,prep,2303,2303,0,907759.091,0.685,-0.676,0.195,0.188,0,0,0,0,0,0,0,0,0,0.000,0,0,0.049,0.002,0.040,0.020,0.020,0.015,0.993,0.011,0.002,0.000,0.002,0.000,0.000,0.000,0.000,0,2,0,1,7,255,1440,200,0,0,-89.413,0.793,-31.435
EX0521-092111,18,C27,prep,2303,2303,0,907764.093,0.685,-0.676,0.195,0.188,0,0,0,0,0,0,0,0,0,0.000,0,0,0.115,0.000,0.040,-0.040,-0.100,0.015,0.994,0.012,0.000,0.000,0.002,0.000,0.000,0.000,0.000,0,2,0,1,7,255,1440,200,0,0,-89.413,0.793,-31.435
EX0521-092111,18,C27,prep,2303,2303,0,907769.091,0.685,-0.676,0.195,0.188,0,0,0,0,0,0,0,0,0,0.000,0,0,0.110,0.002,-0.020,-0.100,-0.040,0.015,0.994,0.011,0.002,0.000,0.006,0.000,0.000,0.000,0.000,0,2,0,1,7,255,1440,200,0,0,-89.413,0.793,-31.435
EX0521-092111,18,C27,prep,2303,2303,0,907774.092,0.685,-0.676,0.195,0.188,0,0,0,0,0,0,0,0,0,0.000,0,0,0.060,0.006,-0.020,-0.040,-0.040,0.014,0.994,0.013,-0.002,-0.006,0.006,0.000,0.000,0.000,0.000,0,2,0,1,7,255,1440,200,0,0,-89.413,0.793,-31.435
EX0521-092111,18,C27,prep,2335,2335,0,907779.091,0.685,-0.676,0.195,0.188,0,0,0,0,0,0,0,0,0,0.000,0,0,0.049,0.002,-0.020,-0.040,0.020,0.014,0.994,0.011,0.000,0.002,0.006,0.000,0.000,0.000,0.000,0,2,0,1,7,255,1440,200,0,0,-89.413,0.793,-31.435
EX0521-092111,18,C27,prep,2335,2335,0,907784.092,0.685,-0.676,0.195,0.188,0,0,0,0,0,0,0,0,0,0.000,0,0,0.069,0.004,0.040,-0.040,-0.040,0.015,0.993,0.012,0.000,-0.004,0.006,0.000,0.000,0.000,0.000,0,2,0,1,7,255,1440,200,0,0,-89.413,0.793,-31.435
EX0521-092111,18,C27,prep,2335,2335,0,907789.091,0.685,-0.676,0.195,0.188,0,0,0,0,0,0,0,0,0,0.000,0,0,0.147,0.008,0.040,-0.100,-0.100,0.014,0.994,0.011,0.000,0.008,0.006,0.000,0.000,0.000,0.000,0,2,0,1,7,255,1440,200,0,0,-89.413,0.793,-31.435
EX0521-092111,18,C27,prep,2335,2335,0,907794.093,0.685,-0.676,0.195,0.188,0,0,0,0,0,0,0,0,0,0.000,0,0,0.069,0.011,0.040,-0.040,-0.040,0.013,0.993,0.010,-0.004,0.010,0.002,0.000,0.000,0.000,0.000,0,2,0,1,7,255,1440,200,0,0,-89.413,0.793,-31.435
EX0521-092111,18,C27,prep,2335,2335,0,907799.091,0.685,-0.676,0.195,0.188,0,0,0,0,0,0,0,0,0,0.000,0,0,0.049,0.011,0.040,0.020,0.020,0.014,0.993,0.012,-0.004,0.010,0.000,0.000,0.000,0.000,0.000,0,2,0,1,7,255,1440,200,0,0,-89.413,0.793,-31.435
EX0521-092111,18,C27,prep,2335,2335,0,907804.092,0.685,-0.676,0.195,0.188,0,0,0,0,0,0,0,0,0,0.000,0,0,0.060,0.004,0.040,0.020,-0.040,0.015,0.993,0.012,-0.004,0.000,0.000,0.000,0.000,0.000,0.000,0,2,0,1,7,255,1440,200,0,0,-89.413,0.793,-31.435
EX0521-092111,18,C27,prep,2368,2368,0,907809.091,0.685,-0.676,0.195,0.188,0,0,0,0,0,0,0,0,0,0.000,0,0,0.060,0.004,-0.020,-0.040,-0.040,0.013,0.993,0.011,-0.004,0.000,-0.004,0.000,0.000,0.000,0.000,0,2,0,1,7,255,1440,200,0,0,-89.413,0.793,-31.435
EX0521-092111,18,C27,prep,2368,2368,0,907814.092,0.685,-0.676,0.195,0.188,0,0,0,0,0,0,0,0,0,0.000,0,0,0.069,0.004,0.040,-0.040,-0.040,0.014,0.994,0.012,-0.004,0.000,-0.004,0.000,0.000,0.000,0.000,0,2,0,1,7,255,1440,200,0,0,-89.413,0.793,-31.435
EX0521-092111,18,C27,prep,2368,2368,0,907819.091,0.685,-0.676,0.195,0.188,0,0,0,0,0,0,0,0,0,0.000,0,0,0.069,0.004,0.040,-0.040,-0.040,0.015,0.993,0.012,-0.004,0.000,0.000,0.000,0.000,0.000,0.000,0,2,0,1,7,255,1440,200,0,0,-89.413,0.793,-31.435
EX0521-092111,18,C27,prep,2368,2368,0,907824.092,0.685,-0.676,0.195,0.188,0,0,0,0,0,0,0,0,0,0.000,0,0,0.060,0.006,-0.020,-0.040,-0.040,0.014,0.993,0.012,-0.004,-0.004,0.000,0.000,0.000,0.000,0.000,0,2,0,1,7,255,1440,200,0,0,-89.413,0.793,-31.435
EX0521-092111,18,C27,prep,2368,2368,0,907829.091,0.685,-0.676,0.195,0.188,0,0,0,0,0,0,0,0,0,0.000,0,0,0.069,0.007,0.040,-0.040,-0.040,0.013,0.993,0.012,-0.006,-0.004,0.000,0.000,0.000,0.000,0.000,0,2,0,1,7,255,1440,200,0,0,-89.413,0.793,-31.435
EX0521-092111,18,C27,prep,2368,2368,0,907834.092,0.685,-0.676,0.195,0.188,0,0,0,0,0,0,0,0,0,0.000,0,0,0.049,0.006,-0.020,-0.040,0.020,0.015,0.992,0.011,-0.006,-0.002,-0.004,0.000,0.000,0.000,0.000,0,2,0,1,7,255,1440,200,0,0,-89.413,0.793,-31.435
EX0521-092111,18,C27,prep,2389,2389,0,907839.092,0.685,-0.676,0.195,0.188,0,0,0,0,0,0,0,0,0,0.000,0,0,0.069,0.004,0.040,-0.040,-0.040,0.014,0.993,0.011,-0.002,0.004,-0.004,0.000,0.000,0.000,0.000,0,2,0,1,7,255,1440,200,0,0,-89.413,0.793,-31.435
EX0521-092111,18,C27,prep,2389,2389,0,907844.091,0.685,-0.676,0.195,0.188,0,0,0,0,0,0,0,0,0,0.000,0,0,0.060,0.002,-0.020,-0.040,-0.040,0.015,0.992,0.012,0.000,-0.002,-0.008,0.000,0.000,0.000,0.000,0,2,0,1,7,255,1440,200,0,0,-89.413,0.793,-31.435
EX0521-092111,18,C27,prep,2389,2389,0,907849.092,0.685,-0.676,0.195,0.188,0,0,0,0,0,0,0,0,0,0.000,0,0,0.069,0.004,0.040,-0.040,-0.040,0.014,0.993,0.011,-0.002,0.004,-0.004,0.000,0.000,0.000,0.000,0,2,0,1,7,255,1440,200,0,0,-89.413,0.793,-31.435
EX0521-092111,18,C27,prep,2389,2389,0,907854.091,0.685,-0.676,0.195,0.188,0,0,0,0,0,0,0,0,0,0.000,0,0,0.069,0.004,0.040,-0.040,-0.040,0.015,0.994,0.012,0.000,-0.004,-0.004,0.000,0.000,0.000,0.000,0,2,0,1,7,255,1440,200,0,0,-89.413,0.793,-31.435
EX0521-092111,18,C27,prep,2399,2399,0,907859.092,0.685,-0.676,0.195,0.188,0,0,0,0,0,0,0,0,0,0.000,0,0,0.060,0.000,-0.020,-0.040,-0.040,0.015,0.994,0.011,0.000,0.000,0.006,0.000,0.000,0.000,0.000,0,2,0,1,7,255,1440,200,0,0,-89.413,0.793,-31.435
EX0521-092111,18,C27,prep,2399,2399,0,907864.091,0.685,-0.676,0.195,0.188,0,0,0,0,0,0,0,0,0,0.000,0,0,0.104,0.000,-0.020,-0.100,0.020,0.014,0.994,0.011,0.000,0.000,0.006,0.000,0.000,0.000,0.000,0,2,0,1,7,255,1440,200,0,0,-89.413,0.793,-31.435
EX0521-092111,18,C27,prep,2399,2399,0,907869.092,0.685,-0.676,0.195,0.188,0,0,0,0,0,0,0,0,0,0.000,0,0,0.060,0.006,0.040,0.020,-0.040,0.014,0.993,0.010,0.002,0.006,0.006,0.000,0.000,0.000,0.000,0,2,0,1,7,255,1440,200,0,0,-89.413,0.793,-31.435
EX0521-092111,18,C27,prep,2399,2399,0,907874.091,0.685,-0.676,0.195,0.188,0,0,0,0,0,0,0,0,0,0.000,0,0,0.060,0.008,-0.020,-0.040,-0.040,0.014,0.993,0.011,-0.006,0.006,-0.004,0.000,0.000,0.000,0.000,0,2,0,1,7,255,1440,200,0,0,-89.413,0.793,-31.435
EX0521-092111,18,C27,prep,2455,2455,0,907879.092,0.685,-0.676,0.195,0.188,0,0,0,0,0,0,0,0,0,0.000,0,0,0.049,0.007,-0.020,-0.040,0.020,0.014,0.992,0.012,-0.004,0.006,-0.004,0.000,0.000,0.000,0.000,0,2,0,1,7,255,1440,200,0,0,-89.414,0.793,-31.435
EX0521-092111,18,C27,prep,2455,2455,0,907884.091,0.685,-0.676,0.195,0.188,0,0,0,0,0,0,0,0,0,0.000,0,0,0.060,0.006,0.040,0.020,-0.040,0.014,0.993,0.012,-0.006,-0.002,-0.004,0.000,0.000,0.000,0.000,0,2,0,1,7,255,1440,200,0,0,-89.414,0.793,-31.435
EX0521-092111,18,C27,prep,2457,2457,0,907889.092,0.685,-0.676,0.195,0.188,0,0,0,0,0,0,0,0,0,0.000,0,0,0.060,0.008,0.040,-0.040,0.020,0.014,0.993,0.012,-0.008,-0.002,-0.004,0.000,0.000,0.000,0.000,0,2,0,1,7,255,1440,200,0,0,-89.414,0.793,-31.435
EX0521-092111,18,C27,prep,2457,2457,0,907894.093,0.685,-0.676,0.195,0.188,0,0,0,0,0,0,0,0,0,0.000,0,0,0.049,0.008,0.040,0.020,0.020,0.015,0.992,0.013,-0.008,-0.002,-0.004,0.000,0.000,0.000,0.000,0,2,0,1,7,255,1440,200,0,0,-89.414,0.793,-31.435
EX0521-092111,18,C27,prep,2457,2457,0,907899.092,0.685,-0.676,0.195,0.188,0,0,0,0,0,0,0,0,0,0.000,0,0,0.049,0.008,-0.020,-0.040,0.020,0.014,0.993,0.012,-0.006,-0.006,-0.004,0.000,0.000,0.000,0.000,0,2,0,1,7,255,1440,200,0,0,-89.414,0.793,-31.435
EX0521-092111,18,C27,prep,2457,2457,0,907904.091,0.685,-0.676,0.195,0.188,0,0,0,0,0,0,0,0,0,0.000,0,0,0.049,0.008,-0.020,0.020,-0.040,0.013,0.993,0.011,-0.006,-0.006,-0.004,0.000,0.000,0.000,0.000,0,2,0,1,7,255,1440,200,0,0,-89.414,0.793,-31.435
EX0521-092111,18,C27,prep,2457,2457,0,907909.092,0.685,-0.676,0.195,0.188,0,0,0,0,0,0,0,0,0,0.000,0,0,0.069,0.010,0.040,-0.040,-0.040,0.013,0.993,0.011,-0.006,0.008,-0.004,0.000,0.000,0.000,0.000,0,2,0,1,7,255,1440,200,0,0,-89.414,0.793,-31.435
EX0521-092111,18,C27,prep,2457,2457,0,907914.091,0.685,-0.676,0.195,0.188,0,0,0,0,0,0,0,0,0,0.000,0,0,0.060,0.010,-0.020,-0.040,-0.040,0.015,0.994,0.012,-0.006,0.008,-0.004,0.000,0.000,0.000,0.000,0,2,0,1,7,255,1440,200,0,0,-89.414,0.793,-31.435
EX0521-092111,18,C27,prep,2457,2457,0,907919.092,0.685,-0.676,0.195,0.188,0,0,0,0,0,0,0,0,0,0.000,0,0,0.049,0.006,-0.020,-0.040,0.020,0.013,0.993,0.012,-0.006,0.000,-0.004,0.000,0.000,0.000,0.000,0,2,0,1,7,255,1440,200,0,0,-89.414,0.793,-31.435
EX0521-092111,18,C27,prep,2457,2457,0,907924.091,0.685,-0.676,0.195,0.188,0,0,0,0,0,0,0,0,0,0.000,0,0,0.069,0.002,0.040,-0.040,-0.040,0.014,0.993,0.011,-0.002,0.000,-0.004,0.000,0.000,0.000,0.000,0,2,0,1,7,255,1440,200,0,0,-89.414,0.793,-31.435
