experiment_id,condition_order_index,condition_id,condition_phase,condition_phase_elapsed_ms,condition_elapsed_ms,is_stimulation_on,t_ms,R_q0,R_q1,R_q2,R_q3,R_heel1,R_mid1,R_fore1,R_heel2,R_fore3,R_mid2,R_fore4,R_fore2,R_cadence,R_speed,R_steps,R_zupt,R_gyroNorm,R_accH,R_gyro_x,R_gyro_y,R_gyro_z,R_acc_x,R_acc_y,R_acc_z,R_nav_ax,R_nav_ay,R_nav_az,R_stepVel,R_stepVelj,R_stepDispRaw,R_stepDispZUPT,R_gaitEvent,R_motorMode,R_motorActive,R_motorAlignment,R_motorRegionMask,R_motorAmplitude,R_motorIntervalMs,R_motorDurationMs,R_motorPhaseMs,R_motorCycleMs,R_roll,R_pitch,R_yaw
EX0521-092111,25,C07,prep,30,30,0,1215909.091,0.686,-0.675,0.196,0.188,0,0,0,0,0,0,0,0,0,0.000,0,0,0.471,0.028,0.460,-0.020,-0.100,0.014,0.990,0.012,0.014,0.024,0.032,0.000,0.000,0.000,0.000,0,2,0,3,7,255,960,200,0,0,-89.360,0.846,-31.485
EX0521-092111,25,C07,prep,30,30,0,1215914.092,0.686,-0.675,0.196,0.188,0,0,0,0,0,0,0,0,0,0.000,0,0,0.350,0.007,-0.340,-0.020,0.080,0.014,0.992,0.015,-0.004,-0.006,-0.010,0.000,0.000,0.000,0.000,0,2,0,3,7,255,960,200,0,0,-89.360,0.846,-31.485
EX0521-092111,25,C07,prep,30,30,0,1215919.092,0.686,-0.675,0.196,0.188,0,0,0,0,0,0,0,0,0,0.000,0,0,0.060,0.007,-0.040,-0.020,-0.040,0.014,1.001,0.007,-0.004,-0.006,-0.010,0.000,0.000,0.000,0.000,0,2,0,3,7,255,960,200,0,0,-89.360,0.846,-31.485
EX0521-092111,25,C07,prep,30,30,0,1215924.092,0.686,-0.675,0.196,0.188,0,0,0,0,0,0,0,0,0,0.000,0,0,0.279,0.006,0.260,-0.020,-0.100,0.015,0.989,0.011,0.006,0.000,-0.010,0.000,0.000,0.000,0.000,0,2,0,3,7,255,960,200,0,0,-89.360,0.846,-31.485
EX0521-092111,25,C07,prep,31,31,0,1215929.092,0.686,-0.675,0.196,0.188,0,0,0,0,0,0,0,0,0,0.000,0,0,0.539,0.006,-0.520,-0.020,0.140,0.013,0.992,0.014,0.006,0.000,-0.016,0.000,0.000,0.000,0.000,0,2,0,3,7,255,960,200,0,0,-89.360,0.846,-31.485
EX0521-092111,25,C07,prep,31,31,0,1215934.091,0.686,-0.675,0.196,0.188,0,0,0,0,0,0,0,0,0,0.000,0,0,0.540,0.006,0.460,0.040,-0.280,0.012,0.999,0.009,-0.006,0.000,-0.016,0.000,0.000,0.000,0.000,0,2,0,3,7,255,960,200,0,0,-89.360,0.846,-31.485
EX0521-092111,25,C07,prep,31,31,0,1215939.091,0.686,-0.675,0.196,0.188,0,0,0,0,0,0,0,0,0,0.000,0,0,0.092,0.013,-0.040,-0.020,0.080,0.015,0.985,0.014,-0.006,-0.012,-0.016,0.000,0.000,0.000,0.000,0,2,0,3,7,255,960,200,0,0,-89.360,0.846,-31.485
EX0521-092111,25,C07,prep,31,31,0,1215944.092,0.686,-0.675,0.196,0.188,0,0,0,0,0,0,0,0,0,0.000,0,0,0.563,0.006,-0.520,-0.080,0.200,0.014,0.999,0.012,-0.004,-0.004,0.050,0.000,0.000,0.000,0.000,0,2,0,3,7,255,960,200,0,0,-89.360,0.846,-31.485
EX0521-092111,25,C07,prep,47,47,0,1215949.091,0.686,-0.675,0.196,0.188,0,0,0,0,0,0,0,0,0,0.000,0,0,1.156,0.004,1.060,0.040,-0.460,0.015,0.991,0.011,-0.002,-0.004,-0.024,0.000,0.000,0.000,0.000,0,2,0,3,7,255,960,200,0,0,-89.365,0.846,-31.485
EX0521-092111,25,C07,prep,47,47,0,1215954.092,0.686,-0.675,0.196,0.188,0,0,0,0,0,0,0,0,0,0.000,0,0,1.327,0.004,-1.200,-0.080,0.560,0.013,0.993,0.011,-0.004,-0.002,-0.006,0.000,0.000,0.000,0.000,0,2,0,3,7,255,960,200,0,0,-89.359,0.846,-31.485
EX0521-092111,25,C07,prep,47,47,0,1215959.093,0.686,-0.675,0.196,0.188,0,0,0,0,0,0,0,0,0,0.000,0,0,0.976,0.003,0.880,0.040,-0.420,0.014,0.996,0.012,-0.002,-0.002,-0.006,0.000,0.000,0.000,0.000,0,2,0,3,7,255,960,200,0,0,-89.364,0.846,-31.485
EX0521-092111,25,C07,prep,47,47,0,1215964.092,0.686,-0.675,0.196,0.188,0,0,0,0,0,0,0,0,0,0.000,0,0,0.675,0.003,-0.640,-0.080,0.200,0.014,0.989,0.011,-0.002,0.002,-0.006,0.000,0.000,0.000,0.000,0,2,0,3,7,255,960,200,0,0,-89.360,0.846,-31.485
EX0521-092111,25,C07,prep,63,63,0,1215969.092,0.686,-0.675,0.196,0.188,0,0,0,0,0,0,0,0,0,0.000,0,0,0.264,0.002,0.260,-0.020,-0.040,0.015,0.997,0.012,0.000,-0.002,0.022,0.000,0.000,0.000,0.000,0,2,0,3,7,255,960,200,0,0,-89.360,0.846,-31.485
EX0521-092111,25,C07,prep,63,63,0,1215974.091,0.686,-0.675,0.196,0.188,0,0,0,0,0,0,0,0,0,0.000,0,0,0.115,0.003,-0.040,0.040,-0.100,0.014,0.992,0.010,0.002,0.002,-0.010,0.000,0.000,0.000,0.000,0,2,0,3,7,255,960,200,0,0,-89.360,0.846,-31.485
EX0521-092111,25,C07,prep,81,81,0,1215979.091,0.686,-0.675,0.196,0.188,0,0,0,0,0,0,0,0,0,0.000,0,0,0.235,0.006,-0.100,-0.160,0.140,0.015,0.993,0.013,0.002,-0.006,-0.006,0.000,0.000,0.000,0.000,0,2,0,3,7,255,960,200,0,0,-89.360,0.846,-31.485
EX0521-092111,25,C07,prep,81,81,0,1215984.091,0.686,-0.675,0.196,0.188,0,0,0,0,0,0,0,0,0,0.000,0,0,0.612,0.018,0.520,0.160,-0.280,0.014,0.994,0.009,0.004,0.018,-0.006,0.000,0.000,0.000,0.000,0,2,0,3,7,255,960,200,0,0,-89.360,0.846,-31.485
EX0521-092111,25,C07,prep,81,81,0,1215989.092,0.686,-0.675,0.196,0.188,0,0,0,0,0,0,0,0,0,0.000,0,0,0.764,0.014,-0.700,-0.160,0.260,0.015,0.992,0.014,0.002,-0.014,-0.006,0.000,0.000,0.000,0.000,0,2,0,3,7,255,960,200,0,0,-89.357,0.846,-31.485
EX0521-092111,25,C07,prep,81,81,0,1215994.092,0.686,-0.675,0.196,0.188,0,0,0,0,0,0,0,0,0,0.000,0,0,0.590,0.006,0.580,0.040,-0.100,0.014,0.993,0.011,-0.002,0.006,-0.006,0.000,0.000,0.000,0.000,0,2,0,3,7,255,960,200,0,0,-89.357,0.846,-31.485
EX0521-092111,25,C07,prep,111,111,0,1215999.092,0.686,-0.675,0.196,0.188,0,0,0,0,0,0,0,0,0,0.000,0,0,0.290,0.006,-0.220,0.100,-0.160,0.015,0.995,0.009,-0.002,0.006,-0.006,0.000,0.000,0.000,0.000,0,2,0,3,7,255,960,200,0,0,-89.357,0.846,-31.485
EX0521-092111,25,C07,prep,111,111,0,1216004.093,0.686,-0.675,0.196,0.188,0,0,0,0,0,0,0,0,0,0.000,0,0,0.498,0.006,-0.400,-0.220,0.200,0.014,0.993,0.014,-0.002,0.006,-0.006,0.000,0.000,0.000,0.000,0,2,0,3,7,255,960,200,0,0,-89.357,0.846,-31.485
EX0521-092111,25,C07,prep,111,111,0,1216009.091,0.686,-0.675,0.196,0.188,0,0,0,0,0,0,0,0,0,0.000,0,0,1.263,0.007,1.180,0.160,-0.420,0.014,0.993,0.011,0.004,0.006,-0.002,0.000,0.000,0.000,0.000,0,2,0,3,7,255,960,200,0,0,-89.363,0.846,-31.485
EX0521-092111,25,C07,prep,111,111,0,1216014.091,0.686,-0.675,0.196,0.188,0,0,0,0,0,0,0,0,0,0.000,0,0,1.202,0.007,-1.140,-0.020,0.380,0.014,0.995,0.010,0.004,0.006,-0.002,0.000,0.000,0.000,0.000,0,2,0,3,7,255,960,200,0,0,-89.357,0.846,-31.485
EX0521-092111,25,C07,prep,111,111,0,1216019.091,0.686,-0.675,0.196,0.188,0,0,0,0,0,0,0,0,0,0.000,0,0,0.166,0.007,0.020,-0.160,-0.040,0.014,0.992,0.016,0.004,0.006,-0.002,0.000,0.000,0.000,0.000,0,2,0,3,7,255,960,200,0,0,-89.357,0.846,-31.485
EX0521-092111,25,C07,prep,111,111,0,1216024.091,0.686,-0.675,0.196,0.188,0,0,0,0,0,0,0,0,0,0.000,0,0,1.468,0.004,1.420,0.100,-0.360,0.015,0.991,0.011,0.004,0.002,-0.014,0.000,0.000,0.000,0.000,0,2,0,3,7,255,960,200,0,0,-89.364,0.846,-31.485
EX0521-092111,25,C07,prep,127,127,0,1216029.092,0.686,-0.675,0.196,0.188,0,0,0,0,0,0,0,0,0,0.000,0,0,1.317,0.006,-1.260,0.040,0.380,0.013,0.999,0.008,0.006,0.002,-0.014,0.000,0.000,0.000,0.000,0,2,0,3,7,255,960,200,0,0,-89.358,0.846,-31.485
EX0521-092111,25,C07,prep,127,127,0,1216034.092,0.686,-0.675,0.196,0.188,0,0,0,0,0,0,0,0,0,0.000,0,0,0.245,0.006,-0.220,-0.100,-0.040,0.015,0.991,0.016,0.006,0.002,-0.020,0.000,0.000,0.000,0.000,0,2,0,3,7,255,960,200,0,0,-89.358,0.846,-31.485
EX0521-092111,25,C07,prep,127,127,0,1216039.092,0.686,-0.675,0.196,0.188,0,0,0,0,0,0,0,0,0,0.000,0,0,1.072,0.006,1.060,-0.020,-0.160,0.015,0.988,0.012,0.004,-0.004,-0.020,0.000,0.000,0.000,0.000,0,2,0,3,7,255,960,200,0,0,-89.363,0.846,-31.485
EX0521-092111,25,C07,prep,127,127,0,1216044.092,0.686,-0.675,0.196,0.188,0,0,0,0,0,0,0,0,0,0.000,0,0,0.115,0.006,-0.040,0.040,-0.100,0.013,0.999,0.005,0.004,-0.004,-0.020,0.000,0.000,0.000,0.000,0,2,0,3,7,255,960,200,0,0,-89.369,0.846,-31.485
EX0521-092111,25,C07,prep,144,144,0,1216049.091,0.686,-0.675,0.196,0.188,0,0,0,0,0,0,0,0,0,0.000,0,0,1.228,0.006,-1.200,0.040,0.260,0.015,0.988,0.015,0.004,-0.004,-0.048,0.000,0.000,0.000,0.000,0,2,0,3,7,255,960,200,0,0,-89.363,0.846,-31.485
EX0521-092111,25,C07,prep,144,144,0,1216054.091,0.686,-0.675,0.196,0.188,0,0,0,0,0,0,0,0,0,0.000,0,0,0.642,0.016,0.640,-0.020,-0.040,0.014,0.994,0.013,-0.008,-0.014,0.004,0.000,0.000,0.000,0.000,0,2,0,3,7,255,960,200,0,0,-89.366,0.846,-31.485
EX0521-092111,25,C07,prep,159,159,0,1216059.091,0.686,-0.675,0.196,0.188,0,0,0,0,0,0,0,0,0,0.000,0,0,1.116,0.016,1.060,-0.080,-0.340,0.013,0.996,0.008,-0.008,-0.014,0.004,0.000,0.000,0.000,0.000,0,2,0,3,7,255,960,200,0,0,-89.371,0.846,-31.485
EX0521-092111,25,C07,prep,159,159,0,1216064.093,0.686,-0.675,0.196,0.188,0,0,0,0,0,0,0,0,0,0.000,0,0,1.776,0.004,-1.680,-0.140,0.560,0.015,0.992,0.012,0.002,-0.004,0.004,0.000,0.000,0.000,0.000,0,2,0,3,7,255,960,200,0,0,-89.363,0.846,-31.485
EX0521-092111,25,C07,prep,159,159,0,1216069.092,0.686,-0.675,0.196,0.188,0,0,0,0,0,0,0,0,0,0.000,0,0,0.548,0.004,0.460,0.100,-0.280,0.015,0.993,0.014,0.002,-0.004,0.000,0.000,0.000,0.000,0.000,0,2,0,3,7,255,960,200,0,0,-89.363,0.846,-31.485
EX0521-092111,25,C07,prep,159,159,0,1216074.092,0.686,-0.675,0.196,0.188,0,0,0,0,0,0,0,0,0,0.000,0,0,0.463,0.004,0.460,0.040,-0.040,0.015,0.992,0.009,0.002,-0.004,-0.016,0.000,0.000,0.000,0.000,0,2,0,3,7,255,960,200,0,0,-89.363,0.846,-31.485
EX0521-092111,25,C07,prep,177,177,0,1216079.092,0.686,-0.675,0.196,0.188,0,0,0,0,0,0,0,0,0,0.000,0,0,0.602,0.017,-0.580,-0.080,0.140,0.015,0.997,0.010,0.012,0.012,0.000,0.000,0.000,0.000,0.000,0,2,0,3,7,255,960,200,0,0,-89.360,0.846,-31.485
EX0521-092111,25,C07,prep,177,177,0,1216084.091,0.686,-0.675,0.196,0.188,0,0,0,0,0,0,0,0,0,0.000,0,0,0.120,0.017,0.080,-0.080,-0.040,0.014,0.991,0.014,0.012,0.012,-0.016,0.000,0.000,0.000,0.000,0,2,0,3,7,255,960,200,0,0,-89.360,0.846,-31.485
EX0521-092111,25,C07,prep,215,215,0,1216089.091,0.686,-0.675,0.196,0.188,0,0,0,0,0,0,0,0,0,0.000,0,0,0.523,0.017,0.520,0.040,-0.040,0.012,0.992,0.011,-0.012,0.012,-0.016,0.000,0.000,0.000,0.000,0,2,0,3,7,255,960,200,0,0,-89.360,0.846,-31.485
EX0521-092111,25,C07,prep,215,215,0,1216094.091,0.686,-0.675,0.196,0.188,0,0,0,0,0,0,0,0,0,0.000,0,0,0.224,0.017,-0.220,-0.020,-0.040,0.013,0.996,0.010,-0.012,0.012,-0.016,0.000,0.000,0.000,0.000,0,2,0,3,7,255,960,200,0,0,-89.360,0.846,-31.485
EX0521-092111,25,C07,prep,215,215,0,1216099.091,0.686,-0.675,0.196,0.188,0,0,0,0,0,0,0,0,0,0.000,0,0,0.350,0.016,-0.340,-0.020,0.080,0.014,0.990,0.014,-0.010,0.012,-0.016,0.000,0.000,0.000,0.000,0,2,0,3,7,255,960,200,0,0,-89.360,0.846,-31.485
EX0521-092111,25,C07,prep,215,215,0,1216104.093,0.686,-0.675,0.196,0.188,0,0,0,0,0,0,0,0,0,0.000,0,0,0.472,0.010,0.460,0.040,-0.100,0.013,0.994,0.011,-0.006,0.008,0.004,0.000,0.000,0.000,0.000,0,2,0,3,7,255,960,200,0,0,-89.360,0.846,-31.485
EX0521-092111,25,C07,prep,215,215,0,1216109.092,0.686,-0.675,0.196,0.188,0,0,0,0,0,0,0,0,0,0.000,0,0,0.060,0.010,-0.040,-0.020,-0.040,0.014,0.993,0.010,-0.006,0.008,0.000,0.000,0.000,0.000,0.000,0,2,0,3,7,255,960,200,0,0,-89.360,0.846,-31.485
EX0521-092111,25,C07,prep,215,215,0,1216114.092,0.686,-0.675,0.196,0.188,0,0,0,0,0,0,0,0,0,0.000,0,0,0.544,0.008,-0.520,-0.080,0.140,0.015,0.991,0.013,-0.002,0.008,0.000,0.000,0.000,0.000,0.000,0,2,0,3,7,255,960,200,0,0,-89.360,0.846,-31.485
EX0521-092111,25,C07,prep,216,216,0,1216119.092,0.686,-0.675,0.196,0.188,0,0,0,0,0,0,0,0,0,0.000,0,0,0.530,0.003,0.520,-0.020,-0.100,0.013,0.995,0.012,-0.002,0.002,0.000,0.000,0.000,0.000,0.000,0,2,0,3,7,255,960,200,0,0,-89.360,0.846,-31.485
EX0521-092111,25,C07,prep,216,216,0,1216124.091,0.686,-0.675,0.196,0.188,0,0,0,0,0,0,0,0,0,0.000,0,0,0.085,0.003,0.080,-0.020,0.020,0.015,0.992,0.010,-0.002,0.002,-0.010,0.000,0.000,0.000,0.000,0,2,0,3,7,255,960,200,0,0,-89.360,0.846,-31.485
EX0521-092111,25,C07,prep,216,216,0,1216129.091,0.686,-0.675,0.196,0.188,0,0,0,0,0,0,0,0,0,0.000,0,0,0.526,0.002,-0.520,-0.020,0.080,0.015,0.993,0.012,0.000,0.002,0.000,0.000,0.000,0.000,0.000,0,2,0,3,7,255,960,200,0,0,-89.360,0.846,-31.485
EX0521-092111,25,C07,prep,216,216,0,1216134.091,0.686,-0.675,0.196,0.188,0,0,0,0,0,0,0,0,0,0.000,0,0,0.281,0.008,0.260,0.040,-0.100,0.015,0.992,0.013,0.002,-0.008,-0.010,0.000,0.000,0.000,0.000,0,2,0,3,7,255,960,200,0,0,-89.360,0.846,-31.485
EX0521-092111,25,C07,prep,223,223,0,1216139.092,0.686,-0.675,0.196,0.188,0,0,0,0,0,0,0,0,0,0.000,0,0,0.205,0.008,0.200,-0.020,-0.040,0.014,0.993,0.010,0.002,-0.008,0.000,0.000,0.000,0.000,0.000,0,2,0,3,7,255,960,200,0,0,-89.360,0.846,-31.485
EX0521-092111,25,C07,prep,223,223,0,1216144.092,0.686,-0.675,0.196,0.188,0,0,0,0,0,0,0,0,0,0.000,0,0,0.314,0.008,-0.280,-0.140,0.020,0.014,0.994,0.013,0.002,-0.008,0.000,0.000,0.000,0.000,0.000,0,2,0,3,7,255,960,200,0,0,-89.360,0.846,-31.485
EX0521-092111,25,C07,prep,248,248,0,1216149.092,0.686,-0.675,0.196,0.188,0,0,0,0,0,0,0,0,0,0.000,0,0,0.162,0.012,0.140,-0.080,0.020,0.013,0.990,0.013,-0.010,-0.006,0.000,0.000,0.000,0.000,0.000,0,2,0,3,7,255,960,200,0,0,-89.360,0.846,-31.485
EX0521-092111,25,C07,prep,248,248,0,1216154.092,0.686,-0.675,0.196,0.188,0,0,0,0,0,0,0,0,0,0.000,0,0,0.264,0.012,0.260,-0.020,-0.040,0.015,0.995,0.010,-0.010,-0.006,0.004,0.000,0.000,0.000,0.000,0,2,0,3,7,255,960,200,0,0,-89.360,0.846,-31.485
EX0521-092111,25,C07,prep,248,248,0,1216159.093,0.686,-0.675,0.196,0.188,0,0,0,0,0,0,0,0,0,0.000,0,0,0.286,0.008,-0.280,0.040,-0.040,0.014,0.993,0.010,0.006,0.006,0.000,0.000,0.000,0.000,0.000,0,2,0,3,7,255,960,200,0,0,-89.360,0.846,-31.485
EX0521-092111,25,C07,prep,248,248,0,1216164.091,0.686,-0.675,0.196,0.188,0,0,0,0,0,0,0,0,0,0.000,0,0,0.162,0.008,-0.160,-0.020,0.020,0.015,0.993,0.013,0.006,0.006,0.000,0.000,0.000,0.000,0.000,0,2,0,3,7,255,960,200,0,0,-89.360,0.846,-31.485
EX0521-092111,25,C07,prep,257,257,0,1216169.091,0.686,-0.675,0.196,0.188,0,0,0,0,0,0,0,0,0,0.000,0,0,0.338,0.003,0.320,0.040,-0.100,0.014,0.994,0.011,0.002,0.002,0.000,0.000,0.000,0.000,0.000,0,2,0,3,7,255,960,200,0,0,-89.360,0.846,-31.485
EX0521-092111,25,C07,prep,257,257,0,1216174.091,0.686,-0.675,0.196,0.188,0,0,0,0,0,0,0,0,0,0.000,0,0,0.104,0.002,-0.100,-0.020,0.020,0.013,0.993,0.010,0.000,0.002,0.000,0.000,0.000,0.000,0.000,0,2,0,3,7,255,960,200,0,0,-89.360,0.846,-31.485
EX0521-092111,25,C07,prep,273,273,0,1216179.092,0.686,-0.675,0.196,0.188,0,0,0,0,0,0,0,0,0,0.000,0,0,0.235,0.003,-0.220,-0.080,0.020,0.015,0.994,0.013,0.002,0.002,0.004,0.000,0.000,0.000,0.000,0,2,0,3,7,255,960,200,0,0,-89.360,0.846,-31.485
EX0521-092111,25,C07,prep,273,273,0,1216184.092,0.686,-0.675,0.196,0.188,0,0,0,0,0,0,0,0,0,0.000,0,0,0.395,0.004,0.380,0.040,-0.100,0.015,0.994,0.011,0.002,0.004,0.004,0.000,0.000,0.000,0.000,0,2,0,3,7,255,960,200,0,0,-89.360,0.846,-31.485
EX0521-092111,25,C07,prep,310,310,0,1216189.092,0.686,-0.675,0.196,0.188,0,0,0,0,0,0,0,0,0,0.000,0,0,0.104,0.006,-0.100,-0.020,0.020,0.014,0.994,0.010,0.004,0.004,0.004,0.000,0.000,0.000,0.000,0,2,0,3,7,255,960,200,0,0,-89.360,0.846,-31.485
EX0521-092111,25,C07,prep,310,310,0,1216194.092,0.686,-0.675,0.196,0.188,0,0,0,0,0,0,0,0,0,0.000,0,0,0.341,0.006,-0.340,-0.020,0.020,0.014,0.994,0.012,0.004,0.004,0.004,0.000,0.000,0.000,0.000,0,2,0,3,7,255,960,200,0,0,-89.360,0.846,-31.485
EX0521-092111,25,C07,prep,310,310,0,1216199.091,0.686,-0.675,0.196,0.188,0,0,0,0,0,0,0,0,0,0.000,0,0,0.224,0.006,0.200,-0.020,-0.100,0.015,0.992,0.013,0.002,-0.006,0.004,0.000,0.000,0.000,0.000,0,2,0,3,7,255,960,200,0,0,-89.360,0.846,-31.485
EX0521-092111,25,C07,prep,310,310,0,1216204.093,0.686,-0.675,0.196,0.188,0,0,0,0,0,0,0,0,0,0.000,0,0,0.092,0.006,0.080,0.040,0.020,0.014,0.995,0.011,-0.002,-0.006,0.004,0.000,0.000,0.000,0.000,0,2,0,3,7,255,960,200,0,0,-89.360,0.846,-31.485
EX0521-092111,25,C07,prep,348,348,0,1216209.091,0.686,-0.675,0.196,0.188,0,0,0,0,0,0,0,0,0,0.000,0,0,0.222,0.006,-0.220,-0.020,0.020,0.014,0.993,0.012,-0.002,-0.006,0.000,0.000,0.000,0.000,0.000,0,2,0,3,7,255,960,200,0,0,-89.360,0.846,-31.485
EX0521-092111,25,C07,prep,348,348,0,1216214.092,0.686,-0.675,0.196,0.188,0,0,0,0,0,0,0,0,0,0.000,0,0,0.085,0.007,0.080,-0.020,0.020,0.014,0.993,0.013,-0.004,-0.006,0.000,0.000,0.000,0.000,0.000,0,2,0,3,7,255,960,200,0,0,-89.360,0.846,-31.485
EX0521-092111,25,C07,prep,348,348,0,1216219.092,0.686,-0.675,0.196,0.188,0,0,0,0,0,0,0,0,0,0.000,0,0,0.205,0.007,0.200,-0.020,-0.040,0.014,0.995,0.010,-0.004,-0.006,0.000,0.000,0.000,0.000,0.000,0,2,0,3,7,255,960,200,0,0,-89.360,0.846,-31.485
EX0521-092111,25,C07,prep,348,348,0,1216224.092,0.686,-0.675,0.196,0.188,0,0,0,0,0,0,0,0,0,0.000,0,0,0.284,0.008,-0.280,-0.020,-0.040,0.014,0.993,0.011,0.000,0.008,-0.006,0.000,0.000,0.000,0.000,0,2,0,3,7,255,960,200,0,0,-89.360,0.846,-31.485
EX0521-092111,25,C07,prep,348,348,0,1216229.092,0.686,-0.675,0.196,0.188,0,0,0,0,0,0,0,0,0,0.000,0,0,0.060,0.008,-0.040,0.040,0.020,0.015,0.992,0.013,0.000,0.008,-0.006,0.000,0.000,0.000,0.000,0,2,0,3,7,255,960,200,0,0,-89.360,0.846,-31.485
EX0521-092111,25,C07,prep,348,348,0,1216234.092,0.686,-0.675,0.196,0.188,0,0,0,0,0,0,0,0,0,0.000,0,0,0.281,0.008,0.260,0.040,-0.100,0.015,0.993,0.010,0.000,0.008,-0.006,0.000,0.000,0.000,0.000,0,2,0,3,7,255,960,200,0,0,-89.360,0.846,-31.485
EX0521-092111,25,C07,prep,348,348,0,1216239.091,0.686,-0.675,0.196,0.188,0,0,0,0,0,0,0,0,0,0.000,0,0,0.115,0.003,-0.100,0.040,-0.040,0.014,0.993,0.011,0.002,0.002,-0.006,0.000,0.000,0.000,0.000,0,2,0,3,7,255,960,200,0,0,-89.360,0.846,-31.485
EX0521-092111,25,C07,prep,348,348,0,1216244.092,0.686,-0.675,0.196,0.188,0,0,0,0,0,0,0,0,0,0.000,0,0,0.104,0.003,-0.100,-0.020,0.020,0.015,0.993,0.012,0.002,0.002,-0.006,0.000,0.000,0.000,0.000,0,2,0,3,7,255,960,200,0,0,-89.360,0.846,-31.485
EX0521-092111,25,C07,prep,348,348,0,1216249.091,0.686,-0.675,0.196,0.188,0,0,0,0,0,0,0,0,0,0.000,0,0,0.264,0.002,0.260,-0.020,-0.040,0.014,0.993,0.012,0.000,-0.002,0.000,0.000,0.000,0.000,0.000,0,2,0,3,7,255,960,200,0,0,-89.360,0.846,-31.485
EX0521-092111,25,C07,prep,348,348,0,1216254.092,0.686,-0.675,0.196,0.188,0,0,0,0,0,0,0,0,0,0.000,0,0,0.049,0.002,-0.040,-0.020,0.020,0.014,0.995,0.011,0.000,-0.002,0.000,0.000,0.000,0.000,0.000,0,2,0,3,7,255,960,200,0,0,-89.360,0.846,-31.485
EX0521-092111,25,C07,prep,352,352,0,1216259.092,0.686,-0.675,0.196,0.188,0,0,0,0,0,0,0,0,0,0.000,0,0,0.222,0.003,-0.220,-0.020,0.020,0.015,0.993,0.012,0.002,-0.002,0.000,0.000,0.000,0.000,0.000,0,2,0,3,7,255,960,200,0,0,-89.360,0.846,-31.485
EX0521-092111,25,C07,prep,352,352,0,1216264.092,0.686,-0.675,0.196,0.188,0,0,0,0,0,0,0,0,0,0.000,0,0,0.147,0.006,0.140,-0.020,-0.040,0.015,0.994,0.012,0.004,-0.004,0.004,0.000,0.000,0.000,0.000,0,2,0,3,7,255,960,200,0,0,-89.360,0.846,-31.485
EX0521-092111,25,C07,prep,367,367,0,1216269.092,0.686,-0.675,0.196,0.188,0,0,0,0,0,0,0,0,0,0.000,0,0,0.049,0.007,-0.040,-0.020,0.020,0.015,0.994,0.011,0.006,-0.004,0.004,0.000,0.000,0.000,0.000,0,2,0,3,7,255,960,200,0,0,-89.360,0.846,-31.485
EX0521-092111,25,C07,prep,367,367,0,1216274.091,0.686,-0.675,0.196,0.188,0,0,0,0,0,0,0,0,0,0.000,0,0,0.180,0.006,-0.160,-0.080,0.020,0.014,0.993,0.012,0.006,-0.002,0.004,0.000,0.000,0.000,0.000,0,2,0,3,7,255,960,200,0,0,-89.360,0.846,-31.485
EX0521-092111,25,C07,prep,367,367,0,1216279.091,0.686,-0.675,0.196,0.188,0,0,0,0,0,0,0,0,0,0.000,0,0,0.166,0.006,0.140,-0.080,-0.040,0.014,0.994,0.013,-0.006,-0.002,0.008,0.000,0.000,0.000,0.000,0,2,0,3,7,255,960,200,0,0,-89.360,0.846,-31.485
EX0521-092111,25,C07,prep,367,367,0,1216284.091,0.686,-0.675,0.196,0.188,0,0,0,0,0,0,0,0,0,0.000,0,0,0.151,0.006,0.140,0.040,-0.040,0.015,0.995,0.011,-0.006,-0.002,0.008,0.000,0.000,0.000,0.000,0,2,0,3,7,255,960,200,0,0,-89.360,0.846,-31.485
EX0521-092111,25,C07,prep,383,383,0,1216289.091,0.686,-0.675,0.196,0.188,0,0,0,0,0,0,0,0,0,0.000,0,0,0.162,0.006,-0.160,-0.020,0.020,0.014,0.992,0.012,-0.006,0.000,0.008,0.000,0.000,0.000,0.000,0,2,0,3,7,255,960,200,0,0,-89.360,0.847,-31.485
EX0521-092111,25,C07,prep,383,383,0,1216294.092,0.686,-0.675,0.196,0.188,0,0,0,0,0,0,0,0,0,0.000,0,0,0.060,0.004,0.020,0.040,-0.040,0.014,0.993,0.012,-0.004,0.000,0.000,0.000,0.000,0.000,0.000,0,2,0,3,7,255,960,200,0,0,-89.360,0.847,-31.485
EX0521-092111,25,C07,prep,415,415,0,1216299.092,0.686,-0.675,0.196,0.188,0,0,0,0,0,0,0,0,0,0.000,0,0,0.151,0.004,0.140,0.040,-0.040,0.014,0.994,0.011,-0.004,0.002,0.000,0.000,0.000,0.000,0.000,0,2,0,3,7,255,960,200,0,0,-89.360,0.847,-31.485
EX0521-092111,25,C07,prep,415,415,0,1216304.093,0.686,-0.675,0.196,0.188,0,0,0,0,0,0,0,0,0,0.000,0,0,0.130,0.003,-0.100,-0.080,0.020,0.014,0.993,0.012,-0.002,-0.002,0.000,0.000,0.000,0.000,0.000,0,2,0,3,7,255,960,200,0,0,-89.360,0.847,-31.485
EX0521-092111,25,C07,prep,415,415,0,1216309.091,0.686,-0.675,0.196,0.188,0,0,0,0,0,0,0,0,0,0.000,0,0,0.120,0.003,0.080,-0.080,-0.040,0.014,0.993,0.012,-0.002,-0.002,0.000,0.000,0.000,0.000,0.000,0,2,0,3,7,255,960,200,0,0,-89.360,0.847,-31.485
EX0521-092111,25,C07,prep,415,415,0,1216314.091,0.686,-0.675,0.196,0.188,0,0,0,0,0,0,0,0,0,0.000,0,0,0.205,0.003,0.200,-0.020,-0.040,0.014,0.994,0.012,-0.002,-0.002,0.000,0.000,0.000,0.000,0.000,0,2,0,3,7,255,960,200,0,0,-89.360,0.847,-31.485
EX0521-092111,25,C07,prep,415,415,0,1216319.091,0.686,-0.675,0.196,0.188,0,0,0,0,0,0,0,0,0,0.000,0,0,0.104,0.003,-0.100,-0.020,0.020,0.014,0.994,0.011,-0.002,-0.002,0.004,0.000,0.000,0.000,0.000,0,2,0,3,7,255,960,200,0,0,-89.360,0.847,-31.485
EX0521-092111,25,C07,prep,415,415,0,1216324.091,0.686,-0.675,0.196,0.188,0,0,0,0,0,0,0,0,0,0.000,0,0,0.115,0.002,-0.100,0.040,-0.040,0.015,0.992,0.012,0.000,-0.002,0.004,0.000,0.000,0.000,0.000,0,2,0,3,7,255,960,200,0,0,-89.360,0.847,-31.485
EX0521-092111,25,C07,prep,431,431,0,1216329.092,0.686,-0.675,0.196,0.188,0,0,0,0,0,0,0,0,0,0.000,0,0,0.143,0.002,0.140,-0.020,0.020,0.014,0.993,0.012,0.000,-0.002,-0.006,0.000,0.000,0.000,0.000,0,2,0,3,7,255,960,200,0,0,-89.360,0.847,-31.485
EX0521-092111,25,C07,prep,431,431,0,1216334.092,0.686,-0.675,0.196,0.188,0,0,0,0,0,0,0,0,0,0.000,0,0,0.060,0.003,0.020,0.040,-0.040,0.014,0.993,0.011,-0.002,-0.002,-0.006,0.000,0.000,0.000,0.000,0,2,0,3,7,255,960,200,0,0,-89.360,0.847,-31.485
EX0521-092111,25,C07,prep,431,431,0,1216339.092,0.686,-0.675,0.196,0.188,0,0,0,0,0,0,0,0,0,0.000,0,0,0.104,0.003,-0.100,-0.020,0.020,0.014,0.993,0.012,-0.002,0.002,-0.006,0.000,0.000,0.000,0.000,0,2,0,3,7,255,960,200,0,0,-89.360,0.847,-31.485
EX0521-092111,25,C07,prep,431,431,0,1216344.092,0.686,-0.675,0.196,0.188,0,0,0,0,0,0,0,0,0,0.000,0,0,0.166,0.008,0.140,-0.080,-0.040,0.013,0.993,0.011,-0.006,0.006,-0.006,0.000,0.000,0.000,0.000,0,2,0,3,7,255,960,200,0,0,-89.360,0.847,-31.485
EX0521-092111,25,C07,prep,447,447,0,1216349.092,0.686,-0.675,0.196,0.188,0,0,0,0,0,0,0,0,0,0.000,0,0,0.092,0.006,0.080,-0.020,-0.040,0.014,0.994,0.012,-0.006,0.002,0.000,0.000,0.000,0.000,0.000,0,2,0,3,7,255,960,200,0,0,-89.360,0.847,-31.485
EX0521-092111,25,C07,prep,447,447,0,1216354.091,0.686,-0.675,0.196,0.188,0,0,0,0,0,0,0,0,0,0.000,0,0,0.162,0.006,-0.160,-0.020,0.020,0.014,0.993,0.011,-0.002,0.006,0.000,0.000,0.000,0.000,0.000,0,2,0,3,7,255,960,200,0,0,-89.360,0.847,-31.485
EX0521-092111,25,C07,prep,447,447,0,1216359.095,0.686,-0.675,0.196,0.188,0,0,0,0,0,0,0,0,0,0.000,0,0,0.098,0.004,0.080,0.040,-0.040,0.013,0.993,0.012,-0.002,0.004,0.000,0.000,0.000,0.000,0.000,0,2,0,3,7,255,960,200,0,0,-89.360,0.847,-31.485
EX0521-092111,25,C07,prep,447,447,0,1216364.092,0.686,-0.675,0.196,0.188,0,0,0,0,0,0,0,0,0,0.000,0,0,0.092,0.006,0.080,-0.020,-0.040,0.015,0.994,0.010,-0.002,0.006,0.000,0.000,0.000,0.000,0.000,0,2,0,3,7,255,960,200,0,0,-89.360,0.847,-31.485
EX0521-092111,25,C07,prep,463,463,0,1216369.092,0.686,-0.675,0.196,0.188,0,0,0,0,0,0,0,0,0,0.000,0,0,0.104,0.007,-0.100,-0.020,0.020,0.014,0.993,0.011,0.004,0.006,0.000,0.000,0.000,0.000,0.000,0,2,0,3,7,255,960,200,0,0,-89.360,0.847,-31.485
EX0521-092111,25,C07,prep,463,463,0,1216374.092,0.686,-0.675,0.196,0.188,0,0,0,0,0,0,0,0,0,0.000,0,0,0.092,0.007,0.020,-0.080,-0.040,0.014,0.993,0.012,0.004,0.006,0.000,0.000,0.000,0.000,0.000,0,2,0,3,7,255,960,200,0,0,-89.360,0.847,-31.485
EX0521-092111,25,C07,prep,463,463,0,1216379.092,0.686,-0.675,0.196,0.188,0,0,0,0,0,0,0,0,0,0.000,0,0,0.143,0.004,0.140,-0.020,0.020,0.015,0.995,0.011,0.004,0.000,0.000,0.000,0.000,0.000,0.000,0,2,0,3,7,255,960,200,0,0,-89.360,0.847,-31.485
EX0521-092111,25,C07,prep,463,463,0,1216384.092,0.686,-0.675,0.196,0.188,0,0,0,0,0,0,0,0,0,0.000,0,0,0.104,0.004,-0.100,-0.020,0.020,0.014,0.994,0.011,0.004,0.000,0.008,0.000,0.000,0.000,0.000,0,2,0,3,7,255,960,200,0,0,-89.360,0.847,-31.485
EX0521-092111,25,C07,prep,519,519,0,1216389.091,0.686,-0.675,0.196,0.188,0,0,0,0,0,0,0,0,0,0.000,0,0,0.060,0.006,-0.040,-0.020,-0.040,0.015,0.992,0.011,0.006,0.000,0.008,0.000,0.000,0.000,0.000,0,2,0,3,7,255,960,200,0,0,-89.360,0.847,-31.485
EX0521-092111,25,C07,prep,519,519,0,1216394.091,0.686,-0.675,0.196,0.188,0,0,0,0,0,0,0,0,0,0.000,0,0,0.098,0.007,0.080,0.040,-0.040,0.014,0.993,0.011,0.004,0.006,-0.006,0.000,0.000,0.000,0.000,0,2,0,3,7,255,960,200,0,0,-89.360,0.847,-31.485
EX0521-092111,25,C07,prep,519,519,0,1216399.091,0.686,-0.675,0.196,0.188,0,0,0,0,0,0,0,0,0,0.000,0,0,0.060,0.004,-0.040,-0.020,-0.040,0.015,0.993,0.012,0.004,0.000,-0.006,0.000,0.000,0.000,0.000,0,2,0,3,7,255,960,200,0,0,-89.360,0.847,-31.485
EX0521-092111,25,C07,prep,519,519,0,1216404.093,0.686,-0.675,0.196,0.188,0,0,0,0,0,0,0,0,0,0.000,0,0,0.060,0.007,-0.040,-0.020,-0.040,0.014,0.994,0.011,0.004,0.006,-0.006,0.000,0.000,0.000,0.000,0,2,0,3,7,255,960,200,0,0,-89.360,0.847,-31.485
EX0521-092111,25,C07,prep,519,519,0,1216409.092,0.686,-0.675,0.196,0.188,0,0,0,0,0,0,0,0,0,0.000,0,0,0.130,0.002,0.080,-0.020,-0.100,0.014,0.994,0.012,0.000,-0.002,0.004,0.000,0.000,0.000,0.000,0,2,0,3,7,255,960,200,0,0,-89.360,0.847,-31.485
EX0521-092111,25,C07,prep,519,519,0,1216414.092,0.686,-0.675,0.196,0.188,0,0,0,0,0,0,0,0,0,0.000,0,0,0.098,0.006,0.080,0.040,-0.040,0.014,0.994,0.011,0.000,0.006,0.004,0.000,0.000,0.000,0.000,0,2,0,3,7,255,960,200,0,0,-89.360,0.847,-31.485
EX0521-092111,25,C07,prep,520,520,0,1216419.092,0.686,-0.675,0.196,0.188,0,0,0,0,0,0,0,0,0,0.000,0,0,0.104,0.003,-0.100,-0.020,0.020,0.014,0.993,0.012,-0.002,-0.002,0.004,0.000,0.000,0.000,0.000,0,2,0,3,7,255,960,200,0,0,-89.360,0.847,-31.485
EX0521-092111,25,C07,prep,520,520,0,1216424.091,0.686,-0.675,0.196,0.188,0,0,0,0,0,0,0,0,0,0.000,0,0,0.060,0.004,0.020,0.040,-0.040,0.014,0.993,0.012,-0.004,0.000,0.000,0.000,0.000,0.000,0.000,0,2,0,3,7,255,960,200,0,0,-89.360,0.847,-31.485
EX0521-092111,25,C07,prep,520,520,0,1216429.091,0.686,-0.675,0.196,0.188,0,0,0,0,0,0,0,0,0,0.000,0,0,0.060,0.004,-0.040,0.040,0.020,0.013,0.993,0.011,-0.004,0.000,-0.002,0.000,0.000,0.000,0.000,0,2,0,3,7,255,960,200,0,0,-89.360,0.847,-31.485
EX0521-092111,25,C07,prep,520,520,0,1216434.091,0.686,-0.675,0.196,0.188,0,0,0,0,0,0,0,0,0,0.000,0,0,0.049,0.013,-0.040,-0.020,0.020,0.014,0.993,0.010,-0.004,0.012,-0.002,0.000,0.000,0.000,0.000,0,2,0,3,7,255,960,200,0,0,-89.360,0.847,-31.485
EX0521-092111,25,C07,prep,527,527,0,1216439.092,0.686,-0.675,0.196,0.188,0,0,0,0,0,0,0,0,0,0.000,0,0,0.035,0.012,0.020,-0.020,0.020,0.015,0.994,0.012,0.002,0.012,0.000,0.000,0.000,0.000,0.000,0,2,0,3,7,255,960,200,0,0,-89.360,0.847,-31.485
EX0521-092111,25,C07,prep,527,527,0,1216444.092,0.686,-0.675,0.196,0.188,0,0,0,0,0,0,0,0,0,0.000,0,0,0.098,0.006,0.080,0.040,-0.040,0.014,0.993,0.011,0.002,0.006,0.000,0.000,0.000,0.000,0.000,0,2,0,3,7,255,960,200,0,0,-89.360,0.847,-31.485
EX0521-092111,25,C07,prep,543,543,0,1216449.092,0.686,-0.675,0.196,0.188,0,0,0,0,0,0,0,0,0,0.000,0,0,0.060,0.006,-0.040,-0.020,-0.040,0.014,0.992,0.011,0.002,0.006,-0.006,0.000,0.000,0.000,0.000,0,2,0,3,7,255,960,200,0,0,-89.360,0.847,-31.485
EX0521-092111,25,C07,prep,543,543,0,1216454.092,0.686,-0.675,0.196,0.188,0,0,0,0,0,0,0,0,0,0.000,0,0,0.060,0.006,-0.040,-0.020,-0.040,0.015,0.993,0.012,0.000,0.006,-0.006,0.000,0.000,0.000,0.000,0,2,0,3,7,255,960,200,0,0,-89.360,0.847,-31.485
EX0521-092111,25,C07,prep,559,559,0,1216459.092,0.686,-0.675,0.196,0.188,0,0,0,0,0,0,0,0,0,0.000,0,0,0.092,0.004,0.080,-0.020,-0.040,0.015,0.994,0.012,0.000,-0.004,0.000,0.000,0.000,0.000,0.000,0,2,0,3,7,255,960,200,0,0,-89.360,0.847,-31.485
EX0521-092111,25,C07,prep,559,559,0,1216464.091,0.686,-0.675,0.196,0.188,0,0,0,0,0,0,0,0,0,0.000,0,0,0.060,0.004,-0.040,-0.020,-0.040,0.015,0.992,0.011,0.002,-0.004,0.000,0.000,0.000,0.000,0.000,0,2,0,3,7,255,960,200,0,0,-89.360,0.847,-31.485
EX0521-092111,25,C07,prep,578,578,0,1216469.091,0.686,-0.675,0.196,0.188,0,0,0,0,0,0,0,0,0,0.000,0,0,0.110,0.003,-0.100,-0.020,-0.040,0.014,0.993,0.012,0.002,-0.002,0.000,0.000,0.000,0.000,0.000,0,2,0,3,7,255,960,200,0,0,-89.360,0.847,-31.485
EX0521-092111,25,C07,prep,578,578,0,1216474.091,0.686,-0.675,0.196,0.188,0,0,0,0,0,0,0,0,0,0.000,0,0,0.092,0.006,0.080,-0.020,-0.040,0.015,0.992,0.010,0.006,0.000,-0.010,0.000,0.000,0.000,0.000,0,2,0,3,7,255,960,200,0,0,-89.360,0.847,-31.485
EX0521-092111,25,C07,prep,578,578,0,1216479.092,0.686,-0.675,0.196,0.188,0,0,0,0,0,0,0,0,0,0.000,0,0,0.049,0.007,-0.040,-0.020,0.020,0.014,0.994,0.011,0.004,0.006,0.000,0.000,0.000,0.000,0.000,0,2,0,3,7,255,960,200,0,0,-89.360,0.847,-31.485
EX0521-092111,25,C07,prep,578,578,0,1216484.092,0.686,-0.675,0.196,0.188,0,0,0,0,0,0,0,0,0,0.000,0,0,0.104,0.007,-0.100,-0.020,0.020,0.014,0.995,0.012,0.004,0.006,0.008,0.000,0.000,0.000,0.000,0,2,0,3,7,255,960,200,0,0,-89.360,0.847,-31.485
EX0521-092111,25,C07,prep,611,611,0,1216489.092,0.686,-0.675,0.196,0.188,0,0,0,0,0,0,0,0,0,0.000,0,0,0.060,0.004,0.020,0.040,-0.040,0.015,0.993,0.011,0.004,0.000,0.008,0.000,0.000,0.000,0.000,0,2,0,3,7,255,960,200,0,0,-89.360,0.847,-31.485
EX0521-092111,25,C07,prep,611,611,0,1216494.092,0.686,-0.675,0.196,0.188,0,0,0,0,0,0,0,0,0,0.000,0,0,0.085,0.002,0.020,-0.080,0.020,0.015,0.993,0.012,0.000,-0.002,0.000,0.000,0.000,0.000,0.000,0,2,0,3,7,255,960,200,0,0,-89.360,0.847,-31.485
EX0521-092111,25,C07,prep,611,611,0,1216499.091,0.686,-0.675,0.196,0.188,0,0,0,0,0,0,0,0,0,0.000,0,0,0.060,0.009,-0.040,-0.020,-0.040,0.015,0.993,0.012,0.004,-0.008,0.000,0.000,0.000,0.000,0.000,0,2,0,3,7,255,960,200,0,0,-89.360,0.847,-31.485
EX0521-092111,25,C07,prep,611,611,0,1216504.093,0.686,-0.675,0.196,0.188,0,0,0,0,0,0,0,0,0,0.000,0,0,0.085,0.011,0.080,-0.020,0.020,0.015,0.994,0.012,0.004,-0.010,0.000,0.000,0.000,0.000,0.000,0,2,0,3,7,255,960,200,0,0,-89.360,0.847,-31.485
EX0521-092111,25,C07,prep,611,611,0,1216509.091,0.686,-0.675,0.196,0.188,0,0,0,0,0,0,0,0,0,0.000,0,0,0.049,0.011,0.020,-0.020,-0.040,0.014,0.994,0.011,0.004,-0.010,0.004,0.000,0.000,0.000,0.000,0,2,0,3,7,255,960,200,0,0,-89.360,0.847,-31.485
EX0521-092111,25,C07,prep,611,611,0,1216514.091,0.686,-0.675,0.196,0.188,0,0,0,0,0,0,0,0,0,0.000,0,0,0.049,0.007,-0.040,-0.020,0.020,0.014,0.994,0.011,0.004,0.006,0.004,0.000,0.000,0.000,0.000,0,2,0,3,7,255,960,200,0,0,-89.360,0.847,-31.485
EX0521-092111,25,C07,prep,623,623,0,1216519.092,0.686,-0.675,0.196,0.188,0,0,0,0,0,0,0,0,0,0.000,0,0,0.049,0.006,0.020,-0.020,-0.040,0.014,0.994,0.012,0.000,0.006,0.004,0.000,0.000,0.000,0.000,0,2,0,3,7,255,960,200,0,0,-89.360,0.847,-31.485
EX0521-092111,25,C07,prep,623,623,0,1216524.092,0.686,-0.675,0.196,0.188,0,0,0,0,0,0,0,0,0,0.000,0,0,0.098,0.004,0.080,0.040,-0.040,0.015,0.993,0.011,0.004,0.000,0.004,0.000,0.000,0.000,0.000,0,2,0,3,7,255,960,200,0,0,-89.360,0.847,-31.485
EX0521-092111,25,C07,prep,623,623,0,1216529.092,0.686,-0.675,0.196,0.188,0,0,0,0,0,0,0,0,0,0.000,0,0,0.049,0.002,-0.040,-0.020,0.020,0.015,0.992,0.012,0.000,-0.002,-0.006,0.000,0.000,0.000,0.000,0,2,0,3,7,255,960,200,0,0,-89.360,0.847,-31.485
EX0521-092111,25,C07,prep,623,623,0,1216534.091,0.686,-0.675,0.196,0.188,0,0,0,0,0,0,0,0,0,0.000,0,0,0.049,0.000,0.020,-0.020,-0.040,0.014,0.994,0.011,0.000,0.000,-0.006,0.000,0.000,0.000,0.000,0,2,0,3,7,255,960,200,0,0,-89.360,0.847,-31.485
EX0521-092111,25,C07,prep,623,623,0,1216539.091,0.686,-0.675,0.196,0.188,0,0,0,0,0,0,0,0,0,0.000,0,0,0.092,0.000,0.080,-0.020,-0.040,0.014,0.993,0.012,0.000,0.000,-0.006,0.000,0.000,0.000,0.000,0,2,0,3,7,255,960,200,0,0,-89.360,0.847,-31.485
EX0521-092111,25,C07,prep,623,623,0,1216544.092,0.686,-0.675,0.196,0.188,0,0,0,0,0,0,0,0,0,0.000,0,0,0.060,0.006,-0.040,-0.020,-0.040,0.013,0.993,0.012,-0.006,0.002,0.000,0.000,0.000,0.000,0.000,0,2,0,3,7,255,960,200,0,0,-89.360,0.847,-31.485
EX0521-092111,25,C07,prep,643,643,0,1216549.091,0.686,-0.675,0.196,0.188,0,0,0,0,0,0,0,0,0,0.000,0,0,0.110,0.006,-0.100,-0.020,-0.040,0.015,0.995,0.012,-0.006,0.000,0.000,0.000,0.000,0.000,0.000,0,2,0,3,7,255,960,200,0,0,-89.360,0.847,-31.485
EX0521-092111,25,C07,prep,643,643,0,1216554.092,0.686,-0.675,0.196,0.188,0,0,0,0,0,0,0,0,0,0.000,0,0,0.049,0.010,0.020,0.040,0.020,0.015,0.993,0.013,0.002,-0.010,0.000,0.000,0.000,0.000,0.000,0,2,0,3,7,255,960,200,0,0,-89.360,0.847,-31.485
EX0521-092111,25,C07,prep,644,644,0,1216559.095,0.686,-0.675,0.196,0.188,0,0,0,0,0,0,0,0,0,0.000,0,0,0.035,0.010,0.020,-0.020,0.020,0.014,0.993,0.012,0.002,-0.010,0.000,0.000,0.000,0.000,0.000,0,2,0,3,7,255,960,200,0,0,-89.360,0.847,-31.485
EX0521-092111,25,C07,prep,644,644,0,1216564.092,0.686,-0.675,0.196,0.188,0,0,0,0,0,0,0,0,0,0.000,0,0,0.049,0.008,0.020,-0.020,-0.040,0.015,0.993,0.012,0.000,-0.008,-0.006,0.000,0.000,0.000,0.000,0,2,0,3,7,255,960,200,0,0,-89.360,0.847,-31.485
EX0521-092111,25,C07,prep,678,678,0,1216569.092,0.686,-0.675,0.196,0.188,0,0,0,0,0,0,0,0,0,0.000,0,0,0.035,0.006,0.020,-0.020,0.020,0.014,0.994,0.012,-0.002,-0.006,-0.006,0.000,0.000,0.000,0.000,0,2,0,3,7,255,960,200,0,0,-89.360,0.847,-31.485
EX0521-092111,25,C07,prep,678,678,0,1216574.091,0.686,-0.675,0.196,0.188,0,0,0,0,0,0,0,0,0,0.000,0,0,0.049,0.003,0.020,-0.020,-0.040,0.014,0.993,0.012,-0.002,-0.002,-0.006,0.000,0.000,0.000,0.000,0,2,0,3,7,255,960,200,0,0,-89.360,0.847,-31.485
EX0521-092111,25,C07,prep,678,678,0,1216579.091,0.686,-0.675,0.196,0.188,0,0,0,0,0,0,0,0,0,0.000,0,0,0.049,0.003,-0.040,-0.020,0.020,0.015,0.993,0.011,-0.002,0.002,0.000,0.000,0.000,0.000,0.000,0,2,0,3,7,255,960,200,0,0,-89.360,0.847,-31.485
EX0521-092111,25,C07,prep,678,678,0,1216584.091,0.686,-0.675,0.196,0.188,0,0,0,0,0,0,0,0,0,0.000,0,0,0.049,0.002,0.020,-0.020,-0.040,0.015,0.993,0.012,0.000,0.002,-0.006,0.000,0.000,0.000,0.000,0,2,0,3,7,255,960,200,0,0,-89.360,0.847,-31.485
EX0521-092111,25,C07,prep,678,678,0,1216589.092,0.686,-0.675,0.196,0.188,0,0,0,0,0,0,0,0,0,0.000,0,0,0.098,0.009,0.080,0.040,-0.040,0.015,0.994,0.012,0.004,-0.008,0.000,0.000,0.000,0.000,0.000,0,2,0,3,7,255,960,200,0,0,-89.360,0.847,-31.485
EX0521-092111,25,C07,prep,678,678,0,1216594.092,0.686,-0.675,0.196,0.188,0,0,0,0,0,0,0,0,0,0.000,0,0,0.049,0.009,0.020,0.040,0.020,0.015,0.994,0.011,0.004,-0.008,0.004,0.000,0.000,0.000,0.000,0,2,0,3,7,255,960,200,0,0,-89.360,0.847,-31.485
EX0521-092111,25,C07,prep,715,715,0,1216599.092,0.686,-0.675,0.196,0.188,0,0,0,0,0,0,0,0,0,0.000,0,0,0.060,0.004,-0.040,-0.020,-0.040,0.014,0.993,0.012,0.004,-0.002,0.004,0.000,0.000,0.000,0.000,0,2,0,3,7,255,960,200,0,0,-89.360,0.847,-31.485
EX0521-092111,25,C07,prep,715,715,0,1216604.093,0.686,-0.675,0.196,0.188,0,0,0,0,0,0,0,0,0,0.000,0,0,0.049,0.000,0.020,-0.020,-0.040,0.014,0.992,0.011,0.000,0.000,-0.006,0.000,0.000,0.000,0.000,0,2,0,3,7,255,960,200,0,0,-89.360,0.847,-31.485
EX0521-092111,25,C07,prep,716,716,0,1216609.092,0.686,-0.675,0.196,0.188,0,0,0,0,0,0,0,0,0,0.000,0,0,0.049,0.003,0.020,-0.020,-0.040,0.014,0.993,0.012,-0.002,0.002,-0.006,0.000,0.000,0.000,0.000,0,2,0,3,7,255,960,200,0,0,-89.360,0.847,-31.485
EX0521-092111,25,C07,prep,716,716,0,1216614.091,0.686,-0.675,0.196,0.188,0,0,0,0,0,0,0,0,0,0.000,0,0,0.049,0.002,-0.040,-0.020,0.020,0.015,0.992,0.012,0.000,0.002,-0.010,0.000,0.000,0.000,0.000,0,2,0,3,7,255,960,200,0,0,-89.360,0.847,-31.485
EX0521-092111,25,C07,prep,717,717,0,1216619.091,0.686,-0.675,0.196,0.188,0,0,0,0,0,0,0,0,0,0.000,0,0,0.049,0.002,0.020,-0.020,-0.040,0.014,0.993,0.011,0.000,0.002,-0.006,0.000,0.000,0.000,0.000,0,2,0,3,7,255,960,200,0,0,-89.360,0.847,-31.485
EX0521-092111,25,C07,prep,717,717,0,1216624.091,0.686,-0.675,0.196,0.188,0,0,0,0,0,0,0,0,0,0.000,0,0,0.110,0.002,-0.040,0.100,0.020,0.014,0.994,0.012,0.000,0.002,-0.006,0.000,0.000,0.000,0.000,0,2,0,3,7,255,960,200,0,0,-89.360,0.847,-31.485
EX0521-092111,25,C07,prep,720,720,0,1216629.092,0.686,-0.675,0.196,0.188,0,0,0,0,0,0,0,0,0,0.000,0,0,0.060,0.006,-0.040,-0.020,-0.040,0.013,0.994,0.012,-0.006,0.002,0.004,0.000,0.000,0.000,0.000,0,2,0,3,7,255,960,200,0,0,-89.360,0.847,-31.485
EX0521-092111,25,C07,prep,720,720,0,1216634.092,0.686,-0.675,0.196,0.188,0,0,0,0,0,0,0,0,0,0.000,0,0,0.092,0.006,0.080,-0.020,-0.040,0.016,0.992,0.012,-0.006,0.000,0.004,0.000,0.000,0.000,0.000,0,2,0,3,7,255,960,200,0,0,-89.360,0.847,-31.485
EX0521-092111,25,C07,prep,751,751,0,1216639.092,0.686,-0.675,0.196,0.188,0,0,0,0,0,0,0,0,0,0.000,0,0,0.092,0.008,0.080,-0.020,-0.040,0.013,0.993,0.011,-0.008,0.000,-0.006,0.000,0.000,0.000,0.000,0,2,0,3,7,255,960,200,0,0,-89.360,0.847,-31.485
EX0521-092111,25,C07,prep,751,751,0,1216644.092,0.686,-0.675,0.196,0.188,0,0,0,0,0,0,0,0,0,0.000,0,0,0.049,0.003,0.020,-0.020,-0.040,0.014,0.994,0.012,-0.002,-0.002,-0.006,0.000,0.000,0.000,0.000,0,2,0,3,7,255,960,200,0,0,-89.360,0.847,-31.485
EX0521-092111,25,C07,prep,751,751,0,1216649.092,0.686,-0.675,0.196,0.188,0,0,0,0,0,0,0,0,0,0.000,0,0,0.098,0.002,0.080,0.040,-0.040,0.015,0.994,0.011,-0.002,0.000,0.004,0.000,0.000,0.000,0.000,0,2,0,3,7,255,960,200,0,0,-89.360,0.847,-31.485
EX0521-092111,25,C07,prep,751,751,0,1216654.091,0.686,-0.675,0.196,0.188,0,0,0,0,0,0,0,0,0,0.000,0,0,0.035,0.003,0.020,-0.020,0.020,0.014,0.992,0.012,-0.002,-0.002,0.004,0.000,0.000,0.000,0.000,0,2,0,3,7,255,960,200,0,0,-89.360,0.847,-31.485
EX0521-092111,25,C07,prep,757,757,0,1216659.091,0.686,-0.675,0.196,0.188,0,0,0,0,0,0,0,0,0,0.000,0,0,0.115,0.003,-0.100,0.040,-0.040,0.015,0.994,0.012,0.002,-0.002,0.004,0.000,0.000,0.000,0.000,0,2,0,3,7,255,960,200,0,0,-89.360,0.847,-31.485
EX0521-092111,25,C07,prep,757,757,0,1216664.091,0.686,-0.675,0.196,0.188,0,0,0,0,0,0,0,0,0,0.000,0,0,0.049,0.003,0.020,-0.020,-0.040,0.015,0.992,0.011,0.002,-0.002,-0.010,0.000,0.000,0.000,0.000,0,2,0,3,7,255,960,200,0,0,-89.360,0.847,-31.485
EX0521-092111,25,C07,prep,774,774,0,1216669.092,0.686,-0.675,0.196,0.188,0,0,0,0,0,0,0,0,0,0.000,0,0,0.049,0.002,0.020,-0.020,-0.040,0.014,0.993,0.011,0.002,0.000,0.000,0.000,0.000,0.000,0.000,0,2,0,3,7,255,960,200,0,0,-89.360,0.847,-31.485
EX0521-092111,25,C07,prep,774,774,0,1216674.092,0.686,-0.675,0.196,0.188,0,0,0,0,0,0,0,0,0,0.000,0,0,0.104,0.004,0.020,-0.100,0.020,0.014,0.993,0.011,0.004,0.002,-0.006,0.000,0.000,0.000,0.000,0,2,0,3,7,255,960,200,0,0,-89.360,0.847,-31.485
EX0521-092111,25,C07,prep,774,774,0,1216679.092,0.686,-0.675,0.196,0.188,0,0,0,0,0,0,0,0,0,0.000,0,0,0.049,0.003,0.020,-0.020,-0.040,0.014,0.993,0.012,0.002,0.002,0.000,0.000,0.000,0.000,0.000,0,2,0,3,7,255,960,200,0,0,-89.360,0.847,-31.485
EX0521-092111,25,C07,prep,774,774,0,1216684.092,0.686,-0.675,0.196,0.188,0,0,0,0,0,0,0,0,0,0.000,0,0,0.092,0.004,0.080,-0.020,-0.040,0.013,0.994,0.012,-0.004,0.000,0.000,0.000,0.000,0.000,0.000,0,2,0,3,7,255,960,200,0,0,-89.360,0.847,-31.485
EX0521-092111,25,C07,prep,816,816,0,1216689.092,0.686,-0.675,0.196,0.188,0,0,0,0,0,0,0,0,0,0.000,0,0,0.060,0.004,-0.040,-0.020,-0.040,0.014,0.993,0.012,-0.004,-0.002,0.000,0.000,0.000,0.000,0.000,0,2,0,3,7,255,960,200,0,0,-89.360,0.847,-31.485
EX0521-092111,25,C07,prep,816,816,0,1216694.091,0.686,-0.675,0.196,0.188,0,0,0,0,0,0,0,0,0,0.000,0,0,0.104,0.003,0.020,-0.100,0.020,0.015,0.994,0.012,-0.002,-0.002,0.004,0.000,0.000,0.000,0.000,0,2,0,3,7,255,960,200,0,0,-89.360,0.847,-31.485
EX0521-092111,25,C07,prep,817,817,0,1216699.091,0.686,-0.675,0.196,0.188,0,0,0,0,0,0,0,0,0,0.000,0,0,0.049,0.003,0.020,-0.020,-0.040,0.014,0.994,0.012,-0.002,-0.002,0.004,0.000,0.000,0.000,0.000,0,2,0,3,7,255,960,200,0,0,-89.360,0.847,-31.485
EX0521-092111,25,C07,prep,817,817,0,1216704.093,0.686,-0.675,0.196,0.188,0,0,0,0,0,0,0,0,0,0.000,0,0,0.049,0.002,0.020,-0.020,-0.040,0.014,0.994,0.012,-0.002,0.000,0.010,0.000,0.000,0.000,0.000,0,2,0,3,7,255,960,200,0,0,-89.360,0.847,-31.485
EX0521-092111,25,C07,prep,818,818,0,1216709.092,0.686,-0.675,0.196,0.188,0,0,0,0,0,0,0,0,0,0.000,0,0,0.035,0.002,0.020,-0.020,0.020,0.014,0.993,0.012,-0.002,0.000,0.004,0.000,0.000,0.000,0.000,0,2,0,3,7,255,960,200,0,0,-89.360,0.847,-31.485
EX0521-092111,25,C07,prep,818,818,0,1216714.092,0.686,-0.675,0.196,0.188,0,0,0,0,0,0,0,0,0,0.000,0,0,0.035,0.003,0.020,-0.020,0.020,0.015,0.993,0.012,-0.002,-0.002,0.000,0.000,0.000,0.000,0.000,0,2,0,3,7,255,960,200,0,0,-89.360,0.847,-31.485
EX0521-092111,25,C07,prep,819,819,0,1216719.092,0.686,-0.675,0.196,0.188,0,0,0,0,0,0,0,0,0,0.000,0,0,0.060,0.003,-0.040,-0.020,-0.040,0.014,0.993,0.011,0.002,-0.002,0.000,0.000,0.000,0.000,0.000,0,2,0,3,7,255,960,200,0,0,-89.360,0.847,-31.485
EX0521-092111,25,C07,prep,819,819,0,1216724.092,0.686,-0.675,0.196,0.188,0,0,0,0,0,0,0,0,0,0.000,0,0,0.049,0.002,0.020,-0.020,-0.040,0.013,0.993,0.012,0.002,0.000,0.000,0.000,0.000,0.000,0.000,0,2,0,3,7,255,960,200,0,0,-89.360,0.847,-31.485
EX0521-092111,25,C07,prep,819,819,0,1216729.091,0.686,-0.675,0.196,0.188,0,0,0,0,0,0,0,0,0,0.000,0,0,0.049,0.002,0.020,-0.020,-0.040,0.015,0.993,0.012,0.002,0.000,-0.006,0.000,0.000,0.000,0.000,0,2,0,3,7,255,960,200,0,0,-89.360,0.847,-31.485
EX0521-092111,25,C07,prep,819,819,0,1216734.091,0.686,-0.675,0.196,0.188,0,0,0,0,0,0,0,0,0,0.000,0,0,0.049,0.002,0.020,-0.020,-0.040,0.014,0.992,0.011,0.002,0.000,-0.006,0.000,0.000,0.000,0.000,0,2,0,3,7,255,960,200,0,0,-89.360,0.847,-31.485
EX0521-092111,25,C07,prep,831,831,0,1216739.091,0.686,-0.675,0.196,0.188,0,0,0,0,0,0,0,0,0,0.000,0,0,0.060,0.003,-0.040,-0.020,-0.040,0.014,0.993,0.012,0.002,0.002,-0.006,0.000,0.000,0.000,0.000,0,2,0,3,7,255,960,200,0,0,-89.360,0.847,-31.485
EX0521-092111,25,C07,prep,831,831,0,1216744.092,0.686,-0.675,0.196,0.188,0,0,0,0,0,0,0,0,0,0.000,0,0,0.049,0.003,0.020,-0.020,-0.040,0.014,0.994,0.011,0.002,0.002,-0.006,0.000,0.000,0.000,0.000,0,2,0,3,7,255,960,200,0,0,-89.360,0.847,-31.485
EX0521-092111,25,C07,prep,847,847,0,1216749.092,0.686,-0.675,0.196,0.188,0,0,0,0,0,0,0,0,0,0.000,0,0,0.130,0.004,0.080,-0.020,-0.100,0.014,0.994,0.011,-0.002,0.004,0.004,0.000,0.000,0.000,0.000,0,2,0,3,7,255,960,200,0,0,-89.360,0.847,-31.485
EX0521-092111,25,C07,prep,847,847,0,1216754.092,0.686,-0.675,0.196,0.188,0,0,0,0,0,0,0,0,0,0.000,0,0,0.098,0.004,0.080,0.040,-0.040,0.014,0.992,0.011,0.002,0.004,0.004,0.000,0.000,0.000,0.000,0,2,0,3,7,255,960,200,0,0,-89.360,0.847,-31.485
EX0521-092111,25,C07,prep,847,847,0,1216759.095,0.686,-0.675,0.196,0.188,0,0,0,0,0,0,0,0,0,0.000,0,0,0.035,0.003,0.020,-0.020,0.020,0.014,0.993,0.012,-0.002,0.002,-0.004,0.000,0.000,0.000,0.000,0,2,0,3,7,255,960,200,0,0,-89.360,0.847,-31.485
EX0521-092111,25,C07,prep,847,847,0,1216764.091,0.686,-0.675,0.196,0.188,0,0,0,0,0,0,0,0,0,0.000,0,0,0.049,0.003,-0.040,-0.020,0.020,0.015,0.994,0.012,0.002,0.002,-0.004,0.000,0.000,0.000,0.000,0,2,0,3,7,255,960,200,0,0,-89.360,0.847,-31.485
EX0521-092111,25,C07,prep,863,863,0,1216769.091,0.686,-0.675,0.196,0.188,0,0,0,0,0,0,0,0,0,0.000,0,0,0.092,0.003,0.080,0.040,0.020,0.014,0.993,0.012,-0.002,-0.002,-0.004,0.000,0.000,0.000,0.000,0,2,0,3,7,255,960,200,0,0,-89.360,0.847,-31.485
EX0521-092111,25,C07,prep,863,863,0,1216774.091,0.686,-0.675,0.196,0.188,0,0,0,0,0,0,0,0,0,0.000,0,0,0.049,0.004,-0.040,-0.020,0.020,0.014,0.992,0.013,-0.002,-0.004,-0.004,0.000,0.000,0.000,0.000,0,2,0,3,7,255,960,200,0,0,-89.360,0.847,-31.485
EX0521-092111,25,C07,prep,881,881,0,1216779.091,0.686,-0.675,0.196,0.188,0,0,0,0,0,0,0,0,0,0.000,0,0,0.049,0.003,0.020,-0.020,-0.040,0.014,0.992,0.011,-0.002,-0.002,-0.010,0.000,0.000,0.000,0.000,0,2,0,3,7,255,960,200,0,0,-89.360,0.847,-31.485
EX0521-092111,25,C07,prep,881,881,0,1216784.092,0.686,-0.675,0.196,0.188,0,0,0,0,0,0,0,0,0,0.000,0,0,0.060,0.007,0.020,0.040,-0.040,0.014,0.993,0.012,-0.004,-0.006,-0.010,0.000,0.000,0.000,0.000,0,2,0,3,7,255,960,200,0,0,-89.360,0.847,-31.485
EX0521-092111,25,C07,prep,911,911,0,1216789.092,0.686,-0.675,0.196,0.188,0,0,0,0,0,0,0,0,0,0.000,0,0,0.060,0.007,-0.040,-0.020,-0.040,0.014,0.993,0.012,-0.004,-0.006,-0.004,0.000,0.000,0.000,0.000,0,2,0,3,7,255,960,200,0,0,-89.360,0.847,-31.485
EX0521-092111,25,C07,prep,911,911,0,1216794.092,0.686,-0.675,0.196,0.188,0,0,0,0,0,0,0,0,0,0.000,0,0,0.049,0.007,0.020,-0.020,-0.040,0.015,0.994,0.011,-0.004,-0.006,-0.004,0.000,0.000,0.000,0.000,0,2,0,3,7,255,960,200,0,0,-89.360,0.847,-31.485
EX0521-092111,25,C07,prep,911,911,0,1216799.092,0.686,-0.675,0.196,0.188,0,0,0,0,0,0,0,0,0,0.000,0,0,0.060,0.008,-0.040,-0.020,-0.040,0.016,0.993,0.012,0.006,-0.006,0.000,0.000,0.000,0.000,0.000,0,2,0,3,7,255,960,200,0,0,-89.360,0.847,-31.485
EX0521-092111,25,C07,prep,911,911,0,1216804.093,0.686,-0.675,0.196,0.188,0,0,0,0,0,0,0,0,0,0.000,0,0,0.104,0.010,0.020,-0.020,-0.100,0.014,0.993,0.013,0.006,-0.008,0.000,0.000,0.000,0.000,0.000,0,2,0,3,7,255,960,200,0,0,-89.360,0.847,-31.485
EX0521-092111,25,C07,prep,911,911,0,1216809.091,0.686,-0.675,0.196,0.188,0,0,0,0,0,0,0,0,0,0.000,0,0,0.085,0.010,0.080,-0.020,0.020,0.014,0.992,0.012,-0.006,-0.008,-0.004,0.000,0.000,0.000,0.000,0,2,0,3,7,255,960,200,0,0,-89.360,0.847,-31.485
EX0521-092111,25,C07,prep,911,911,0,1216814.091,0.686,-0.675,0.196,0.188,0,0,0,0,0,0,0,0,0,0.000,0,0,0.049,0.007,0.020,-0.020,-0.040,0.015,0.994,0.012,-0.006,-0.004,-0.004,0.000,0.000,0.000,0.000,0,2,0,3,7,255,960,200,0,0,-89.360,0.847,-31.485
EX0521-092111,25,C07,prep,927,927,0,1216819.092,0.686,-0.675,0.196,0.188,0,0,0,0,0,0,0,0,0,0.000,0,0,0.060,0.002,-0.040,-0.020,-0.040,0.015,0.992,0.011,0.002,0.000,-0.010,0.000,0.000,0.000,0.000,0,2,0,3,7,255,960,200,0,0,-89.360,0.847,-31.485
EX0521-092111,25,C07,prep,927,927,0,1216824.092,0.686,-0.675,0.196,0.188,0,0,0,0,0,0,0,0,0,0.000,0,0,0.060,0.002,-0.040,-0.020,-0.040,0.014,0.993,0.011,0.002,0.000,0.000,0.000,0.000,0.000,0.000,0,2,0,3,7,255,960,200,0,0,-89.360,0.847,-31.485
EX0521-092111,25,C07,prep,927,927,0,1216829.092,0.686,-0.675,0.196,0.188,0,0,0,0,0,0,0,0,0,0.000,0,0,0.049,0.004,0.020,-0.020,-0.040,0.014,0.995,0.011,0.002,0.004,0.000,0.000,0.000,0.000,0.000,0,2,0,3,7,255,960,200,0,0,-89.360,0.847,-31.485
EX0521-092111,25,C07,prep,927,927,0,1216834.092,0.686,-0.675,0.196,0.188,0,0,0,0,0,0,0,0,0,0.000,0,0,0.060,0.004,-0.040,-0.020,-0.040,0.015,0.993,0.012,0.000,0.004,0.000,0.000,0.000,0.000,0.000,0,2,0,3,7,255,960,200,0,0,-89.360,0.847,-31.485
EX0521-092111,25,C07,prep,927,927,0,1216839.092,0.686,-0.675,0.196,0.188,0,0,0,0,0,0,0,0,0,0.000,0,0,0.049,0.000,0.020,-0.020,-0.040,0.014,0.995,0.012,0.000,0.000,0.014,0.000,0.000,0.000,0.000,0,2,0,3,7,255,960,200,0,0,-89.360,0.847,-31.485
EX0521-092111,25,C07,prep,927,927,0,1216844.091,0.686,-0.675,0.196,0.188,0,0,0,0,0,0,0,0,0,0.000,0,0,0.049,0.002,0.020,0.040,0.020,0.014,0.994,0.012,-0.002,0.000,0.004,0.000,0.000,0.000,0.000,0,2,0,3,7,255,960,200,0,0,-89.360,0.847,-31.485
EX0521-092111,25,C07,prep,945,945,0,1216849.091,0.686,-0.675,0.196,0.188,0,0,0,0,0,0,0,0,0,0.000,0,0,0.069,0.002,-0.040,0.040,-0.040,0.014,0.993,0.011,-0.002,0.000,0.004,0.000,0.000,0.000,0.000,0,2,0,3,7,255,960,200,0,0,-89.360,0.847,-31.485
EX0521-092111,25,C07,prep,945,945,0,1216854.092,0.686,-0.675,0.196,0.188,0,0,0,0,0,0,0,0,0,0.000,0,0,0.049,0.006,0.020,-0.020,-0.040,0.014,0.992,0.010,-0.002,0.006,0.000,0.000,0.000,0.000,0.000,0,2,0,3,7,255,960,200,0,0,-89.360,0.847,-31.485
EX0521-092111,25,C07,prep,946,946,0,1216859.092,0.686,-0.675,0.196,0.188,0,0,0,0,0,0,0,0,0,0.000,0,0,0.060,0.008,-0.040,-0.020,-0.040,0.013,0.993,0.011,-0.002,0.008,0.000,0.000,0.000,0.000,0.000,0,2,0,3,7,255,960,200,0,0,-89.360,0.847,-31.485
EX0521-092111,25,C07,prep,946,946,0,1216864.092,0.686,-0.675,0.196,0.188,0,0,0,0,0,0,0,0,0,0.000,0,0,0.092,0.010,0.080,-0.020,-0.040,0.014,0.992,0.012,-0.006,0.008,-0.010,0.000,0.000,0.000,0.000,0,2,0,3,7,255,960,200,0,0,-89.360,0.847,-31.485
EX0521-092111,25,C07,prep,959,959,0,1216869.092,0.686,-0.675,0.196,0.188,0,0,0,0,0,0,0,0,0,0.000,0,0,0.060,0.006,-0.040,-0.020,-0.040,0.014,0.993,0.012,-0.006,-0.002,-0.004,0.000,0.000,0.000,0.000,0,2,0,3,7,255,960,200,0,0,-89.360,0.847,-31.485
EX0521-092111,25,C07,prep,959,959,0,1216874.092,0.686,-0.675,0.196,0.188,0,0,0,0,0,0,0,0,0,0.000,0,0,0.049,0.008,0.020,-0.020,-0.040,0.013,0.993,0.012,-0.008,-0.002,-0.004,0.000,0.000,0.000,0.000,0,2,0,3,7,255,960,200,0,0,-89.360,0.847,-31.485
EX0521-092111,25,C07,prep,975,975,0,1216879.091,0.686,-0.675,0.196,0.188,0,0,0,0,0,0,0,0,0,0.000,0,0,0.049,0.002,0.020,-0.020,-0.040,0.015,0.993,0.012,0.000,-0.002,-0.004,0.000,0.000,0.000,0.000,0,2,0,3,7,255,960,200,0,0,-89.360,0.847,-31.485
EX0521-092111,25,C07,prep,975,975,0,1216884.091,0.686,-0.675,0.196,0.188,0,0,0,0,0,0,0,0,0,0.000,0,0,0.049,0.002,0.020,-0.020,-0.040,0.014,0.993,0.011,0.002,0.000,-0.004,0.000,0.000,0.000,0.000,0,2,0,3,7,255,960,200,0,0,-89.360,0.847,-31.485
EX0521-092111,25,C07,prep,975,975,0,1216889.091,0.686,-0.675,0.196,0.188,0,0,0,0,0,0,0,0,0,0.000,0,0,0.049,0.003,0.020,-0.020,-0.040,0.014,0.993,0.011,0.002,0.002,-0.004,0.000,0.000,0.000,0.000,0,2,0,3,7,255,960,200,0,0,-89.360,0.847,-31.485
EX0521-092111,25,C07,prep,975,975,0,1216894.091,0.686,-0.675,0.196,0.188,0,0,0,0,0,0,0,0,0,0.000,0,0,0.060,0.003,-0.040,-0.020,-0.040,0.014,0.993,0.012,0.002,0.002,0.000,0.000,0.000,0.000,0.000,0,2,0,3,7,255,960,200,0,0,-89.360,0.847,-31.485
EX0521-092111,25,C07,prep,1009,1009,0,1216899.092,0.686,-0.675,0.196,0.188,0,0,0,0,0,0,0,0,0,0.000,0,0,0.049,0.000,0.020,-0.020,-0.040,0.014,0.994,0.012,0.000,0.000,0.000,0.000,0.000,0.000,0.000,0,2,0,3,7,255,960,200,0,0,-89.360,0.847,-31.485
EX0521-092111,25,C07,prep,1009,1009,0,1216904.093,0.686,-0.675,0.196,0.188,0,0,0,0,0,0,0,0,0,0.000,0,0,0.049,0.000,-0.040,-0.020,0.020,0.014,0.992,0.011,0.000,0.000,0.000,0.000,0.000,0.000,0.000,0,2,0,3,7,255,960,200,0,0,-89.360,0.847,-31.485
EX0521-092111,25,C07,prep,1010,1010,0,1216909.092,0.686,-0.675,0.196,0.188,0,0,0,0,0,0,0,0,0,0.000,0,0,0.060,0.003,-0.040,-0.020,-0.040,0.014,0.993,0.011,0.002,0.002,0.000,0.000,0.000,0.000,0.000,0,2,0,3,7,255,960,200,0,0,-89.360,0.847,-31.485
EX0521-092111,25,C07,prep,1010,1010,0,1216914.092,0.686,-0.675,0.196,0.188,0,0,0,0,0,0,0,0,0,0.000,0,0,0.049,0.003,0.020,-0.020,-0.040,0.014,0.993,0.012,0.002,0.002,-0.004,0.000,0.000,0.000,0.000,0,2,0,3,7,255,960,200,0,0,-89.360,0.847,-31.485
EX0521-092111,25,C07,prep,1010,1010,0,1216919.091,0.686,-0.675,0.196,0.188,0,0,0,0,0,0,0,0,0,0.000,0,0,0.092,0.003,-0.040,-0.080,0.020,0.015,0.993,0.012,0.002,-0.002,0.000,0.000,0.000,0.000,0.000,0,2,0,3,7,255,960,200,0,0,-89.360,0.847,-31.485
EX0521-092111,25,C07,prep,1010,1010,0,1216924.091,0.686,-0.675,0.196,0.188,0,0,0,0,0,0,0,0,0,0.000,0,0,0.092,0.008,-0.040,-0.020,0.080,0.014,0.992,0.012,-0.008,-0.002,-0.004,0.000,0.000,0.000,0.000,0,2,0,3,7,255,960,200,0,0,-89.360,0.847,-31.485
EX0521-092111,25,C07,prep,1023,1023,0,1216929.091,0.686,-0.675,0.196,0.188,0,0,0,0,0,0,0,0,0,0.000,0,0,0.049,0.004,0.020,-0.020,-0.040,0.015,0.993,0.011,0.004,-0.002,0.000,0.000,0.000,0.000,0.000,0,2,0,3,7,255,960,200,0,0,-89.360,0.847,-31.485
EX0521-092111,25,C07,prep,1023,1023,0,1216934.091,0.686,-0.675,0.196,0.188,0,0,0,0,0,0,0,0,0,0.000,0,0,0.049,0.003,0.020,-0.020,-0.040,0.015,0.995,0.012,0.002,-0.002,0.000,0.000,0.000,0.000,0.000,0,2,0,3,7,255,960,200,0,0,-89.360,0.847,-31.485
EX0521-092111,25,C07,prep,1043,1043,0,1216939.092,0.686,-0.675,0.196,0.188,0,0,0,0,0,0,0,0,0,0.000,0,0,0.049,0.004,0.020,-0.020,-0.040,0.014,0.992,0.012,0.002,-0.004,0.000,0.000,0.000,0.000,0.000,0,2,0,3,7,255,960,200,0,0,-89.360,0.847,-31.485
EX0521-092111,25,C07,prep,1043,1043,0,1216944.092,0.686,-0.675,0.196,0.188,0,0,0,0,0,0,0,0,0,0.000,0,0,0.035,0.004,0.020,-0.020,0.020,0.015,0.991,0.012,0.002,-0.004,-0.014,0.000,0.000,0.000,0.000,0,2,0,3,7,255,960,200,0,0,-89.360,0.847,-31.485
EX0521-092111,25,C07,prep,1043,1043,0,1216949.092,0.686,-0.675,0.196,0.188,0,0,0,0,0,0,0,0,0,0.000,0,0,0.069,0.004,-0.040,0.040,-0.040,0.014,0.994,0.011,0.002,-0.004,-0.014,0.000,0.000,0.000,0.000,0,2,0,3,7,255,960,200,0,0,-89.360,0.847,-31.485
EX0521-092111,25,C07,prep,1043,1043,0,1216954.092,0.686,-0.675,0.196,0.188,0,0,0,0,0,0,0,0,0,0.000,0,0,0.060,0.004,-0.040,-0.020,-0.040,0.014,0.993,0.011,0.002,0.004,0.000,0.000,0.000,0.000,0.000,0,2,0,3,7,255,960,200,0,0,-89.360,0.847,-31.485
EX0521-092111,25,C07,prep,1056,1056,0,1216959.094,0.686,-0.675,0.196,0.188,0,0,0,0,0,0,0,0,0,0.000,0,0,0.060,0.004,0.020,0.040,-0.040,0.015,0.994,0.011,0.002,0.004,0.006,0.000,0.000,0.000,0.000,0,2,0,3,7,255,960,200,0,0,-89.360,0.847,-31.485
EX0521-092111,25,C07,prep,1056,1056,0,1216964.091,0.686,-0.675,0.196,0.188,0,0,0,0,0,0,0,0,0,0.000,0,0,0.049,0.004,0.020,-0.020,-0.040,0.014,0.993,0.011,0.002,0.004,0.000,0.000,0.000,0.000,0.000,0,2,0,3,7,255,960,200,0,0,-89.360,0.847,-31.485
EX0521-092111,25,C07,prep,1056,1056,0,1216969.091,0.686,-0.675,0.196,0.188,0,0,0,0,0,0,0,0,0,0.000,0,0,0.049,0.003,0.020,-0.020,-0.040,0.014,0.991,0.012,0.002,0.002,-0.004,0.000,0.000,0.000,0.000,0,2,0,3,7,255,960,200,0,0,-89.360,0.847,-31.485
EX0521-092111,25,C07,prep,1056,1056,0,1216974.092,0.686,-0.675,0.196,0.188,0,0,0,0,0,0,0,0,0,0.000,0,0,0.049,0.006,0.020,-0.020,-0.040,0.014,0.993,0.012,-0.006,0.002,-0.004,0.000,0.000,0.000,0.000,0,2,0,3,7,255,960,200,0,0,-89.360,0.847,-31.485
EX0521-092111,25,C07,prep,1077,1077,0,1216979.092,0.686,-0.675,0.196,0.188,0,0,0,0,0,0,0,0,0,0.000,0,0,0.104,0.006,-0.100,-0.020,0.020,0.014,0.994,0.012,-0.006,0.002,-0.004,0.000,0.000,0.000,0.000,0,2,0,3,7,255,960,200,0,0,-89.360,0.847,-31.485
EX0521-092111,25,C07,prep,1077,1077,0,1216984.092,0.686,-0.675,0.196,0.188,0,0,0,0,0,0,0,0,0,0.000,0,0,0.035,0.004,0.020,-0.020,0.020,0.015,0.993,0.011,-0.004,0.000,0.000,0.000,0.000,0.000,0.000,0,2,0,3,7,255,960,200,0,0,-89.360,0.847,-31.485
EX0521-092111,25,C07,prep,1108,1108,0,1216989.092,0.686,-0.675,0.196,0.188,0,0,0,0,0,0,0,0,0,0.000,0,0,0.035,0.002,0.020,-0.020,0.020,0.014,0.993,0.012,-0.002,0.000,0.000,0.000,0.000,0.000,0.000,0,2,0,3,7,255,960,200,0,0,-89.360,0.847,-31.485
EX0521-092111,25,C07,prep,1108,1108,0,1216994.091,0.686,-0.675,0.196,0.188,0,0,0,0,0,0,0,0,0,0.000,0,0,0.060,0.000,-0.040,-0.020,-0.040,0.014,0.993,0.012,0.000,0.000,-0.004,0.000,0.000,0.000,0.000,0,2,0,3,7,255,960,200,0,0,-89.360,0.847,-31.485
EX0521-092111,25,C07,prep,1109,1109,0,1216999.091,0.686,-0.675,0.196,0.188,0,0,0,0,0,0,0,0,0,0.000,0,0,0.049,0.000,0.020,-0.020,-0.040,0.015,0.993,0.012,0.000,0.000,-0.004,0.000,0.000,0.000,0.000,0,2,0,3,7,255,960,200,0,0,-89.360,0.847,-31.485
EX0521-092111,25,C07,prep,1109,1109,0,1217004.093,0.686,-0.675,0.196,0.188,0,0,0,0,0,0,0,0,0,0.000,0,0,0.035,0.004,0.020,-0.020,0.020,0.015,0.993,0.012,0.000,-0.004,-0.004,0.000,0.000,0.000,0.000,0,2,0,3,7,255,960,200,0,0,-89.360,0.848,-31.485
EX0521-092111,25,C07,prep,1109,1109,0,1217009.091,0.686,-0.675,0.196,0.188,0,0,0,0,0,0,0,0,0,0.000,0,0,0.060,0.006,0.020,0.040,-0.040,0.015,0.992,0.011,0.004,-0.004,-0.004,0.000,0.000,0.000,0.000,0,2,0,3,7,255,960,200,0,0,-89.360,0.848,-31.485
EX0521-092111,25,C07,prep,1109,1109,0,1217014.092,0.686,-0.675,0.196,0.188,0,0,0,0,0,0,0,0,0,0.000,0,0,0.049,0.000,-0.040,-0.020,0.020,0.014,0.994,0.012,0.000,0.000,0.002,0.000,0.000,0.000,0.000,0,2,0,3,7,255,960,200,0,0,-89.360,0.848,-31.485
EX0521-092111,25,C07,prep,1119,1119,0,1217019.092,0.686,-0.675,0.196,0.188,0,0,0,0,0,0,0,0,0,0.000,0,0,0.035,0.006,0.020,-0.020,0.020,0.015,0.994,0.012,0.006,0.000,0.006,0.000,0.000,0.000,0.000,0,2,0,3,7,255,960,200,0,0,-89.360,0.848,-31.485
EX0521-092111,25,C07,prep,1119,1119,0,1217024.092,0.686,-0.675,0.196,0.188,0,0,0,0,0,0,0,0,0,0.000,0,0,0.049,0.004,0.020,-0.020,-0.040,0.014,0.994,0.011,0.004,0.000,0.006,0.000,0.000,0.000,0.000,0,2,0,3,7,255,960,200,0,0,-89.360,0.848,-31.485
EX0521-092111,25,C07,prep,1119,1119,0,1217029.092,0.686,-0.675,0.196,0.188,0,0,0,0,0,0,0,0,0,0.000,0,0,0.092,0.004,0.080,-0.020,-0.040,0.014,0.993,0.012,0.004,0.002,0.006,0.000,0.000,0.000,0.000,0,2,0,3,7,255,960,200,0,0,-89.360,0.848,-31.485
EX0521-092111,25,C07,prep,1119,1119,0,1217034.091,0.686,-0.675,0.196,0.188,0,0,0,0,0,0,0,0,0,0.000,0,0,0.104,0.003,0.020,-0.020,-0.100,0.014,0.994,0.012,-0.002,0.002,0.006,0.000,0.000,0.000,0.000,0,2,0,3,7,255,960,200,0,0,-89.360,0.848,-31.485
EX0521-092111,25,C07,prep,1149,1149,0,1217039.091,0.686,-0.675,0.196,0.188,0,0,0,0,0,0,0,0,0,0.000,0,0,0.092,0.006,-0.040,-0.080,0.020,0.013,0.993,0.012,-0.006,0.002,0.000,0.000,0.000,0.000,0.000,0,2,0,3,7,255,960,200,0,0,-89.360,0.848,-31.485
EX0521-092111,25,C07,prep,1149,1149,0,1217044.092,0.686,-0.675,0.196,0.188,0,0,0,0,0,0,0,0,0,0.000,0,0,0.049,0.008,0.020,-0.020,-0.040,0.014,0.992,0.012,-0.008,0.000,-0.004,0.000,0.000,0.000,0.000,0,2,0,3,7,255,960,200,0,0,-89.360,0.848,-31.485
EX0521-092111,25,C07,prep,1149,1149,0,1217049.091,0.686,-0.675,0.196,0.188,0,0,0,0,0,0,0,0,0,0.000,0,0,0.049,0.008,0.020,-0.020,-0.040,0.015,0.993,0.011,-0.008,0.002,-0.004,0.000,0.000,0.000,0.000,0,2,0,3,7,255,960,200,0,0,-89.360,0.848,-31.485
EX0521-092111,25,C07,prep,1149,1149,0,1217054.092,0.686,-0.675,0.196,0.188,0,0,0,0,0,0,0,0,0,0.000,0,0,0.035,0.002,0.020,-0.020,0.020,0.015,0.993,0.012,0.000,-0.002,-0.004,0.000,0.000,0.000,0.000,0,2,0,3,7,255,960,200,0,0,-89.360,0.848,-31.485
EX0521-092111,25,C07,prep,1150,1150,0,1217059.092,0.686,-0.675,0.196,0.188,0,0,0,0,0,0,0,0,0,0.000,0,0,0.110,0.004,-0.040,-0.100,0.020,0.014,0.993,0.012,0.000,-0.004,-0.004,0.000,0.000,0.000,0.000,0,2,0,3,7,255,960,200,0,0,-89.360,0.848,-31.485
EX0521-092111,25,C07,prep,1150,1150,0,1217064.093,0.686,-0.675,0.196,0.188,0,0,0,0,0,0,0,0,0,0.000,0,0,0.049,0.006,0.020,-0.020,-0.040,0.014,0.993,0.012,-0.004,-0.004,-0.004,0.000,0.000,0.000,0.000,0,2,0,3,7,255,960,200,0,0,-89.360,0.848,-31.485
EX0521-092111,25,C07,prep,1176,1176,0,1217069.092,0.686,-0.675,0.196,0.188,0,0,0,0,0,0,0,0,0,0.000,0,0,0.060,0.006,-0.040,-0.020,-0.040,0.014,0.993,0.012,-0.004,-0.004,-0.004,0.000,0.000,0.000,0.000,0,2,0,3,7,255,960,200,0,0,-89.360,0.848,-31.485
EX0521-092111,25,C07,prep,1176,1176,0,1217074.091,0.686,-0.675,0.196,0.188,0,0,0,0,0,0,0,0,0,0.000,0,0,0.035,0.006,0.020,-0.020,0.020,0.015,0.993,0.012,-0.004,-0.004,-0.004,0.000,0.000,0.000,0.000,0,2,0,3,7,255,960,200,0,0,-89.360,0.848,-31.485
EX0521-092111,25,C07,prep,1176,1176,0,1217079.091,0.686,-0.675,0.196,0.188,0,0,0,0,0,0,0,0,0,0.000,0,0,0.085,0.006,0.080,-0.020,0.020,0.015,0.993,0.011,0.004,-0.004,-0.004,0.000,0.000,0.000,0.000,0,2,0,3,7,255,960,200,0,0,-89.360,0.848,-31.485
EX0521-092111,25,C07,prep,1176,1176,0,1217084.091,0.686,-0.675,0.196,0.188,0,0,0,0,0,0,0,0,0,0.000,0,0,0.049,0.006,0.020,-0.020,-0.040,0.015,0.993,0.011,0.006,0.000,0.002,0.000,0.000,0.000,0.000,0,2,0,3,7,255,960,200,0,0,-89.360,0.848,-31.485
EX0521-092111,25,C07,prep,1199,1199,0,1217089.091,0.686,-0.675,0.196,0.188,0,0,0,0,0,0,0,0,0,0.000,0,0,0.049,0.006,0.020,-0.020,-0.040,0.014,0.993,0.011,0.006,0.002,0.002,0.000,0.000,0.000,0.000,0,2,0,3,7,255,960,200,0,0,-89.360,0.848,-31.485
EX0521-092111,25,C07,prep,1199,1199,0,1217094.092,0.686,-0.675,0.196,0.188,0,0,0,0,0,0,0,0,0,0.000,0,0,0.110,0.006,-0.100,-0.020,-0.040,0.014,0.992,0.011,0.004,0.004,0.000,0.000,0.000,0.000,0.000,0,2,0,3,7,255,960,200,0,0,-89.360,0.848,-31.485
EX0521-092111,25,C07,prep,1199,1199,0,1217099.092,0.686,-0.675,0.196,0.188,0,0,0,0,0,0,0,0,0,0.000,0,0,0.060,0.006,-0.040,-0.020,-0.040,0.015,0.993,0.011,0.004,0.004,0.000,0.000,0.000,0.000,0.000,0,2,0,3,7,255,960,200,0,0,-89.360,0.848,-31.485
EX0521-092111,25,C07,prep,1199,1199,0,1217104.093,0.686,-0.675,0.196,0.188,0,0,0,0,0,0,0,0,0,0.000,0,0,0.049,0.006,-0.040,-0.020,0.020,0.015,0.994,0.011,0.006,0.000,0.002,0.000,0.000,0.000,0.000,0,2,0,3,7,255,960,200,0,0,-89.360,0.848,-31.485
EX0521-092111,25,C07,prep,1199,1199,0,1217109.092,0.686,-0.675,0.196,0.188,0,0,0,0,0,0,0,0,0,0.000,0,0,0.060,0.006,-0.040,-0.020,-0.040,0.014,0.993,0.011,0.006,0.000,0.002,0.000,0.000,0.000,0.000,0,2,0,3,7,255,960,200,0,0,-89.360,0.848,-31.485
EX0521-092111,25,C07,prep,1199,1199,0,1217114.091,0.686,-0.675,0.196,0.188,0,0,0,0,0,0,0,0,0,0.000,0,0,0.035,0.006,0.020,-0.020,0.020,0.014,0.994,0.011,0.004,0.004,0.006,0.000,0.000,0.000,0.000,0,2,0,3,7,255,960,200,0,0,-89.360,0.848,-31.485
EX0521-092111,25,C07,prep,1231,1231,0,1217119.091,0.686,-0.675,0.196,0.188,0,0,0,0,0,0,0,0,0,0.000,0,0,0.060,0.006,0.020,0.040,-0.040,0.015,0.993,0.011,0.004,0.004,0.000,0.000,0.000,0.000,0.000,0,2,0,3,7,255,960,200,0,0,-89.360,0.848,-31.485
EX0521-092111,25,C07,prep,1231,1231,0,1217124.091,0.686,-0.675,0.196,0.188,0,0,0,0,0,0,0,0,0,0.000,0,0,0.060,0.002,-0.040,-0.020,-0.040,0.014,0.993,0.012,0.000,0.002,-0.004,0.000,0.000,0.000,0.000,0,2,0,3,7,255,960,200,0,0,-89.360,0.848,-31.485
EX0521-092111,25,C07,prep,1231,1231,0,1217129.092,0.686,-0.675,0.196,0.188,0,0,0,0,0,0,0,0,0,0.000,0,0,0.035,0.002,0.020,-0.020,0.020,0.014,0.993,0.012,-0.002,0.000,-0.004,0.000,0.000,0.000,0.000,0,2,0,3,7,255,960,200,0,0,-89.360,0.848,-31.485
EX0521-092111,25,C07,prep,1231,1231,0,1217134.092,0.686,-0.675,0.196,0.188,0,0,0,0,0,0,0,0,0,0.000,0,0,0.049,0.002,0.020,-0.020,-0.040,0.016,0.993,0.011,-0.002,0.000,0.002,0.000,0.000,0.000,0.000,0,2,0,3,7,255,960,200,0,0,-89.360,0.848,-31.485
EX0521-092111,25,C07,prep,1231,1231,0,1217139.092,0.686,-0.675,0.196,0.188,0,0,0,0,0,0,0,0,0,0.000,0,0,0.049,0.000,0.020,-0.020,-0.040,0.014,0.994,0.011,0.000,0.000,0.002,0.000,0.000,0.000,0.000,0,2,0,3,7,255,960,200,0,0,-89.360,0.848,-31.485
EX0521-092111,25,C07,prep,1231,1231,0,1217144.092,0.686,-0.675,0.196,0.188,0,0,0,0,0,0,0,0,0,0.000,0,0,0.098,0.004,0.080,0.040,-0.040,0.014,0.993,0.011,0.000,0.004,0.002,0.000,0.000,0.000,0.000,0,2,0,3,7,255,960,200,0,0,-89.360,0.848,-31.485
EX0521-092111,25,C07,prep,1247,1247,0,1217149.092,0.686,-0.675,0.196,0.188,0,0,0,0,0,0,0,0,0,0.000,0,0,0.049,0.004,-0.040,-0.020,0.020,0.015,0.994,0.012,0.000,0.004,0.006,0.000,0.000,0.000,0.000,0,2,0,3,7,255,960,200,0,0,-89.360,0.848,-31.485
EX0521-092111,25,C07,prep,1247,1247,0,1217154.091,0.686,-0.675,0.196,0.188,0,0,0,0,0,0,0,0,0,0.000,0,0,0.049,0.007,0.020,-0.020,-0.040,0.014,0.993,0.011,-0.004,0.006,-0.004,0.000,0.000,0.000,0.000,0,2,0,3,7,255,960,200,0,0,-89.360,0.848,-31.485
EX0521-092111,25,C07,prep,1247,1247,0,1217159.095,0.686,-0.675,0.196,0.188,0,0,0,0,0,0,0,0,0,0.000,0,0,0.049,0.006,0.020,-0.020,-0.040,0.014,0.994,0.012,-0.004,-0.004,0.010,0.000,0.000,0.000,0.000,0,2,0,3,7,255,960,200,0,0,-89.360,0.848,-31.485
EX0521-092111,25,C07,prep,1247,1247,0,1217164.091,0.686,-0.675,0.196,0.188,0,0,0,0,0,0,0,0,0,0.000,0,0,0.049,0.007,0.020,-0.020,-0.040,0.014,0.995,0.011,-0.004,0.006,0.010,0.000,0.000,0.000,0.000,0,2,0,3,7,255,960,200,0,0,-89.360,0.848,-31.485
EX0521-092111,25,C07,prep,1263,1263,0,1217169.092,0.686,-0.675,0.196,0.188,0,0,0,0,0,0,0,0,0,0.000,0,0,0.035,0.000,0.020,-0.020,0.020,0.015,0.993,0.011,0.000,0.000,0.010,0.000,0.000,0.000,0.000,0,2,0,3,7,255,960,200,0,0,-89.360,0.848,-31.485
EX0521-092111,25,C07,prep,1263,1263,0,1217174.092,0.686,-0.675,0.196,0.188,0,0,0,0,0,0,0,0,0,0.000,0,0,0.049,0.010,0.020,-0.020,-0.040,0.013,0.994,0.011,0.000,0.010,0.006,0.000,0.000,0.000,0.000,0,2,0,3,7,255,960,200,0,0,-89.360,0.848,-31.485
EX0521-092111,25,C07,prep,1279,1279,0,1217179.092,0.686,-0.675,0.196,0.188,0,0,0,0,0,0,0,0,0,0.000,0,0,0.035,0.006,0.020,-0.020,0.020,0.014,0.992,0.013,-0.006,0.000,0.000,0.000,0.000,0.000,0.000,0,2,0,3,7,255,960,200,0,0,-89.360,0.848,-31.485
EX0521-092111,25,C07,prep,1279,1279,0,1217184.092,0.686,-0.675,0.196,0.188,0,0,0,0,0,0,0,0,0,0.000,0,0,0.060,0.010,-0.040,-0.020,-0.040,0.014,0.993,0.011,-0.006,0.008,0.000,0.000,0.000,0.000,0.000,0,2,0,3,7,255,960,200,0,0,-89.360,0.848,-31.485
EX0521-092111,25,C07,prep,1279,1279,0,1217189.092,0.686,-0.675,0.196,0.188,0,0,0,0,0,0,0,0,0,0.000,0,0,0.060,0.006,-0.040,-0.020,-0.040,0.015,0.993,0.011,0.004,0.004,-0.004,0.000,0.000,0.000,0.000,0,2,0,3,7,255,960,200,0,0,-89.360,0.848,-31.485
EX0521-092111,25,C07,prep,1279,1279,0,1217194.091,0.686,-0.675,0.196,0.188,0,0,0,0,0,0,0,0,0,0.000,0,0,0.049,0.011,-0.040,-0.020,0.020,0.015,0.994,0.010,0.008,0.008,0.000,0.000,0.000,0.000,0.000,0,2,0,3,7,255,960,200,0,0,-89.360,0.848,-31.485
EX0521-092111,25,C07,prep,1313,1313,0,1217199.091,0.686,-0.675,0.196,0.188,0,0,0,0,0,0,0,0,0,0.000,0,0,0.060,0.009,-0.040,-0.020,-0.040,0.014,0.993,0.012,0.008,0.004,-0.004,0.000,0.000,0.000,0.000,0,2,0,3,7,255,960,200,0,0,-89.360,0.848,-31.485
EX0521-092111,25,C07,prep,1313,1313,0,1217204.093,0.686,-0.675,0.196,0.188,0,0,0,0,0,0,0,0,0,0.000,0,0,0.120,0.007,0.080,-0.080,-0.040,0.014,0.992,0.011,0.004,0.006,-0.004,0.000,0.000,0.000,0.000,0,2,0,3,7,255,960,200,0,0,-89.360,0.848,-31.485
EX0521-092111,25,C07,prep,1313,1313,0,1217209.092,0.686,-0.675,0.196,0.188,0,0,0,0,0,0,0,0,0,0.000,0,0,0.049,0.003,0.020,-0.020,-0.040,0.015,0.992,0.012,0.002,-0.002,-0.014,0.000,0.000,0.000,0.000,0,2,0,3,7,255,960,200,0,0,-89.360,0.848,-31.485
EX0521-092111,25,C07,prep,1313,1313,0,1217214.092,0.686,-0.675,0.196,0.188,0,0,0,0,0,0,0,0,0,0.000,0,0,0.035,0.003,0.020,-0.020,0.020,0.014,0.993,0.012,0.002,0.002,-0.014,0.000,0.000,0.000,0.000,0,2,0,3,7,255,960,200,0,0,-89.360,0.848,-31.485
EX0521-092111,25,C07,prep,1313,1313,0,1217219.092,0.686,-0.675,0.196,0.188,0,0,0,0,0,0,0,0,0,0.000,0,0,0.049,0.006,0.020,-0.020,-0.040,0.014,0.992,0.012,-0.006,0.002,-0.008,0.000,0.000,0.000,0.000,0,2,0,3,7,255,960,200,0,0,-89.360,0.848,-31.485
EX0521-092111,25,C07,prep,1313,1313,0,1217224.092,0.686,-0.675,0.196,0.188,0,0,0,0,0,0,0,0,0,0.000,0,0,0.049,0.006,0.020,-0.020,-0.040,0.015,0.993,0.011,-0.006,0.002,-0.004,0.000,0.000,0.000,0.000,0,2,0,3,7,255,960,200,0,0,-89.360,0.848,-31.485
EX0521-092111,25,C07,prep,1327,1327,0,1217229.091,0.686,-0.675,0.196,0.188,0,0,0,0,0,0,0,0,0,0.000,0,0,0.035,0.003,0.020,-0.020,0.020,0.015,0.993,0.012,0.002,-0.002,-0.004,0.000,0.000,0.000,0.000,0,2,0,3,7,255,960,200,0,0,-89.360,0.848,-31.485
EX0521-092111,25,C07,prep,1327,1327,0,1217234.091,0.686,-0.675,0.196,0.188,0,0,0,0,0,0,0,0,0,0.000,0,0,0.104,0.003,0.020,-0.100,0.020,0.014,0.992,0.012,0.002,-0.002,-0.004,0.000,0.000,0.000,0.000,0,2,0,3,7,255,960,200,0,0,-89.360,0.848,-31.485
EX0521-092111,25,C07,prep,1327,1327,0,1217239.091,0.686,-0.675,0.196,0.188,0,0,0,0,0,0,0,0,0,0.000,0,0,0.049,0.004,-0.040,-0.020,0.020,0.015,0.993,0.012,0.002,-0.004,-0.004,0.000,0.000,0.000,0.000,0,2,0,3,7,255,960,200,0,0,-89.360,0.848,-31.485
EX0521-092111,25,C07,prep,1327,1327,0,1217244.092,0.686,-0.675,0.196,0.188,0,0,0,0,0,0,0,0,0,0.000,0,0,0.049,0.003,0.020,0.040,0.020,0.014,0.993,0.011,-0.002,-0.002,0.002,0.000,0.000,0.000,0.000,0,2,0,3,7,255,960,200,0,0,-89.360,0.848,-31.485
EX0521-092111,25,C07,prep,1343,1343,0,1217249.092,0.686,-0.675,0.196,0.188,0,0,0,0,0,0,0,0,0,0.000,0,0,0.035,0.003,0.020,-0.020,0.020,0.014,0.993,0.012,-0.002,-0.002,0.002,0.000,0.000,0.000,0.000,0,2,0,3,7,255,960,200,0,0,-89.360,0.848,-31.485
EX0521-092111,25,C07,prep,1343,1343,0,1217254.092,0.686,-0.675,0.196,0.188,0,0,0,0,0,0,0,0,0,0.000,0,0,0.035,0.004,0.020,-0.020,0.020,0.014,0.991,0.013,-0.004,-0.002,0.002,0.000,0.000,0.000,0.000,0,2,0,3,7,255,960,200,0,0,-89.361,0.848,-31.485
EX0521-092111,25,C07,prep,1359,1359,0,1217259.092,0.686,-0.675,0.196,0.188,0,0,0,0,0,0,0,0,0,0.000,0,0,0.049,0.003,-0.040,-0.020,0.020,0.015,0.993,0.011,-0.002,-0.002,-0.004,0.000,0.000,0.000,0.000,0,2,0,3,7,255,960,200,0,0,-89.361,0.848,-31.485
EX0521-092111,25,C07,prep,1359,1359,0,1217264.092,0.686,-0.675,0.196,0.188,0,0,0,0,0,0,0,0,0,0.000,0,0,0.049,0.008,0.020,-0.020,-0.040,0.015,0.993,0.012,0.006,-0.006,-0.004,0.000,0.000,0.000,0.000,0,2,0,3,7,255,960,200,0,0,-89.361,0.848,-31.485
EX0521-092111,25,C07,prep,1359,1359,0,1217269.091,0.686,-0.675,0.196,0.188,0,0,0,0,0,0,0,0,0,0.000,0,0,0.098,0.008,0.080,0.040,-0.040,0.015,0.993,0.013,0.006,-0.006,-0.004,0.000,0.000,0.000,0.000,0,2,0,3,7,255,960,200,0,0,-89.361,0.848,-31.485
EX0521-092111,25,C07,prep,1359,1359,0,1217274.091,0.686,-0.675,0.196,0.188,0,0,0,0,0,0,0,0,0,0.000,0,0,0.035,0.006,0.020,-0.020,0.020,0.014,0.993,0.012,-0.002,-0.006,0.002,0.000,0.000,0.000,0.000,0,2,0,3,7,255,960,200,0,0,-89.361,0.848,-31.485
EX0521-092111,25,C07,prep,1375,1375,0,1217279.091,0.686,-0.675,0.196,0.188,0,0,0,0,0,0,0,0,0,0.000,0,0,0.049,0.004,0.020,-0.020,-0.040,0.015,0.992,0.012,-0.002,-0.004,0.002,0.000,0.000,0.000,0.000,0,2,0,3,7,255,960,200,0,0,-89.361,0.848,-31.485
EX0521-092111,25,C07,prep,1375,1375,0,1217284.092,0.686,-0.675,0.196,0.188,0,0,0,0,0,0,0,0,0,0.000,0,0,0.035,0.003,0.020,-0.020,0.020,0.014,0.992,0.012,-0.002,-0.002,-0.008,0.000,0.000,0.000,0.000,0,2,0,3,7,255,960,200,0,0,-89.361,0.848,-31.485
EX0521-092111,25,C07,prep,1407,1407,0,1217289.092,0.686,-0.675,0.196,0.188,0,0,0,0,0,0,0,0,0,0.000,0,0,0.035,0.004,0.020,-0.020,0.020,0.015,0.993,0.012,0.002,-0.004,-0.008,0.000,0.000,0.000,0.000,0,2,0,3,7,255,960,200,0,0,-89.361,0.848,-31.485
EX0521-092111,25,C07,prep,1407,1407,0,1217294.092,0.686,-0.675,0.196,0.188,0,0,0,0,0,0,0,0,0,0.000,0,0,0.060,0.002,-0.040,0.040,0.020,0.014,0.994,0.011,0.000,-0.002,-0.004,0.000,0.000,0.000,0.000,0,2,0,3,7,255,960,200,0,0,-89.361,0.848,-31.485
EX0521-092111,25,C07,prep,1407,1407,0,1217299.092,0.686,-0.675,0.196,0.188,0,0,0,0,0,0,0,0,0,0.000,0,0,0.049,0.004,0.020,-0.020,-0.040,0.014,0.993,0.011,0.000,0.004,0.002,0.000,0.000,0.000,0.000,0,2,0,3,7,255,960,200,0,0,-89.361,0.848,-31.485
EX0521-092111,25,C07,prep,1407,1407,0,1217304.093,0.686,-0.675,0.196,0.188,0,0,0,0,0,0,0,0,0,0.000,0,0,0.035,0.004,0.020,-0.020,0.020,0.015,0.993,0.012,0.000,0.004,0.002,0.000,0.000,0.000,0.000,0,2,0,3,7,255,960,200,0,0,-89.361,0.848,-31.485
EX0521-092111,25,C07,prep,1407,1407,0,1217309.091,0.686,-0.675,0.196,0.188,0,0,0,0,0,0,0,0,0,0.000,0,0,0.049,0.002,0.020,-0.020,-0.040,0.014,0.992,0.012,0.000,0.002,-0.004,0.000,0.000,0.000,0.000,0,2,0,3,7,255,960,200,0,0,-89.361,0.848,-31.485
EX0521-092111,25,C07,prep,1407,1407,0,1217314.091,0.686,-0.675,0.196,0.188,0,0,0,0,0,0,0,0,0,0.000,0,0,0.049,0.004,0.020,-0.020,-0.040,0.015,0.993,0.012,0.002,-0.004,-0.004,0.000,0.000,0.000,0.000,0,2,0,3,7,255,960,200,0,0,-89.361,0.848,-31.485
EX0521-092111,25,C07,prep,1423,1423,0,1217319.091,0.686,-0.675,0.196,0.188,0,0,0,0,0,0,0,0,0,0.000,0,0,0.035,0.007,0.020,-0.020,0.020,0.014,0.992,0.012,-0.004,-0.006,-0.008,0.000,0.000,0.000,0.000,0,2,0,3,7,255,960,200,0,0,-89.361,0.848,-31.485
EX0521-092111,25,C07,prep,1423,1423,0,1217324.092,0.686,-0.675,0.196,0.188,0,0,0,0,0,0,0,0,0,0.000,0,0,0.049,0.008,0.020,-0.020,-0.040,0.015,0.992,0.012,0.006,-0.006,-0.008,0.000,0.000,0.000,0.000,0,2,0,3,7,255,960,200,0,0,-89.361,0.848,-31.485
EX0521-092111,25,C07,prep,1423,1423,0,1217329.092,0.686,-0.675,0.196,0.188,0,0,0,0,0,0,0,0,0,0.000,0,0,0.060,0.007,0.020,0.040,-0.040,0.015,0.992,0.011,0.004,-0.006,-0.008,0.000,0.000,0.000,0.000,0,2,0,3,7,255,960,200,0,0,-89.361,0.848,-31.485
EX0521-092111,25,C07,prep,1423,1423,0,1217334.092,0.686,-0.675,0.196,0.188,0,0,0,0,0,0,0,0,0,0.000,0,0,0.049,0.004,0.020,-0.020,-0.040,0.014,0.992,0.012,0.004,-0.002,-0.008,0.000,0.000,0.000,0.000,0,2,0,3,7,255,960,200,0,0,-89.361,0.848,-31.485
EX0521-092111,25,C07,prep,1423,1423,0,1217339.092,0.686,-0.675,0.196,0.188,0,0,0,0,0,0,0,0,0,0.000,0,0,0.035,0.002,0.020,-0.020,0.020,0.014,0.993,0.012,-0.002,0.000,-0.008,0.000,0.000,0.000,0.000,0,2,0,3,7,255,960,200,0,0,-89.361,0.848,-31.485
EX0521-092111,25,C07,prep,1423,1423,0,1217344.092,0.686,-0.675,0.196,0.188,0,0,0,0,0,0,0,0,0,0.000,0,0,0.060,0.003,-0.040,-0.020,-0.040,0.015,0.995,0.012,-0.002,-0.002,-0.002,0.000,0.000,0.000,0.000,0,2,0,3,7,255,960,200,0,0,-89.361,0.848,-31.485
EX0521-092111,25,C07,prep,1439,1439,0,1217349.091,0.686,-0.675,0.196,0.188,0,0,0,0,0,0,0,0,0,0.000,0,0,0.035,0.004,0.020,-0.020,0.020,0.014,0.992,0.011,0.004,0.000,-0.002,0.000,0.000,0.000,0.000,0,2,0,3,7,255,960,200,0,0,-89.361,0.848,-31.485
EX0521-092111,25,C07,prep,1439,1439,0,1217354.091,0.686,-0.675,0.196,0.188,0,0,0,0,0,0,0,0,0,0.000,0,0,0.060,0.008,-0.040,-0.020,-0.040,0.015,0.992,0.012,0.006,-0.006,-0.008,0.000,0.000,0.000,0.000,0,2,0,3,7,255,960,200,0,0,-89.361,0.848,-31.485
EX0521-092111,25,C07,prep,1455,1455,0,1217359.093,0.686,-0.675,0.196,0.188,0,0,0,0,0,0,0,0,0,0.000,0,0,0.092,0.006,0.080,-0.020,-0.040,0.013,0.993,0.012,0.004,0.004,-0.008,0.000,0.000,0.000,0.000,0,2,0,3,7,255,960,200,0,0,-89.361,0.848,-31.485
EX0521-092111,25,C07,prep,1455,1455,0,1217364.092,0.686,-0.675,0.196,0.188,0,0,0,0,0,0,0,0,0,0.000,0,0,0.069,0.006,-0.040,0.040,-0.040,0.014,0.993,0.012,-0.006,0.002,-0.002,0.000,0.000,0.000,0.000,0,2,0,3,7,255,960,200,0,0,-89.361,0.848,-31.485
EX0521-092111,25,C07,prep,1455,1455,0,1217369.092,0.686,-0.675,0.196,0.188,0,0,0,0,0,0,0,0,0,0.000,0,0,0.049,0.006,0.020,-0.020,-0.040,0.014,0.994,0.012,-0.006,0.002,0.002,0.000,0.000,0.000,0.000,0,2,0,3,7,255,960,200,0,0,-89.361,0.848,-31.485
EX0521-092111,25,C07,prep,1455,1455,0,1217374.092,0.686,-0.675,0.196,0.188,0,0,0,0,0,0,0,0,0,0.000,0,0,0.035,0.006,0.020,-0.020,0.020,0.015,0.991,0.011,-0.006,0.002,-0.002,0.000,0.000,0.000,0.000,0,2,0,3,7,255,960,200,0,0,-89.361,0.848,-31.485
EX0521-092111,25,C07,prep,1471,1471,0,1217379.092,0.686,-0.675,0.196,0.188,0,0,0,0,0,0,0,0,0,0.000,0,0,0.060,0.004,0.020,0.040,-0.040,0.014,0.993,0.011,0.004,0.002,0.002,0.000,0.000,0.000,0.000,0,2,0,3,7,255,960,200,0,0,-89.361,0.848,-31.485
EX0521-092111,25,C07,prep,1471,1471,0,1217384.091,0.686,-0.675,0.196,0.188,0,0,0,0,0,0,0,0,0,0.000,0,0,0.049,0.004,0.020,-0.020,-0.040,0.015,0.994,0.012,0.004,-0.002,0.002,0.000,0.000,0.000,0.000,0,2,0,3,7,255,960,200,0,0,-89.361,0.848,-31.485
EX0521-092111,25,C07,prep,1503,1503,0,1217389.091,0.686,-0.675,0.196,0.188,0,0,0,0,0,0,0,0,0,0.000,0,0,0.049,0.004,-0.040,-0.020,0.020,0.015,0.994,0.011,0.004,0.002,0.008,0.000,0.000,0.000,0.000,0,2,0,3,7,255,960,200,0,0,-89.361,0.848,-31.485
EX0521-092111,25,C07,prep,1503,1503,0,1217394.091,0.686,-0.675,0.196,0.188,0,0,0,0,0,0,0,0,0,0.000,0,0,0.049,0.002,-0.040,-0.020,0.020,0.014,0.993,0.011,0.000,0.002,0.008,0.000,0.000,0.000,0.000,0,2,0,3,7,255,960,200,0,0,-89.361,0.848,-31.485
EX0521-092111,25,C07,prep,1503,1503,0,1217399.091,0.686,-0.675,0.196,0.188,0,0,0,0,0,0,0,0,0,0.000,0,0,0.060,0.004,0.020,0.040,-0.040,0.014,0.993,0.011,0.000,0.004,-0.002,0.000,0.000,0.000,0.000,0,2,0,3,7,255,960,200,0,0,-89.361,0.848,-31.485
EX0521-092111,25,C07,prep,1503,1503,0,1217404.093,0.686,-0.675,0.196,0.188,0,0,0,0,0,0,0,0,0,0.000,0,0,0.049,0.004,0.020,-0.020,-0.040,0.016,0.994,0.012,0.000,0.004,-0.002,0.000,0.000,0.000,0.000,0,2,0,3,7,255,960,200,0,0,-89.361,0.848,-31.485
EX0521-092111,25,C07,prep,1503,1503,0,1217409.092,0.686,-0.675,0.196,0.188,0,0,0,0,0,0,0,0,0,0.000,0,0,0.060,0.004,-0.040,-0.020,-0.040,0.015,0.993,0.011,0.004,0.000,-0.002,0.000,0.000,0.000,0.000,0,2,0,3,7,255,960,200,0,0,-89.361,0.848,-31.485
EX0521-092111,25,C07,prep,1503,1503,0,1217414.092,0.686,-0.675,0.196,0.188,0,0,0,0,0,0,0,0,0,0.000,0,0,0.098,0.010,0.080,0.040,-0.040,0.015,0.993,0.011,0.010,0.000,0.002,0.000,0.000,0.000,0.000,0,2,0,3,7,255,960,200,0,0,-89.361,0.848,-31.485
EX0521-092111,25,C07,prep,1519,1519,0,1217419.092,0.686,-0.675,0.196,0.188,0,0,0,0,0,0,0,0,0,0.000,0,0,0.110,0.006,0.020,-0.100,-0.040,0.015,0.994,0.011,0.006,0.002,0.002,0.000,0.000,0.000,0.000,0,2,0,3,7,255,960,200,0,0,-89.361,0.848,-31.485
EX0521-092111,25,C07,prep,1519,1519,0,1217424.091,0.686,-0.675,0.196,0.188,0,0,0,0,0,0,0,0,0,0.000,0,0,0.049,0.007,0.020,-0.020,-0.040,0.014,0.993,0.011,0.006,0.004,0.002,0.000,0.000,0.000,0.000,0,2,0,3,7,255,960,200,0,0,-89.361,0.848,-31.485
EX0521-092111,25,C07,prep,1542,1542,0,1217429.091,0.686,-0.675,0.196,0.188,0,0,0,0,0,0,0,0,0,0.000,0,0,0.049,0.007,0.020,0.040,0.020,0.016,0.992,0.012,0.006,0.004,-0.004,0.000,0.000,0.000,0.000,0,2,0,3,7,255,960,200,0,0,-89.361,0.848,-31.485
EX0521-092111,25,C07,prep,1542,1542,0,1217434.091,0.686,-0.675,0.196,0.188,0,0,0,0,0,0,0,0,0,0.000,0,0,0.060,0.006,-0.040,-0.020,-0.040,0.014,0.993,0.012,-0.004,-0.004,-0.004,0.000,0.000,0.000,0.000,0,2,0,3,7,255,960,200,0,0,-89.361,0.848,-31.485
EX0521-092111,25,C07,prep,1542,1542,0,1217439.092,0.686,-0.675,0.196,0.188,0,0,0,0,0,0,0,0,0,0.000,0,0,0.049,0.004,0.020,-0.020,-0.040,0.014,0.992,0.011,-0.002,-0.004,-0.008,0.000,0.000,0.000,0.000,0,2,0,3,7,255,960,200,0,0,-89.361,0.848,-31.485
EX0521-092111,25,C07,prep,1542,1542,0,1217444.092,0.686,-0.675,0.196,0.188,0,0,0,0,0,0,0,0,0,0.000,0,0,0.049,0.003,0.020,0.040,0.020,0.014,0.991,0.012,-0.002,-0.002,-0.008,0.000,0.000,0.000,0.000,0,2,0,3,7,255,960,200,0,0,-89.361,0.848,-31.485
EX0521-092111,25,C07,prep,1542,1542,0,1217449.092,0.686,-0.675,0.196,0.188,0,0,0,0,0,0,0,0,0,0.000,0,0,0.049,0.006,0.020,-0.020,-0.040,0.014,0.993,0.011,-0.002,0.006,-0.008,0.000,0.000,0.000,0.000,0,2,0,3,7,255,960,200,0,0,-89.361,0.848,-31.485
EX0521-092111,25,C07,prep,1542,1542,0,1217454.092,0.686,-0.675,0.196,0.188,0,0,0,0,0,0,0,0,0,0.000,0,0,0.049,0.004,0.020,-0.020,-0.040,0.014,0.993,0.012,-0.004,-0.002,0.002,0.000,0.000,0.000,0.000,0,2,0,3,7,255,960,200,0,0,-89.361,0.848,-31.485
EX0521-092111,25,C07,prep,1543,1543,0,1217459.092,0.686,-0.675,0.196,0.188,0,0,0,0,0,0,0,0,0,0.000,0,0,0.049,0.004,0.020,-0.020,-0.040,0.013,0.993,0.012,-0.004,0.000,0.002,0.000,0.000,0.000,0.000,0,2,0,3,7,255,960,200,0,0,-89.361,0.848,-31.485
EX0521-092111,25,C07,prep,1543,1543,0,1217464.091,0.686,-0.675,0.196,0.188,0,0,0,0,0,0,0,0,0,0.000,0,0,0.060,0.006,-0.040,-0.020,-0.040,0.015,0.993,0.012,-0.004,-0.004,-0.002,0.000,0.000,0.000,0.000,0,2,0,3,7,255,960,200,0,0,-89.361,0.848,-31.485
EX0521-092111,25,C07,prep,1580,1580,0,1217469.091,0.686,-0.675,0.196,0.188,0,0,0,0,0,0,0,0,0,0.000,0,0,0.049,0.000,0.020,0.040,0.020,0.014,0.993,0.011,0.000,0.000,-0.002,0.000,0.000,0.000,0.000,0,2,0,3,7,255,960,200,0,0,-89.361,0.848,-31.485
EX0521-092111,25,C07,prep,1580,1580,0,1217474.091,0.686,-0.675,0.196,0.188,0,0,0,0,0,0,0,0,0,0.000,0,0,0.069,0.000,-0.040,0.040,-0.040,0.014,0.994,0.012,0.000,0.000,0.002,0.000,0.000,0.000,0.000,0,2,0,3,7,255,960,200,0,0,-89.361,0.848,-31.485
EX0521-092111,25,C07,prep,1580,1580,0,1217479.092,0.686,-0.675,0.196,0.188,0,0,0,0,0,0,0,0,0,0.000,0,0,0.060,0.004,0.020,0.040,-0.040,0.015,0.993,0.012,0.004,0.000,0.002,0.000,0.000,0.000,0.000,0,2,0,3,7,255,960,200,0,0,-89.361,0.848,-31.485
EX0521-092111,25,C07,prep,1580,1580,0,1217484.092,0.686,-0.675,0.196,0.188,0,0,0,0,0,0,0,0,0,0.000,0,0,0.049,0.004,0.020,-0.020,-0.040,0.014,0.992,0.012,-0.002,-0.004,0.002,0.000,0.000,0.000,0.000,0,2,0,3,7,255,960,200,0,0,-89.361,0.848,-31.485
EX0521-092111,25,C07,prep,1580,1580,0,1217489.092,0.686,-0.675,0.196,0.188,0,0,0,0,0,0,0,0,0,0.000,0,0,0.104,0.004,0.020,-0.100,0.020,0.014,0.993,0.011,0.000,-0.004,0.002,0.000,0.000,0.000,0.000,0,2,0,3,7,255,960,200,0,0,-89.361,0.848,-31.485
EX0521-092111,25,C07,prep,1580,1580,0,1217494.092,0.686,-0.675,0.196,0.188,0,0,0,0,0,0,0,0,0,0.000,0,0,0.049,0.006,-0.040,-0.020,0.020,0.013,0.994,0.012,-0.004,0.004,0.002,0.000,0.000,0.000,0.000,0,2,0,3,7,255,960,200,0,0,-89.361,0.848,-31.485
EX0521-092111,25,C07,prep,1617,1617,0,1217499.092,0.686,-0.675,0.196,0.188,0,0,0,0,0,0,0,0,0,0.000,0,0,0.110,0.004,0.020,-0.100,-0.040,0.014,0.993,0.011,0.000,0.004,0.002,0.000,0.000,0.000,0.000,0,2,0,3,7,255,960,200,0,0,-89.361,0.848,-31.485
EX0521-092111,25,C07,prep,1617,1617,0,1217504.093,0.686,-0.675,0.196,0.188,0,0,0,0,0,0,0,0,0,0.000,0,0,0.049,0.004,0.020,-0.020,-0.040,0.014,0.992,0.012,-0.002,0.004,-0.002,0.000,0.000,0.000,0.000,0,2,0,3,7,255,960,200,0,0,-89.361,0.848,-31.485
EX0521-092111,25,C07,prep,1617,1617,0,1217509.091,0.686,-0.675,0.196,0.188,0,0,0,0,0,0,0,0,0,0.000,0,0,0.035,0.009,0.020,-0.020,0.020,0.014,0.993,0.011,0.004,0.008,-0.002,0.000,0.000,0.000,0.000,0,2,0,3,7,255,960,200,0,0,-89.361,0.848,-31.485
EX0521-092111,25,C07,prep,1617,1617,0,1217514.091,0.686,-0.675,0.196,0.188,0,0,0,0,0,0,0,0,0,0.000,0,0,0.049,0.009,0.020,-0.020,-0.040,0.014,0.993,0.011,0.004,0.008,0.002,0.000,0.000,0.000,0.000,0,2,0,3,7,255,960,200,0,0,-89.361,0.848,-31.485
EX0521-092111,25,C07,prep,1617,1617,0,1217519.092,0.686,-0.675,0.196,0.188,0,0,0,0,0,0,0,0,0,0.000,0,0,0.092,0.009,0.080,-0.020,-0.040,0.013,0.993,0.011,0.004,0.008,0.002,0.000,0.000,0.000,0.000,0,2,0,3,7,255,960,200,0,0,-89.361,0.848,-31.485
EX0521-092111,25,C07,prep,1617,1617,0,1217524.092,0.686,-0.675,0.196,0.188,0,0,0,0,0,0,0,0,0,0.000,0,0,0.143,0.009,0.020,-0.100,-0.100,0.016,0.993,0.012,0.004,0.008,0.002,0.000,0.000,0.000,0.000,0,2,0,3,7,255,960,200,0,0,-89.361,0.848,-31.485
EX0521-092111,25,C07,prep,1617,1617,0,1217529.092,0.686,-0.675,0.196,0.188,0,0,0,0,0,0,0,0,0,0.000,0,0,0.060,0.008,-0.040,-0.020,-0.040,0.015,0.993,0.011,0.008,-0.002,-0.002,0.000,0.000,0.000,0.000,0,2,0,3,7,255,960,200,0,0,-89.361,0.848,-31.485
EX0521-092111,25,C07,prep,1617,1617,0,1217534.092,0.686,-0.675,0.196,0.188,0,0,0,0,0,0,0,0,0,0.000,0,0,0.060,0.011,-0.040,-0.020,-0.040,0.016,0.993,0.012,0.008,-0.008,-0.002,0.000,0.000,0.000,0.000,0,2,0,3,7,255,960,200,0,0,-89.361,0.848,-31.485
EX0521-092111,25,C07,prep,1631,1631,0,1217539.092,0.686,-0.675,0.196,0.188,0,0,0,0,0,0,0,0,0,0.000,0,0,0.049,0.008,-0.040,-0.020,0.020,0.015,0.993,0.011,0.008,-0.002,-0.002,0.000,0.000,0.000,0.000,0,2,0,3,7,255,960,200,0,0,-89.361,0.848,-31.485
EX0521-092111,25,C07,prep,1631,1631,0,1217544.092,0.686,-0.675,0.196,0.188,0,0,0,0,0,0,0,0,0,0.000,0,0,0.049,0.006,0.020,-0.020,-0.040,0.014,0.993,0.012,0.004,-0.004,-0.002,0.000,0.000,0.000,0.000,0,2,0,3,7,255,960,200,0,0,-89.361,0.848,-31.485
EX0521-092111,25,C07,prep,1647,1647,0,1217549.091,0.686,-0.675,0.196,0.188,0,0,0,0,0,0,0,0,0,0.000,0,0,0.035,0.006,0.020,-0.020,0.020,0.016,0.994,0.012,0.004,-0.004,0.002,0.000,0.000,0.000,0.000,0,2,0,3,7,255,960,200,0,0,-89.361,0.848,-31.485
EX0521-092111,25,C07,prep,1647,1647,0,1217554.091,0.686,-0.675,0.196,0.188,0,0,0,0,0,0,0,0,0,0.000,0,0,0.049,0.004,0.020,-0.020,-0.040,0.014,0.993,0.011,0.000,-0.004,0.002,0.000,0.000,0.000,0.000,0,2,0,3,7,255,960,200,0,0,-89.361,0.848,-31.485
EX0521-092111,25,C07,prep,1647,1647,0,1217559.093,0.686,-0.675,0.196,0.188,0,0,0,0,0,0,0,0,0,0.000,0,0,0.060,0.008,-0.040,-0.020,-0.040,0.015,0.993,0.012,0.000,-0.008,0.002,0.000,0.000,0.000,0.000,0,2,0,3,7,255,960,200,0,0,-89.361,0.848,-31.485
EX0521-092111,25,C07,prep,1647,1647,0,1217564.092,0.686,-0.675,0.196,0.188,0,0,0,0,0,0,0,0,0,0.000,0,0,0.060,0.004,-0.040,-0.020,-0.040,0.013,0.992,0.012,0.000,0.004,0.002,0.000,0.000,0.000,0.000,0,2,0,3,7,255,960,200,0,0,-89.361,0.848,-31.485
EX0521-092111,25,C07,prep,1663,1663,0,1217569.092,0.686,-0.675,0.196,0.188,0,0,0,0,0,0,0,0,0,0.000,0,0,0.049,0.006,0.020,-0.020,-0.040,0.015,0.993,0.012,0.000,-0.006,0.002,0.000,0.000,0.000,0.000,0,2,0,3,7,255,960,200,0,0,-89.361,0.848,-31.485
EX0521-092111,25,C07,prep,1663,1663,0,1217574.092,0.686,-0.675,0.196,0.188,0,0,0,0,0,0,0,0,0,0.000,0,0,0.049,0.010,0.020,-0.020,-0.040,0.014,0.993,0.013,-0.008,-0.006,-0.002,0.000,0.000,0.000,0.000,0,2,0,3,7,255,960,200,0,0,-89.361,0.848,-31.485
EX0521-092111,25,C07,prep,1663,1663,0,1217579.091,0.686,-0.675,0.196,0.188,0,0,0,0,0,0,0,0,0,0.000,0,0,0.035,0.006,0.020,-0.020,0.020,0.014,0.993,0.012,-0.002,-0.006,-0.002,0.000,0.000,0.000,0.000,0,2,0,3,7,255,960,200,0,0,-89.361,0.848,-31.485
EX0521-092111,25,C07,prep,1663,1663,0,1217584.091,0.686,-0.675,0.196,0.188,0,0,0,0,0,0,0,0,0,0.000,0,0,0.049,0.006,-0.040,-0.020,0.020,0.014,0.994,0.012,-0.004,-0.004,-0.002,0.000,0.000,0.000,0.000,0,2,0,3,7,255,960,200,0,0,-89.361,0.848,-31.485
EX0521-092111,25,C07,prep,1711,1711,0,1217589.091,0.686,-0.675,0.196,0.188,0,0,0,0,0,0,0,0,0,0.000,0,0,0.049,0.002,0.020,-0.020,-0.040,0.014,0.993,0.011,-0.002,0.000,0.002,0.000,0.000,0.000,0.000,0,2,0,3,7,255,960,200,0,0,-89.361,0.848,-31.485
EX0521-092111,25,C07,prep,1711,1711,0,1217594.091,0.686,-0.675,0.196,0.188,0,0,0,0,0,0,0,0,0,0.000,0,0,0.060,0.006,-0.040,-0.020,-0.040,0.014,0.993,0.013,-0.004,-0.004,0.002,0.000,0.000,0.000,0.000,0,2,0,3,7,255,960,200,0,0,-89.361,0.848,-31.485
EX0521-092111,25,C07,prep,1711,1711,0,1217599.092,0.686,-0.675,0.196,0.188,0,0,0,0,0,0,0,0,0,0.000,0,0,0.085,0.002,0.080,-0.020,0.020,0.014,0.994,0.012,-0.002,0.000,0.002,0.000,0.000,0.000,0.000,0,2,0,3,7,255,960,200,0,0,-89.361,0.848,-31.485
EX0521-092111,25,C07,prep,1711,1711,0,1217604.093,0.686,-0.675,0.196,0.188,0,0,0,0,0,0,0,0,0,0.000,0,0,0.060,0.012,-0.040,-0.020,-0.040,0.013,0.994,0.013,-0.012,-0.002,0.006,0.000,0.000,0.000,0.000,0,2,0,3,7,255,960,200,0,0,-89.361,0.848,-31.485
EX0521-092111,25,C07,prep,1711,1711,0,1217609.092,0.686,-0.675,0.196,0.188,0,0,0,0,0,0,0,0,0,0.000,0,0,0.060,0.002,0.020,0.040,-0.040,0.014,0.994,0.012,-0.002,0.000,0.006,0.000,0.000,0.000,0.000,0,2,0,3,7,255,960,200,0,0,-89.361,0.848,-31.485
EX0521-092111,25,C07,prep,1711,1711,0,1217614.092,0.686,-0.675,0.196,0.188,0,0,0,0,0,0,0,0,0,0.000,0,0,0.060,0.002,-0.040,-0.020,-0.040,0.014,0.993,0.011,-0.002,0.000,0.006,0.000,0.000,0.000,0.000,0,2,0,3,7,255,960,200,0,0,-89.361,0.848,-31.485
EX0521-092111,25,C07,prep,1727,1727,0,1217619.091,0.686,-0.675,0.196,0.188,0,0,0,0,0,0,0,0,0,0.000,0,0,0.035,0.000,0.020,-0.020,0.020,0.016,0.993,0.011,0.000,0.000,0.002,0.000,0.000,0.000,0.000,0,2,0,3,7,255,960,200,0,0,-89.361,0.848,-31.485
EX0521-092111,25,C07,prep,1727,1727,0,1217624.091,0.686,-0.675,0.196,0.188,0,0,0,0,0,0,0,0,0,0.000,0,0,0.035,0.000,0.020,-0.020,0.020,0.014,0.993,0.012,0.000,0.000,0.002,0.000,0.000,0.000,0.000,0,2,0,3,7,255,960,200,0,0,-89.361,0.848,-31.485
EX0521-092111,25,C07,prep,1727,1727,0,1217629.091,0.686,-0.675,0.196,0.188,0,0,0,0,0,0,0,0,0,0.000,0,0,0.092,0.008,0.020,-0.080,-0.040,0.015,0.993,0.011,0.008,-0.002,0.002,0.000,0.000,0.000,0.000,0,2,0,3,7,255,960,200,0,0,-89.361,0.848,-31.485
EX0521-092111,25,C07,prep,1727,1727,0,1217634.092,0.686,-0.675,0.196,0.188,0,0,0,0,0,0,0,0,0,0.000,0,0,0.049,0.008,0.020,-0.020,-0.040,0.013,0.993,0.012,-0.008,-0.002,-0.002,0.000,0.000,0.000,0.000,0,2,0,3,7,255,960,200,0,0,-89.361,0.848,-31.485
EX0521-092111,25,C07,prep,1727,1727,0,1217639.092,0.686,-0.675,0.196,0.188,0,0,0,0,0,0,0,0,0,0.000,0,0,0.049,0.006,0.020,-0.020,-0.040,0.014,0.992,0.012,-0.006,0.002,-0.004,0.000,0.000,0.000,0.000,0,2,0,3,7,255,960,200,0,0,-89.361,0.848,-31.485
EX0521-092111,25,C07,prep,1727,1727,0,1217644.092,0.686,-0.675,0.196,0.188,0,0,0,0,0,0,0,0,0,0.000,0,0,0.049,0.006,0.020,-0.020,-0.040,0.015,0.995,0.012,-0.006,0.002,-0.004,0.000,0.000,0.000,0.000,0,2,0,3,7,255,960,200,0,0,-89.361,0.848,-31.485
EX0521-092111,25,C07,prep,1744,1744,0,1217649.092,0.686,-0.675,0.196,0.188,0,0,0,0,0,0,0,0,0,0.000,0,0,0.035,0.004,0.020,-0.020,0.020,0.015,0.993,0.011,0.004,0.002,-0.002,0.000,0.000,0.000,0.000,0,2,0,3,7,255,960,200,0,0,-89.361,0.848,-31.485
EX0521-092111,25,C07,prep,1744,1744,0,1217654.092,0.686,-0.675,0.196,0.188,0,0,0,0,0,0,0,0,0,0.000,0,0,0.049,0.004,0.020,-0.020,-0.040,0.015,0.992,0.011,0.004,0.000,-0.002,0.000,0.000,0.000,0.000,0,2,0,3,7,255,960,200,0,0,-89.361,0.848,-31.485
EX0521-092111,25,C07,prep,1745,1745,0,1217659.091,0.686,-0.675,0.196,0.188,0,0,0,0,0,0,0,0,0,0.000,0,0,0.049,0.004,0.020,-0.020,-0.040,0.015,0.993,0.011,0.004,0.002,-0.002,0.000,0.000,0.000,0.000,0,2,0,3,7,255,960,200,0,0,-89.361,0.848,-31.485
EX0521-092111,25,C07,prep,1745,1745,0,1217664.091,0.686,-0.675,0.196,0.188,0,0,0,0,0,0,0,0,0,0.000,0,0,0.049,0.004,0.020,-0.020,-0.040,0.014,0.993,0.012,0.004,0.002,-0.002,0.000,0.000,0.000,0.000,0,2,0,3,7,255,960,200,0,0,-89.361,0.848,-31.485
EX0521-092111,25,C07,prep,1759,1759,0,1217669.091,0.686,-0.675,0.196,0.188,0,0,0,0,0,0,0,0,0,0.000,0,0,0.060,0.003,-0.040,-0.020,-0.040,0.014,0.993,0.012,-0.002,0.002,0.002,0.000,0.000,0.000,0.000,0,2,0,3,7,255,960,200,0,0,-89.361,0.848,-31.485
EX0521-092111,25,C07,prep,1759,1759,0,1217674.092,0.686,-0.675,0.196,0.188,0,0,0,0,0,0,0,0,0,0.000,0,0,0.049,0.004,-0.040,-0.020,0.020,0.014,0.993,0.011,-0.004,0.002,0.002,0.000,0.000,0.000,0.000,0,2,0,3,7,255,960,200,0,0,-89.361,0.848,-31.485
EX0521-092111,25,C07,prep,1777,1777,0,1217679.092,0.686,-0.675,0.196,0.188,0,0,0,0,0,0,0,0,0,0.000,0,0,0.060,0.002,0.020,0.040,-0.040,0.015,0.993,0.012,-0.002,0.000,0.002,0.000,0.000,0.000,0.000,0,2,0,3,7,255,960,200,0,0,-89.361,0.848,-31.485
EX0521-092111,25,C07,prep,1777,1777,0,1217684.092,0.686,-0.675,0.196,0.188,0,0,0,0,0,0,0,0,0,0.000,0,0,0.049,0.004,0.020,-0.020,-0.040,0.014,0.993,0.012,-0.004,-0.002,-0.002,0.000,0.000,0.000,0.000,0,2,0,3,7,255,960,200,0,0,-89.361,0.848,-31.485
EX0521-092111,25,C07,prep,1814,1814,0,1217689.092,0.686,-0.675,0.196,0.188,0,0,0,0,0,0,0,0,0,0.000,0,0,0.035,0.008,0.020,-0.020,0.020,0.015,0.993,0.013,-0.002,-0.008,-0.002,0.000,0.000,0.000,0.000,0,2,0,3,7,255,960,200,0,0,-89.361,0.848,-31.485
EX0521-092111,25,C07,prep,1814,1814,0,1217694.092,0.686,-0.675,0.196,0.188,0,0,0,0,0,0,0,0,0,0.000,0,0,0.092,0.006,0.020,-0.080,-0.040,0.015,0.993,0.012,-0.002,-0.006,0.002,0.000,0.000,0.000,0.000,0,2,0,3,7,255,960,200,0,0,-89.361,0.848,-31.485
EX0521-092111,25,C07,prep,1823,1823,0,1217699.091,0.686,-0.675,0.196,0.188,0,0,0,0,0,0,0,0,0,0.000,0,0,0.035,0.006,0.020,-0.020,0.020,0.015,0.992,0.011,0.000,-0.006,0.002,0.000,0.000,0.000,0.000,0,2,0,3,7,255,960,200,0,0,-89.361,0.848,-31.485
EX0521-092111,25,C07,prep,1823,1823,0,1217704.093,0.686,-0.675,0.196,0.188,0,0,0,0,0,0,0,0,0,0.000,0,0,0.049,0.003,0.020,-0.020,-0.040,0.015,0.993,0.012,0.002,-0.002,0.002,0.000,0.000,0.000,0.000,0,2,0,3,7,255,960,200,0,0,-89.361,0.848,-31.485
EX0521-092111,25,C07,prep,1823,1823,0,1217709.091,0.686,-0.675,0.196,0.188,0,0,0,0,0,0,0,0,0,0.000,0,0,0.069,0.003,-0.040,-0.040,-0.040,0.015,0.993,0.012,0.002,-0.002,0.002,0.000,0.000,0.000,0.000,0,2,0,3,7,255,960,200,0,0,-89.361,0.848,-31.485
EX0521-092111,25,C07,prep,1823,1823,0,1217714.092,0.686,-0.675,0.196,0.188,0,0,0,0,0,0,0,0,0,0.000,0,0,0.060,0.006,0.020,-0.040,-0.040,0.015,0.992,0.012,0.000,-0.006,0.002,0.000,0.000,0.000,0.000,0,2,0,3,7,255,960,200,0,0,-89.361,0.848,-31.485
EX0521-092111,25,C07,prep,1823,1823,0,1217719.092,0.686,-0.675,0.196,0.188,0,0,0,0,0,0,0,0,0,0.000,0,0,0.069,0.006,-0.040,-0.040,-0.040,0.014,0.993,0.011,0.000,-0.006,-0.002,0.000,0.000,0.000,0.000,0,2,0,3,7,255,960,200,0,0,-89.361,0.848,-31.485
EX0521-092111,25,C07,prep,1823,1823,0,1217724.092,0.686,-0.675,0.196,0.188,0,0,0,0,0,0,0,0,0,0.000,0,0,0.098,0.004,0.080,-0.040,-0.040,0.014,0.993,0.011,0.000,0.004,-0.002,0.000,0.000,0.000,0.000,0,2,0,3,7,255,960,200,0,0,-89.361,0.849,-31.485
EX0521-092111,25,C07,prep,1823,1823,0,1217729.092,0.686,-0.675,0.196,0.188,0,0,0,0,0,0,0,0,0,0.000,0,0,0.060,0.006,0.020,-0.040,-0.040,0.014,0.994,0.011,0.000,0.006,-0.002,0.000,0.000,0.000,0.000,0,2,0,3,7,255,960,200,0,0,-89.361,0.849,-31.485
EX0521-092111,25,C07,prep,1823,1823,0,1217734.092,0.686,-0.675,0.196,0.188,0,0,0,0,0,0,0,0,0,0.000,0,0,0.104,0.007,0.020,-0.100,0.020,0.015,0.992,0.011,0.004,0.006,-0.002,0.000,0.000,0.000,0.000,0,2,0,3,7,255,960,200,0,0,-89.361,0.849,-31.485
EX0521-092111,25,C07,prep,1823,1823,0,1217739.091,0.686,-0.675,0.196,0.188,0,0,0,0,0,0,0,0,0,0.000,0,0,0.060,0.004,-0.040,-0.040,0.020,0.015,0.992,0.012,0.004,0.002,-0.008,0.000,0.000,0.000,0.000,0,2,0,3,7,255,960,200,0,0,-89.361,0.849,-31.485
EX0521-092111,25,C07,prep,1824,1824,0,1217744.092,0.686,-0.675,0.196,0.188,0,0,0,0,0,0,0,0,0,0.000,0,0,0.069,0.002,-0.040,-0.040,-0.040,0.014,0.992,0.012,0.000,0.002,-0.012,0.000,0.000,0.000,0.000,0,2,0,3,7,255,960,200,0,0,-89.361,0.849,-31.485
EX0521-092111,25,C07,prep,1839,1839,0,1217749.091,0.686,-0.675,0.196,0.188,0,0,0,0,0,0,0,0,0,0.000,0,0,0.060,0.006,0.020,-0.040,-0.040,0.016,0.993,0.012,0.000,-0.006,-0.008,0.000,0.000,0.000,0.000,0,2,0,3,7,255,960,200,0,0,-89.361,0.849,-31.485
EX0521-092111,25,C07,prep,1839,1839,0,1217754.092,0.686,-0.675,0.196,0.188,0,0,0,0,0,0,0,0,0,0.000,0,0,0.060,0.004,0.020,-0.040,-0.040,0.014,0.993,0.011,-0.004,0.002,-0.002,0.000,0.000,0.000,0.000,0,2,0,3,7,255,960,200,0,0,-89.361,0.849,-31.485
EX0521-092111,25,C07,prep,1855,1855,0,1217759.094,0.686,-0.675,0.196,0.188,0,0,0,0,0,0,0,0,0,0.000,0,0,0.049,0.003,-0.040,-0.020,0.020,0.015,0.993,0.012,0.002,-0.002,0.002,0.000,0.000,0.000,0.000,0,2,0,3,7,255,960,200,0,0,-89.361,0.849,-31.485
EX0521-092111,25,C07,prep,1855,1855,0,1217764.092,0.686,-0.675,0.196,0.188,0,0,0,0,0,0,0,0,0,0.000,0,0,0.035,0.003,0.020,-0.020,0.020,0.015,0.994,0.012,0.002,-0.002,0.002,0.000,0.000,0.000,0.000,0,2,0,3,7,255,960,200,0,0,-89.361,0.849,-31.485
EX0521-092111,25,C07,prep,1876,1876,0,1217769.092,0.686,-0.675,0.196,0.188,0,0,0,0,0,0,0,0,0,0.000,0,0,0.060,0.003,-0.040,-0.020,-0.040,0.015,0.993,0.012,0.002,-0.002,0.002,0.000,0.000,0.000,0.000,0,2,0,3,7,255,960,200,0,0,-89.361,0.849,-31.485
EX0521-092111,25,C07,prep,1876,1876,0,1217774.092,0.686,-0.675,0.196,0.188,0,0,0,0,0,0,0,0,0,0.000,0,0,0.049,0.003,0.020,-0.020,-0.040,0.014,0.993,0.012,0.002,-0.002,0.002,0.000,0.000,0.000,0.000,0,2,0,3,7,255,960,200,0,0,-89.361,0.849,-31.485
EX0521-092111,25,C07,prep,1876,1876,0,1217779.091,0.686,-0.675,0.196,0.188,0,0,0,0,0,0,0,0,0,0.000,0,0,0.060,0.000,-0.040,-0.020,-0.040,0.014,0.994,0.011,0.000,0.000,0.002,0.000,0.000,0.000,0.000,0,2,0,3,7,255,960,200,0,0,-89.361,0.849,-31.485
EX0521-092111,25,C07,prep,1876,1876,0,1217784.091,0.686,-0.675,0.196,0.188,0,0,0,0,0,0,0,0,0,0.000,0,0,0.060,0.004,-0.040,-0.020,-0.040,0.014,0.993,0.011,0.000,0.004,0.002,0.000,0.000,0.000,0.000,0,2,0,3,7,255,960,200,0,0,-89.361,0.849,-31.485
EX0521-092111,25,C07,prep,1876,1876,0,1217789.091,0.686,-0.675,0.196,0.188,0,0,0,0,0,0,0,0,0,0.000,0,0,0.035,0.004,0.020,-0.020,0.020,0.014,0.992,0.011,0.000,0.004,0.002,0.000,0.000,0.000,0.000,0,2,0,3,7,255,960,200,0,0,-89.361,0.849,-31.485
EX0521-092111,25,C07,prep,1876,1876,0,1217794.092,0.686,-0.675,0.196,0.188,0,0,0,0,0,0,0,0,0,0.000,0,0,0.060,0.004,-0.040,-0.020,-0.040,0.015,0.993,0.011,0.000,0.004,-0.002,0.000,0.000,0.000,0.000,0,2,0,3,7,255,960,200,0,0,-89.361,0.849,-31.485
EX0521-092111,25,C07,prep,1914,1914,0,1217799.092,0.686,-0.675,0.196,0.188,0,0,0,0,0,0,0,0,0,0.000,0,0,0.049,0.002,0.020,-0.020,-0.040,0.014,0.993,0.012,-0.002,0.000,-0.002,0.000,0.000,0.000,0.000,0,2,0,3,7,255,960,200,0,0,-89.361,0.849,-31.485
EX0521-092111,25,C07,prep,1914,1914,0,1217804.093,0.686,-0.675,0.196,0.188,0,0,0,0,0,0,0,0,0,0.000,0,0,0.035,0.002,0.020,-0.020,0.020,0.014,0.993,0.012,-0.002,0.000,-0.002,0.000,0.000,0.000,0.000,0,2,0,3,7,255,960,200,0,0,-89.361,0.849,-31.485
EX0521-092111,25,C07,prep,1918,1918,0,1217809.092,0.686,-0.675,0.196,0.188,0,0,0,0,0,0,0,0,0,0.000,0,0,0.049,0.002,0.020,-0.020,-0.040,0.013,0.992,0.011,-0.002,0.000,-0.002,0.000,0.000,0.000,0.000,0,2,0,3,7,255,960,200,0,0,-89.361,0.849,-31.485
EX0521-092111,25,C07,prep,1918,1918,0,1217814.092,0.686,-0.675,0.196,0.188,0,0,0,0,0,0,0,0,0,0.000,0,0,0.060,0.004,-0.040,-0.020,-0.040,0.014,0.993,0.012,-0.004,0.000,-0.002,0.000,0.000,0.000,0.000,0,2,0,3,7,255,960,200,0,0,-89.361,0.849,-31.485
EX0521-092111,25,C07,prep,1918,1918,0,1217819.092,0.686,-0.675,0.196,0.188,0,0,0,0,0,0,0,0,0,0.000,0,0,0.060,0.006,-0.040,-0.020,-0.040,0.014,0.993,0.011,-0.004,0.004,-0.002,0.000,0.000,0.000,0.000,0,2,0,3,7,255,960,200,0,0,-89.361,0.849,-31.485
EX0521-092111,25,C07,prep,1918,1918,0,1217824.091,0.686,-0.675,0.196,0.188,0,0,0,0,0,0,0,0,0,0.000,0,0,0.049,0.002,-0.040,-0.020,0.020,0.015,0.992,0.011,0.000,-0.002,-0.002,0.000,0.000,0.000,0.000,0,2,0,3,7,255,960,200,0,0,-89.361,0.849,-31.485
EX0521-092111,25,C07,prep,1939,1939,0,1217829.091,0.686,-0.675,0.196,0.188,0,0,0,0,0,0,0,0,0,0.000,0,0,0.049,0.004,-0.040,-0.020,0.020,0.014,0.994,0.010,0.002,0.004,-0.002,0.000,0.000,0.000,0.000,0,2,0,3,7,255,960,200,0,0,-89.361,0.849,-31.485
EX0521-092111,25,C07,prep,1939,1939,0,1217834.091,0.686,-0.675,0.196,0.188,0,0,0,0,0,0,0,0,0,0.000,0,0,0.049,0.003,0.020,-0.020,-0.040,0.014,0.993,0.012,0.002,-0.002,-0.002,0.000,0.000,0.000,0.000,0,2,0,3,7,255,960,200,0,0,-89.361,0.849,-31.485
EX0521-092111,25,C07,prep,1939,1939,0,1217839.092,0.686,-0.675,0.196,0.188,0,0,0,0,0,0,0,0,0,0.000,0,0,0.049,0.004,0.020,-0.020,-0.040,0.014,0.992,0.012,-0.004,-0.002,-0.002,0.000,0.000,0.000,0.000,0,2,0,3,7,255,960,200,0,0,-89.361,0.849,-31.485
EX0521-092111,25,C07,prep,1939,1939,0,1217844.092,0.686,-0.675,0.196,0.188,0,0,0,0,0,0,0,0,0,0.000,0,0,0.035,0.006,0.020,-0.020,0.020,0.015,0.993,0.012,-0.004,-0.004,-0.002,0.000,0.000,0.000,0.000,0,2,0,3,7,255,960,200,0,0,-89.361,0.849,-31.485
EX0521-092111,25,C07,prep,1939,1939,0,1217849.092,0.686,-0.675,0.196,0.188,0,0,0,0,0,0,0,0,0,0.000,0,0,0.060,0.002,-0.040,-0.020,-0.040,0.015,0.993,0.012,0.000,-0.002,-0.002,0.000,0.000,0.000,0.000,0,2,0,3,7,255,960,200,0,0,-89.361,0.849,-31.485
EX0521-092111,25,C07,prep,1939,1939,0,1217854.092,0.686,-0.675,0.196,0.188,0,0,0,0,0,0,0,0,0,0.000,0,0,0.049,0.003,0.020,0.040,0.020,0.015,0.995,0.012,0.002,-0.002,0.002,0.000,0.000,0.000,0.000,0,2,0,3,7,255,960,200,0,0,-89.361,0.849,-31.485
EX0521-092111,25,C07,prep,1951,1951,0,1217859.091,0.686,-0.675,0.196,0.188,0,0,0,0,0,0,0,0,0,0.000,0,0,0.049,0.003,-0.040,-0.020,0.020,0.014,0.993,0.012,0.002,-0.002,0.002,0.000,0.000,0.000,0.000,0,2,0,3,7,255,960,200,0,0,-89.361,0.849,-31.485
EX0521-092111,25,C07,prep,1951,1951,0,1217864.091,0.686,-0.675,0.196,0.188,0,0,0,0,0,0,0,0,0,0.000,0,0,0.092,0.003,0.080,-0.020,-0.040,0.015,0.993,0.011,0.002,-0.002,0.002,0.000,0.000,0.000,0.000,0,2,0,3,7,255,960,200,0,0,-89.361,0.849,-31.485
EX0521-092111,25,C07,prep,1976,1976,0,1217869.091,0.686,-0.675,0.196,0.188,0,0,0,0,0,0,0,0,0,0.000,0,0,0.035,0.006,0.020,-0.020,0.020,0.014,0.993,0.013,-0.004,-0.004,0.002,0.000,0.000,0.000,0.000,0,2,0,3,7,255,960,200,0,0,-89.361,0.849,-31.485
EX0521-092111,25,C07,prep,1976,1976,0,1217874.091,0.686,-0.675,0.196,0.188,0,0,0,0,0,0,0,0,0,0.000,0,0,0.049,0.006,0.020,0.040,0.020,0.013,0.992,0.011,-0.006,-0.002,0.002,0.000,0.000,0.000,0.000,0,2,0,3,7,255,960,200,0,0,-89.361,0.849,-31.485
EX0521-092111,25,C07,prep,1976,1976,0,1217879.092,0.686,-0.675,0.196,0.188,0,0,0,0,0,0,0,0,0,0.000,0,0,0.049,0.007,-0.040,-0.020,0.020,0.014,0.993,0.011,-0.006,0.004,0.002,0.000,0.000,0.000,0.000,0,2,0,3,7,255,960,200,0,0,-89.361,0.849,-31.485
EX0521-092111,25,C07,prep,1976,1976,0,1217884.092,0.686,-0.675,0.196,0.188,0,0,0,0,0,0,0,0,0,0.000,0,0,0.049,0.004,-0.040,-0.020,0.020,0.014,0.992,0.012,-0.002,0.004,-0.008,0.000,0.000,0.000,0.000,0,2,0,3,7,255,960,200,0,0,-89.361,0.849,-31.485
EX0521-092111,25,C07,prep,2039,2039,0,1217889.092,0.686,-0.675,0.196,0.188,0,0,0,0,0,0,0,0,0,0.000,0,0,0.069,0.002,-0.040,0.040,-0.040,0.014,0.992,0.012,-0.002,0.000,-0.008,0.000,0.000,0.000,0.000,0,2,0,3,7,255,960,200,0,0,-89.361,0.849,-31.485
EX0521-092111,25,C07,prep,2039,2039,0,1217894.092,0.686,-0.675,0.196,0.188,0,0,0,0,0,0,0,0,0,0.000,0,0,0.049,0.002,0.020,-0.020,-0.040,0.014,0.993,0.012,-0.002,0.000,-0.008,0.000,0.000,0.000,0.000,0,2,0,3,7,255,960,200,0,0,-89.361,0.849,-31.485
EX0521-092111,25,C07,prep,2039,2039,0,1217899.091,0.686,-0.675,0.196,0.188,0,0,0,0,0,0,0,0,0,0.000,0,0,0.035,0.002,0.020,-0.020,0.020,0.014,0.993,0.010,-0.002,0.000,-0.002,0.000,0.000,0.000,0.000,0,2,0,3,7,255,960,200,0,0,-89.361,0.849,-31.485
EX0521-092111,25,C07,prep,2039,2039,0,1217904.093,0.686,-0.675,0.196,0.188,0,0,0,0,0,0,0,0,0,0.000,0,0,0.060,0.006,-0.040,-0.020,-0.040,0.015,0.993,0.011,0.006,-0.002,-0.002,0.000,0.000,0.000,0.000,0,2,0,3,7,255,960,200,0,0,-89.361,0.849,-31.485
EX0521-092111,25,C07,prep,2039,2039,0,1217909.091,0.686,-0.675,0.196,0.188,0,0,0,0,0,0,0,0,0,0.000,0,0,0.049,0.006,-0.040,-0.020,0.020,0.014,0.993,0.012,0.006,-0.002,-0.002,0.000,0.000,0.000,0.000,0,2,0,3,7,255,960,200,0,0,-89.361,0.849,-31.485
EX0521-092111,25,C07,prep,2039,2039,0,1217914.091,0.686,-0.675,0.196,0.188,0,0,0,0,0,0,0,0,0,0.000,0,0,0.035,0.007,0.020,-0.020,0.020,0.015,0.994,0.012,0.006,-0.004,-0.002,0.000,0.000,0.000,0.000,0,2,0,3,7,255,960,200,0,0,-89.361,0.849,-31.485
EX0521-092111,25,C07,prep,2039,2039,0,1217919.092,0.686,-0.675,0.196,0.188,0,0,0,0,0,0,0,0,0,0.000,0,0,0.060,0.006,-0.040,-0.020,-0.040,0.015,0.993,0.011,0.004,-0.004,0.002,0.000,0.000,0.000,0.000,0,2,0,3,7,255,960,200,0,0,-89.361,0.849,-31.485
EX0521-092111,25,C07,prep,2039,2039,0,1217924.092,0.686,-0.675,0.196,0.188,0,0,0,0,0,0,0,0,0,0.000,0,0,0.049,0.004,0.020,-0.020,-0.040,0.014,0.993,0.011,0.004,0.002,0.002,0.000,0.000,0.000,0.000,0,2,0,3,7,255,960,200,0,0,-89.361,0.849,-31.485
EX0521-092111,25,C07,prep,2039,2039,0,1217929.092,0.686,-0.675,0.196,0.188,0,0,0,0,0,0,0,0,0,0.000,0,0,0.060,0.004,-0.040,-0.020,-0.040,0.015,0.994,0.011,0.004,0.002,0.002,0.000,0.000,0.000,0.000,0,2,0,3,7,255,960,200,0,0,-89.361,0.849,-31.485
EX0521-092111,25,C07,prep,2039,2039,0,1217934.092,0.686,-0.675,0.196,0.188,0,0,0,0,0,0,0,0,0,0.000,0,0,0.110,0.004,-0.040,-0.100,0.020,0.013,0.993,0.012,0.000,0.004,0.002,0.000,0.000,0.000,0.000,0,2,0,3,7,255,960,200,0,0,-89.361,0.849,-31.485
EX0521-092111,25,C07,prep,2039,2039,0,1217939.092,0.686,-0.675,0.196,0.188,0,0,0,0,0,0,0,0,0,0.000,0,0,0.035,0.006,0.020,-0.020,0.020,0.014,0.994,0.010,0.004,0.004,0.006,0.000,0.000,0.000,0.000,0,2,0,3,7,255,960,200,0,0,-89.361,0.849,-31.485
EX0521-092111,25,C07,prep,2039,2039,0,1217944.092,0.686,-0.675,0.196,0.188,0,0,0,0,0,0,0,0,0,0.000,0,0,0.049,0.006,-0.040,-0.020,0.020,0.015,0.993,0.011,0.004,0.004,0.002,0.000,0.000,0.000,0.000,0,2,0,3,7,255,960,200,0,0,-89.361,0.849,-31.485
EX0521-092111,25,C07,prep,2041,2041,0,1217949.091,0.686,-0.675,0.196,0.188,0,0,0,0,0,0,0,0,0,0.000,0,0,0.035,0.004,0.020,-0.020,0.020,0.014,0.993,0.012,0.004,0.002,0.002,0.000,0.000,0.000,0.000,0,2,0,3,7,255,960,200,0,0,-89.361,0.849,-31.485
EX0521-092111,25,C07,prep,2041,2041,0,1217954.091,0.686,-0.675,0.196,0.188,0,0,0,0,0,0,0,0,0,0.000,0,0,0.035,0.003,0.020,-0.020,0.020,0.014,0.993,0.012,-0.002,0.002,0.002,0.000,0.000,0.000,0.000,0,2,0,3,7,255,960,200,0,0,-89.361,0.849,-31.485
EX0521-092111,25,C07,prep,2047,2047,0,1217959.095,0.686,-0.675,0.196,0.188,0,0,0,0,0,0,0,0,0,0.000,0,0,0.060,0.003,0.020,0.040,-0.040,0.014,0.993,0.011,-0.002,0.002,0.002,0.000,0.000,0.000,0.000,0,2,0,3,7,255,960,200,0,0,-89.361,0.849,-31.485
EX0521-092111,25,C07,prep,2047,2047,0,1217964.092,0.686,-0.675,0.196,0.188,0,0,0,0,0,0,0,0,0,0.000,0,0,0.104,0.007,0.020,-0.100,0.020,0.013,0.994,0.011,-0.006,0.004,0.002,0.000,0.000,0.000,0.000,0,2,0,3,7,255,960,200,0,0,-89.361,0.849,-31.485
EX0521-092111,25,C07,prep,2063,2063,0,1217969.092,0.686,-0.675,0.196,0.188,0,0,0,0,0,0,0,0,0,0.000,0,0,0.092,0.004,0.080,-0.020,-0.040,0.014,0.993,0.012,-0.002,0.004,0.002,0.000,0.000,0.000,0.000,0,2,0,3,7,255,960,200,0,0,-89.361,0.849,-31.485
EX0521-092111,25,C07,prep,2063,2063,0,1217974.092,0.686,-0.675,0.196,0.188,0,0,0,0,0,0,0,0,0,0.000,0,0,0.049,0.004,0.020,-0.020,-0.040,0.014,0.992,0.011,-0.002,0.004,0.002,0.000,0.000,0.000,0.000,0,2,0,3,7,255,960,200,0,0,-89.361,0.849,-31.485
EX0521-092111,25,C07,prep,2079,2079,0,1217979.092,0.686,-0.675,0.196,0.188,0,0,0,0,0,0,0,0,0,0.000,0,0,0.049,0.004,0.020,-0.020,-0.040,0.014,0.994,0.011,-0.002,0.004,0.002,0.000,0.000,0.000,0.000,0,2,0,3,7,255,960,200,0,0,-89.361,0.849,-31.485
EX0521-092111,25,C07,prep,2079,2079,0,1217984.091,0.686,-0.675,0.196,0.188,0,0,0,0,0,0,0,0,0,0.000,0,0,0.060,0.004,-0.040,-0.020,-0.040,0.016,0.993,0.012,0.000,0.004,-0.002,0.000,0.000,0.000,0.000,0,2,0,3,7,255,960,200,0,0,-89.361,0.849,-31.485
EX0521-092111,25,C07,prep,2111,2111,0,1217989.091,0.686,-0.675,0.196,0.188,0,0,0,0,0,0,0,0,0,0.000,0,0,0.049,0.004,0.020,0.040,0.020,0.014,0.993,0.011,0.000,0.004,0.002,0.000,0.000,0.000,0.000,0,2,0,3,7,255,960,200,0,0,-89.361,0.849,-31.485
EX0521-092111,25,C07,prep,2111,2111,0,1217994.091,0.686,-0.675,0.196,0.188,0,0,0,0,0,0,0,0,0,0.000,0,0,0.060,0.004,-0.040,-0.020,-0.040,0.015,0.993,0.012,0.002,-0.004,-0.002,0.000,0.000,0.000,0.000,0,2,0,3,7,255,960,200,0,0,-89.361,0.849,-31.485
EX0521-092111,25,C07,prep,2111,2111,0,1217999.092,0.686,-0.675,0.196,0.188,0,0,0,0,0,0,0,0,0,0.000,0,0,0.049,0.004,0.020,-0.020,-0.040,0.015,0.993,0.012,0.002,-0.004,-0.002,0.000,0.000,0.000,0.000,0,2,0,3,7,255,960,200,0,0,-89.361,0.849,-31.485
EX0521-092111,25,C07,prep,2111,2111,0,1218004.095,0.686,-0.675,0.196,0.188,0,0,0,0,0,0,0,0,0,0.000,0,0,0.049,0.004,0.020,-0.020,-0.040,0.014,0.992,0.010,0.002,-0.004,-0.002,0.000,0.000,0.000,0.000,0,2,0,3,7,255,960,200,0,0,-89.361,0.849,-31.485
EX0521-092111,25,C07,prep,2111,2111,0,1218009.092,0.686,-0.675,0.196,0.188,0,0,0,0,0,0,0,0,0,0.000,0,0,0.060,0.004,-0.040,-0.020,-0.040,0.015,0.994,0.012,0.002,-0.004,-0.002,0.000,0.000,0.000,0.000,0,2,0,3,7,255,960,200,0,0,-89.361,0.849,-31.485
EX0521-092111,25,C07,prep,2111,2111,0,1218014.092,0.686,-0.675,0.196,0.188,0,0,0,0,0,0,0,0,0,0.000,0,0,0.060,0.004,-0.040,-0.020,-0.040,0.013,0.993,0.012,0.002,0.004,0.002,0.000,0.000,0.000,0.000,0,2,0,3,7,255,960,200,0,0,-89.361,0.849,-31.485
EX0521-092111,25,C07,prep,2127,2127,0,1218019.092,0.686,-0.675,0.196,0.188,0,0,0,0,0,0,0,0,0,0.000,0,0,0.060,0.004,-0.040,-0.020,-0.040,0.015,0.993,0.012,0.002,-0.004,0.002,0.000,0.000,0.000,0.000,0,2,0,3,7,255,960,200,0,0,-89.361,0.849,-31.485
EX0521-092111,25,C07,prep,2127,2127,0,1218024.091,0.686,-0.675,0.196,0.188,0,0,0,0,0,0,0,0,0,0.000,0,0,0.035,0.006,0.020,-0.020,0.020,0.014,0.993,0.012,-0.004,-0.004,-0.002,0.000,0.000,0.000,0.000,0,2,0,3,7,255,960,200,0,0,-89.361,0.849,-31.485
EX0521-092111,25,C07,prep,2127,2127,0,1218029.091,0.686,-0.675,0.196,0.188,0,0,0,0,0,0,0,0,0,0.000,0,0,0.049,0.004,0.020,-0.020,-0.040,0.015,0.995,0.012,0.002,-0.004,-0.002,0.000,0.000,0.000,0.000,0,2,0,3,7,255,960,200,0,0,-89.361,0.849,-31.485
EX0521-092111,25,C07,prep,2127,2127,0,1218034.091,0.686,-0.675,0.196,0.188,0,0,0,0,0,0,0,0,0,0.000,0,0,0.049,0.003,-0.040,-0.020,0.020,0.014,0.993,0.011,0.002,-0.002,-0.002,0.000,0.000,0.000,0.000,0,2,0,3,7,255,960,200,0,0,-89.361,0.849,-31.485
EX0521-092111,25,C07,prep,2127,2127,0,1218039.091,0.686,-0.675,0.196,0.188,0,0,0,0,0,0,0,0,0,0.000,0,0,0.060,0.003,-0.040,-0.020,-0.040,0.014,0.994,0.012,0.002,-0.002,0.012,0.000,0.000,0.000,0.000,0,2,0,3,7,255,960,200,0,0,-89.361,0.849,-31.485
EX0521-092111,25,C07,prep,2127,2127,0,1218044.092,0.686,-0.675,0.196,0.188,0,0,0,0,0,0,0,0,0,0.000,0,0,0.060,0.009,-0.040,-0.020,-0.040,0.014,0.993,0.011,0.004,0.008,-0.002,0.000,0.000,0.000,0.000,0,2,0,3,7,255,960,200,0,0,-89.361,0.849,-31.485
EX0521-092111,25,C07,prep,2143,2143,0,1218049.092,0.686,-0.675,0.196,0.188,0,0,0,0,0,0,0,0,0,0.000,0,0,0.049,0.006,0.020,-0.020,-0.040,0.016,0.994,0.012,0.004,-0.004,0.008,0.000,0.000,0.000,0.000,0,2,0,3,7,255,960,200,0,0,-89.361,0.849,-31.485
EX0521-092111,25,C07,prep,2143,2143,0,1218054.092,0.686,-0.675,0.196,0.188,0,0,0,0,0,0,0,0,0,0.000,0,0,0.049,0.009,0.020,-0.020,-0.040,0.013,0.994,0.011,0.004,0.008,0.006,0.000,0.000,0.000,0.000,0,2,0,3,7,255,960,200,0,0,-89.361,0.849,-31.485
EX0521-092111,25,C07,prep,2143,2143,0,1218059.092,0.686,-0.675,0.196,0.188,0,0,0,0,0,0,0,0,0,0.000,0,0,0.069,0.009,-0.040,-0.040,-0.040,0.014,0.993,0.011,0.004,0.008,0.006,0.000,0.000,0.000,0.000,0,2,0,3,7,255,960,200,0,0,-89.361,0.849,-31.485
EX0521-092111,25,C07,prep,2143,2143,0,1218064.093,0.686,-0.675,0.196,0.188,0,0,0,0,0,0,0,0,0,0.000,0,0,0.092,0.008,0.080,-0.040,0.020,0.015,0.994,0.012,0.002,0.008,0.006,0.000,0.000,0.000,0.000,0,2,0,3,7,255,960,200,0,0,-89.361,0.849,-31.485
EX0521-092111,25,C07,prep,2165,2165,0,1218069.091,0.686,-0.675,0.196,0.188,0,0,0,0,0,0,0,0,0,0.000,0,0,0.060,0.002,-0.040,-0.040,0.020,0.014,0.993,0.012,0.002,0.000,0.002,0.000,0.000,0.000,0.000,0,2,0,3,7,255,960,200,0,0,-89.361,0.849,-31.485
EX0521-092111,25,C07,prep,2165,2165,0,1218074.092,0.686,-0.675,0.196,0.188,0,0,0,0,0,0,0,0,0,0.000,0,0,0.069,0.000,-0.040,-0.040,-0.040,0.014,0.993,0.011,0.000,0.000,0.002,0.000,0.000,0.000,0.000,0,2,0,3,7,255,960,200,0,0,-89.361,0.849,-31.485
EX0521-092111,25,C07,prep,2166,2166,0,1218079.091,0.686,-0.675,0.196,0.188,0,0,0,0,0,0,0,0,0,0.000,0,0,0.060,0.002,0.020,-0.040,-0.040,0.014,0.993,0.012,-0.002,0.000,0.002,0.000,0.000,0.000,0.000,0,2,0,3,7,255,960,200,0,0,-89.361,0.849,-31.485
EX0521-092111,25,C07,prep,2166,2166,0,1218084.092,0.686,-0.675,0.196,0.188,0,0,0,0,0,0,0,0,0,0.000,0,0,0.110,0.004,-0.040,-0.100,0.020,0.015,0.993,0.012,0.000,-0.004,-0.002,0.000,0.000,0.000,0.000,0,2,0,3,7,255,960,200,0,0,-89.361,0.849,-31.485
EX0521-092111,25,C07,prep,2175,2175,0,1218089.092,0.686,-0.675,0.196,0.188,0,0,0,0,0,0,0,0,0,0.000,0,0,0.060,0.004,0.020,-0.040,-0.040,0.015,0.993,0.012,0.002,-0.004,-0.002,0.000,0.000,0.000,0.000,0,2,0,3,7,255,960,200,0,0,-89.361,0.849,-31.485
EX0521-092111,25,C07,prep,2175,2175,0,1218094.092,0.686,-0.675,0.196,0.188,0,0,0,0,0,0,0,0,0,0.000,0,0,0.069,0.008,-0.040,-0.040,-0.040,0.015,0.993,0.012,0.002,-0.008,0.002,0.000,0.000,0.000,0.000,0,2,0,3,7,255,960,200,0,0,-89.361,0.849,-31.485
EX0521-092111,25,C07,prep,2207,2207,0,1218099.092,0.686,-0.675,0.196,0.188,0,0,0,0,0,0,0,0,0,0.000,0,0,0.049,0.008,0.020,-0.040,0.020,0.015,0.993,0.012,0.000,-0.008,0.002,0.000,0.000,0.000,0.000,0,2,0,3,7,255,960,200,0,0,-89.361,0.849,-31.485
EX0521-092111,25,C07,prep,2207,2207,0,1218104.093,0.686,-0.675,0.196,0.188,0,0,0,0,0,0,0,0,0,0.000,0,0,0.069,0.008,-0.040,-0.040,-0.040,0.014,0.994,0.011,0.000,-0.008,0.002,0.000,0.000,0.000,0.000,0,2,0,3,7,255,960,200,0,0,-89.361,0.849,-31.485
EX0521-092111,25,C07,prep,2207,2207,0,1218109.092,0.686,-0.675,0.196,0.188,0,0,0,0,0,0,0,0,0,0.000,0,0,0.049,0.008,0.020,-0.020,-0.040,0.013,0.993,0.011,0.000,0.008,0.002,0.000,0.000,0.000,0.000,0,2,0,3,7,255,960,200,0,0,-89.361,0.849,-31.485
EX0521-092111,25,C07,prep,2207,2207,0,1218114.091,0.686,-0.675,0.196,0.188,0,0,0,0,0,0,0,0,0,0.000,0,0,0.104,0.008,0.020,-0.100,0.020,0.014,0.993,0.012,-0.002,0.008,0.002,0.000,0.000,0.000,0.000,0,2,0,3,7,255,960,200,0,0,-89.361,0.849,-31.485
EX0521-092111,25,C07,prep,2207,2207,0,1218119.091,0.686,-0.675,0.196,0.188,0,0,0,0,0,0,0,0,0,0.000,0,0,0.035,0.008,0.020,-0.020,0.020,0.014,0.993,0.012,-0.008,0.000,-0.004,0.000,0.000,0.000,0.000,0,2,0,3,7,255,960,200,0,0,-89.361,0.849,-31.485
EX0521-092111,25,C07,prep,2207,2207,0,1218124.091,0.686,-0.675,0.196,0.188,0,0,0,0,0,0,0,0,0,0.000,0,0,0.049,0.004,0.020,-0.020,-0.040,0.014,0.993,0.012,-0.004,-0.002,-0.004,0.000,0.000,0.000,0.000,0,2,0,3,7,255,960,200,0,0,-89.361,0.849,-31.485
EX0521-092111,25,C07,prep,2227,2227,0,1218129.092,0.686,-0.675,0.196,0.188,0,0,0,0,0,0,0,0,0,0.000,0,0,0.085,0.008,0.080,-0.020,0.020,0.013,0.993,0.012,-0.008,-0.002,-0.002,0.000,0.000,0.000,0.000,0,2,0,3,7,255,960,200,0,0,-89.361,0.849,-31.485
EX0521-092111,25,C07,prep,2227,2227,0,1218134.092,0.686,-0.675,0.196,0.188,0,0,0,0,0,0,0,0,0,0.000,0,0,0.110,0.004,0.020,-0.100,-0.040,0.015,0.993,0.011,-0.004,0.002,0.002,0.000,0.000,0.000,0.000,0,2,0,3,7,255,960,200,0,0,-89.361,0.849,-31.485
EX0521-092111,25,C07,prep,2228,2228,0,1218139.092,0.686,-0.675,0.196,0.188,0,0,0,0,0,0,0,0,0,0.000,0,0,0.049,0.008,0.020,-0.020,-0.040,0.014,0.993,0.012,-0.008,0.002,0.002,0.000,0.000,0.000,0.000,0,2,0,3,7,255,960,200,0,0,-89.361,0.849,-31.485
EX0521-092111,25,C07,prep,2228,2228,0,1218144.092,0.686,-0.675,0.196,0.188,0,0,0,0,0,0,0,0,0,0.000,0,0,0.060,0.008,0.020,0.040,-0.040,0.014,0.993,0.012,-0.008,-0.002,0.002,0.000,0.000,0.000,0.000,0,2,0,3,7,255,960,200,0,0,-89.361,0.849,-31.485
EX0521-092111,25,C07,prep,2239,2239,0,1218149.092,0.686,-0.675,0.196,0.188,0,0,0,0,0,0,0,0,0,0.000,0,0,0.049,0.008,0.020,-0.020,-0.040,0.015,0.993,0.012,-0.008,-0.002,0.002,0.000,0.000,0.000,0.000,0,2,0,3,7,255,960,200,0,0,-89.361,0.849,-31.485
EX0521-092111,25,C07,prep,2239,2239,0,1218154.091,0.686,-0.675,0.196,0.188,0,0,0,0,0,0,0,0,0,0.000,0,0,0.049,0.010,0.020,-0.020,-0.040,0.014,0.994,0.013,-0.006,-0.008,0.002,0.000,0.000,0.000,0.000,0,2,0,3,7,255,960,200,0,0,-89.361,0.849,-31.485
EX0521-092111,25,C07,prep,2255,2255,0,1218159.093,0.686,-0.675,0.196,0.188,0,0,0,0,0,0,0,0,0,0.000,0,0,0.049,0.008,0.020,-0.040,0.020,0.014,0.993,0.012,-0.002,-0.008,0.002,0.000,0.000,0.000,0.000,0,2,0,3,7,255,960,200,0,0,-89.361,0.849,-31.485
EX0521-092111,25,C07,prep,2255,2255,0,1218164.091,0.686,-0.675,0.196,0.188,0,0,0,0,0,0,0,0,0,0.000,0,0,0.060,0.003,0.020,-0.040,-0.040,0.015,0.993,0.012,-0.002,-0.002,-0.004,0.000,0.000,0.000,0.000,0,2,0,3,7,255,960,200,0,0,-89.361,0.849,-31.485
EX0521-092111,25,C07,prep,2255,2255,0,1218169.092,0.686,-0.675,0.196,0.188,0,0,0,0,0,0,0,0,0,0.000,0,0,0.060,0.002,0.020,0.040,-0.040,0.015,0.994,0.011,0.002,0.000,-0.004,0.000,0.000,0.000,0.000,0,2,0,3,7,255,960,200,0,0,-89.361,0.849,-31.485
EX0521-092111,25,C07,prep,2255,2255,0,1218174.092,0.686,-0.675,0.196,0.188,0,0,0,0,0,0,0,0,0,0.000,0,0,0.049,0.006,0.020,0.040,0.020,0.015,0.994,0.012,0.006,-0.002,0.006,0.000,0.000,0.000,0.000,0,2,0,3,7,255,960,200,0,0,-89.361,0.849,-31.485
EX0521-092111,25,C07,prep,2271,2271,0,1218179.092,0.686,-0.675,0.196,0.188,0,0,0,0,0,0,0,0,0,0.000,0,0,0.060,0.007,0.020,-0.040,-0.040,0.014,0.993,0.012,0.006,-0.004,0.006,0.000,0.000,0.000,0.000,0,2,0,3,7,255,960,200,0,0,-89.361,0.849,-31.485
EX0521-092111,25,C07,prep,2271,2271,0,1218184.092,0.686,-0.675,0.196,0.188,0,0,0,0,0,0,0,0,0,0.000,0,0,0.060,0.004,0.020,-0.040,-0.040,0.014,0.993,0.012,-0.002,-0.004,0.002,0.000,0.000,0.000,0.000,0,2,0,3,7,255,960,200,0,0,-89.361,0.849,-31.485
EX0521-092111,25,C07,prep,2303,2303,0,1218189.092,0.686,-0.675,0.196,0.188,0,0,0,0,0,0,0,0,0,0.000,0,0,0.069,0.004,-0.040,-0.040,-0.040,0.015,0.993,0.012,-0.002,-0.004,0.002,0.000,0.000,0.000,0.000,0,2,0,3,7,255,960,200,0,0,-89.361,0.849,-31.485
EX0521-092111,25,C07,prep,2303,2303,0,1218194.091,0.686,-0.675,0.196,0.188,0,0,0,0,0,0,0,0,0,0.000,0,0,0.049,0.002,0.020,-0.040,0.020,0.014,0.993,0.011,-0.002,0.000,0.002,0.000,0.000,0.000,0.000,0,2,0,3,7,255,960,200,0,0,-89.361,0.849,-31.485
EX0521-092111,25,C07,prep,2303,2303,0,1218199.091,0.686,-0.675,0.196,0.188,0,0,0,0,0,0,0,0,0,0.000,0,0,0.060,0.006,0.020,-0.040,-0.040,0.014,0.993,0.011,0.000,0.006,0.002,0.000,0.000,0.000,0.000,0,2,0,3,7,255,960,200,0,0,-89.361,0.849,-31.485
EX0521-092111,25,C07,prep,2303,2303,0,1218204.095,0.686,-0.675,0.196,0.188,0,0,0,0,0,0,0,0,0,0.000,0,0,0.092,0.008,0.080,-0.040,0.020,0.014,0.993,0.011,0.000,0.008,0.002,0.000,0.000,0.000,0.000,0,2,0,3,7,255,960,200,0,0,-89.361,0.849,-31.485
EX0521-092111,25,C07,prep,2304,2304,0,1218209.091,0.686,-0.675,0.196,0.188,0,0,0,0,0,0,0,0,0,0.000,0,0,0.049,0.008,0.020,-0.020,-0.040,0.014,0.993,0.012,0.000,0.008,-0.004,0.000,0.000,0.000,0.000,0,2,0,3,7,255,960,200,0,0,-89.361,0.849,-31.485
EX0521-092111,25,C07,prep,2304,2304,0,1218214.093,0.686,-0.675,0.196,0.188,0,0,0,0,0,0,0,0,0,0.000,0,0,0.035,0.009,0.020,-0.020,0.020,0.014,0.993,0.011,0.004,0.008,-0.004,0.000,0.000,0.000,0.000,0,2,0,3,7,255,960,200,0,0,-89.361,0.849,-31.485
EX0521-092111,25,C07,prep,2325,2325,0,1218219.092,0.686,-0.675,0.196,0.188,0,0,0,0,0,0,0,0,0,0.000,0,0,0.035,0.002,0.020,-0.020,0.020,0.014,0.993,0.012,-0.002,0.000,-0.004,0.000,0.000,0.000,0.000,0,2,0,3,7,255,960,200,0,0,-89.361,0.849,-31.485
EX0521-092111,25,C07,prep,2325,2325,0,1218224.092,0.686,-0.675,0.196,0.188,0,0,0,0,0,0,0,0,0,0.000,0,0,0.035,0.002,0.020,-0.020,0.020,0.015,0.995,0.013,0.002,0.000,0.002,0.000,0.000,0.000,0.000,0,2,0,3,7,255,960,200,0,0,-89.361,0.849,-31.485
EX0521-092111,25,C07,prep,2325,2325,0,1218229.092,0.686,-0.675,0.196,0.188,0,0,0,0,0,0,0,0,0,0.000,0,0,0.049,0.006,0.020,-0.020,-0.040,0.015,0.993,0.012,0.000,-0.006,0.002,0.000,0.000,0.000,0.000,0,2,0,3,7,255,960,200,0,0,-89.361,0.849,-31.485
EX0521-092111,25,C07,prep,2325,2325,0,1218234.091,0.686,-0.675,0.196,0.188,0,0,0,0,0,0,0,0,0,0.000,0,0,0.060,0.006,-0.040,-0.020,-0.040,0.014,0.994,0.012,0.000,-0.006,0.010,0.000,0.000,0.000,0.000,0,2,0,3,7,255,960,200,0,0,-89.361,0.849,-31.485
EX0521-092111,25,C07,prep,2326,2326,0,1218239.092,0.686,-0.675,0.196,0.188,0,0,0,0,0,0,0,0,0,0.000,0,0,0.049,0.006,0.020,-0.020,-0.040,0.016,0.993,0.012,0.000,-0.006,0.002,0.000,0.000,0.000,0.000,0,2,0,3,7,255,960,200,0,0,-89.361,0.849,-31.485
EX0521-092111,25,C07,prep,2326,2326,0,1218244.091,0.686,-0.675,0.196,0.188,0,0,0,0,0,0,0,0,0,0.000,0,0,0.110,0.006,-0.040,-0.100,0.020,0.014,0.994,0.012,-0.004,-0.004,0.006,0.000,0.000,0.000,0.000,0,2,0,3,7,255,960,200,0,0,-89.361,0.849,-31.485
EX0521-092111,25,C07,prep,2357,2357,0,1218249.091,0.686,-0.675,0.196,0.188,0,0,0,0,0,0,0,0,0,0.000,0,0,0.049,0.006,0.020,-0.020,-0.040,0.013,0.993,0.011,-0.004,-0.004,-0.004,0.000,0.000,0.000,0.000,0,2,0,3,7,255,960,200,0,0,-89.361,0.849,-31.485
EX0521-092111,25,C07,prep,2357,2357,0,1218254.092,0.686,-0.675,0.196,0.188,0,0,0,0,0,0,0,0,0,0.000,0,0,0.060,0.004,-0.040,-0.020,-0.040,0.014,0.993,0.012,-0.004,0.000,-0.004,0.000,0.000,0.000,0.000,0,2,0,3,7,255,960,200,0,0,-89.361,0.849,-31.485
EX0521-092111,25,C07,prep,2357,2357,0,1218259.092,0.686,-0.675,0.196,0.188,0,0,0,0,0,0,0,0,0,0.000,0,0,0.060,0.006,0.020,-0.040,-0.040,0.014,0.993,0.012,-0.006,0.002,-0.004,0.000,0.000,0.000,0.000,0,2,0,3,7,255,960,200,0,0,-89.361,0.849,-31.485
EX0521-092111,25,C07,prep,2357,2357,0,1218264.092,0.686,-0.675,0.196,0.188,0,0,0,0,0,0,0,0,0,0.000,0,0,0.104,0.004,0.020,-0.100,0.020,0.014,0.994,0.011,-0.004,0.002,-0.004,0.000,0.000,0.000,0.000,0,2,0,3,7,255,960,200,0,0,-89.361,0.849,-31.485
EX0521-092111,25,C07,prep,2357,2357,0,1218269.092,0.686,-0.675,0.196,0.188,0,0,0,0,0,0,0,0,0,0.000,0,0,0.060,0.004,0.020,-0.040,-0.040,0.015,0.994,0.012,-0.004,0.002,0.006,0.000,0.000,0.000,0.000,0,2,0,3,7,255,960,200,0,0,-89.361,0.849,-31.485
EX0521-092111,25,C07,prep,2357,2357,0,1218274.091,0.686,-0.675,0.196,0.188,0,0,0,0,0,0,0,0,0,0.000,0,0,0.060,0.002,0.020,-0.040,-0.040,0.015,0.994,0.011,0.000,0.002,0.006,0.000,0.000,0.000,0.000,0,2,0,3,7,255,960,200,0,0,-89.361,0.849,-31.485
EX0521-092111,25,C07,prep,2393,2393,0,1218279.091,0.686,-0.675,0.196,0.188,0,0,0,0,0,0,0,0,0,0.000,0,0,0.049,0.002,0.020,-0.040,0.020,0.013,0.994,0.012,0.000,0.002,0.006,0.000,0.000,0.000,0.000,0,2,0,3,7,255,960,200,0,0,-89.361,0.849,-31.485
EX0521-092111,25,C07,prep,2393,2393,0,1218284.091,0.686,-0.675,0.196,0.188,0,0,0,0,0,0,0,0,0,0.000,0,0,0.060,0.006,0.020,-0.040,-0.040,0.014,0.993,0.011,0.004,0.004,0.006,0.000,0.000,0.000,0.000,0,2,0,3,7,255,960,200,0,0,-89.361,0.849,-31.485
EX0521-092111,25,C07,prep,2423,2423,0,1218289.091,0.686,-0.675,0.196,0.188,0,0,0,0,0,0,0,0,0,0.000,0,0,0.060,0.004,0.020,-0.040,-0.040,0.015,0.994,0.012,0.002,0.004,0.006,0.000,0.000,0.000,0.000,0,2,0,3,7,255,960,200,0,0,-89.361,0.849,-31.485
EX0521-092111,25,C07,prep,2423,2423,0,1218294.091,0.686,-0.675,0.196,0.188,0,0,0,0,0,0,0,0,0,0.000,0,0,0.060,0.007,0.020,0.040,-0.040,0.015,0.994,0.011,0.004,0.006,0.006,0.000,0.000,0.000,0.000,0,2,0,3,7,255,960,200,0,0,-89.361,0.849,-31.485
EX0521-092111,25,C07,prep,2423,2423,0,1218299.092,0.686,-0.675,0.196,0.188,0,0,0,0,0,0,0,0,0,0.000,0,0,0.069,0.006,-0.040,-0.040,-0.040,0.014,0.994,0.011,0.002,0.006,0.006,0.000,0.000,0.000,0.000,0,2,0,3,7,255,960,200,0,0,-89.361,0.849,-31.485
EX0521-092111,25,C07,prep,2423,2423,0,1218304.092,0.686,-0.675,0.196,0.188,0,0,0,0,0,0,0,0,0,0.000,0,0,0.069,0.010,-0.040,-0.040,-0.040,0.014,0.993,0.011,0.000,0.010,0.006,0.000,0.000,0.000,0.000,0,2,0,3,7,255,960,200,0,0,-89.361,0.849,-31.485
EX0521-092111,25,C07,prep,2423,2423,0,1218309.092,0.686,-0.675,0.196,0.188,0,0,0,0,0,0,0,0,0,0.000,0,0,0.049,0.010,0.020,-0.020,-0.040,0.015,0.992,0.011,0.000,0.010,0.000,0.000,0.000,0.000,0.000,0,2,0,3,7,255,960,200,0,0,-89.361,0.849,-31.485
EX0521-092111,25,C07,prep,2423,2423,0,1218314.093,0.686,-0.675,0.196,0.188,0,0,0,0,0,0,0,0,0,0.000,0,0,0.060,0.002,0.020,0.040,-0.040,0.015,0.994,0.012,0.000,-0.002,0.000,0.000,0.000,0.000,0.000,0,2,0,3,7,255,960,200,0,0,-89.361,0.849,-31.485
EX0521-092111,25,C07,prep,2423,2423,0,1218319.091,0.686,-0.675,0.196,0.188,0,0,0,0,0,0,0,0,0,0.000,0,0,0.060,0.002,-0.040,-0.020,-0.040,0.013,0.994,0.012,0.000,-0.002,0.010,0.000,0.000,0.000,0.000,0,2,0,3,7,255,960,200,0,0,-89.361,0.849,-31.485
EX0521-092111,25,C07,prep,2423,2423,0,1218324.091,0.686,-0.675,0.196,0.188,0,0,0,0,0,0,0,0,0,0.000,0,0,0.049,0.006,0.020,-0.020,-0.040,0.014,0.994,0.012,-0.006,0.002,0.010,0.000,0.000,0.000,0.000,0,2,0,3,7,255,960,200,0,0,-89.361,0.849,-31.485
EX0521-092111,25,C07,prep,2432,2432,0,1218329.091,0.686,-0.675,0.196,0.188,0,0,0,0,0,0,0,0,0,0.000,0,0,0.060,0.006,-0.040,-0.020,-0.040,0.015,0.993,0.012,-0.006,0.002,0.006,0.000,0.000,0.000,0.000,0,2,0,3,7,255,960,200,0,0,-89.361,0.849,-31.485
EX0521-092111,25,C07,prep,2432,2432,0,1218334.091,0.686,-0.675,0.196,0.188,0,0,0,0,0,0,0,0,0,0.000,0,0,0.049,0.002,0.020,-0.020,-0.040,0.015,0.993,0.011,0.000,0.002,-0.004,0.000,0.000,0.000,0.000,0,2,0,3,7,255,960,200,0,0,-89.361,0.849,-31.485
EX0521-092111,25,C07,prep,2432,2432,0,1218339.092,0.686,-0.675,0.196,0.188,0,0,0,0,0,0,0,0,0,0.000,0,0,0.035,0.008,0.020,-0.020,0.020,0.015,0.994,0.013,0.000,-0.008,-0.004,0.000,0.000,0.000,0.000,0,2,0,3,7,255,960,200,0,0,-89.361,0.849,-31.485
EX0521-092111,25,C07,prep,2432,2432,0,1218344.092,0.686,-0.675,0.196,0.188,0,0,0,0,0,0,0,0,0,0.000,0,0,0.060,0.003,-0.040,-0.020,-0.040,0.014,0.993,0.012,-0.002,0.002,0.000,0.000,0.000,0.000,0.000,0,2,0,3,7,255,960,200,0,0,-89.361,0.849,-31.485
EX0521-092111,25,C07,prep,2462,2462,0,1218349.092,0.686,-0.675,0.196,0.188,0,0,0,0,0,0,0,0,0,0.000,0,0,0.035,0.007,0.020,-0.020,0.020,0.013,0.994,0.013,-0.006,-0.004,0.006,0.000,0.000,0.000,0.000,0,2,0,3,7,255,960,200,0,0,-89.361,0.849,-31.485
EX0521-092111,25,C07,prep,2462,2462,0,1218354.092,0.686,-0.675,0.196,0.188,0,0,0,0,0,0,0,0,0,0.000,0,0,0.060,0.007,-0.040,-0.020,-0.040,0.014,0.994,0.012,-0.006,-0.004,0.006,0.000,0.000,0.000,0.000,0,2,0,3,7,255,960,200,0,0,-89.361,0.849,-31.485
