experiment_id,condition_order_index,condition_id,condition_phase,condition_phase_elapsed_ms,condition_elapsed_ms,is_stimulation_on,t_ms,R_q0,R_q1,R_q2,R_q3,R_heel1,R_mid1,R_fore1,R_heel2,R_fore3,R_mid2,R_fore4,R_fore2,R_cadence,R_speed,R_steps,R_zupt,R_gyroNorm,R_accH,R_gyro_x,R_gyro_y,R_gyro_z,R_acc_x,R_acc_y,R_acc_z,R_nav_ax,R_nav_ay,R_nav_az,R_stepVel,R_stepVelj,R_stepDispRaw,R_stepDispZUPT,R_gaitEvent,R_motorMode,R_motorActive,R_motorAlignment,R_motorRegionMask,R_motorAmplitude,R_motorIntervalMs,R_motorDurationMs,R_motorPhaseMs,R_motorCycleMs,R_roll,R_pitch,R_yaw
EX0521-092111,14,C03,rest,12647,12647,0,763159.092,0.685,-0.678,0.193,0.187,0,0,0,0,0,0,0,0,0,0.000,0,0,0.060,0.006,-0.020,-0.040,-0.040,0.014,0.989,0.011,-0.006,-0.002,-0.018,0.000,0.000,0.000,0.000,0,2,0,2,7,255,1440,300,0,0,-89.578,0.651,-31.125
EX0521-092111,14,C03,rest,12647,12647,0,763164.093,0.685,-0.678,0.193,0.187,0,0,0,0,0,0,0,0,0,0.000,0,0,0.060,0.006,-0.020,-0.040,-0.040,0.015,0.992,0.011,-0.006,-0.002,-0.018,0.000,0.000,0.000,0.000,0,2,0,2,7,255,1440,300,0,0,-89.578,0.651,-31.125
EX0521-092111,14,C03,rest,12663,12663,0,763169.092,0.685,-0.678,0.193,0.187,0,0,0,0,0,0,0,0,0,0.000,0,0,0.060,0.003,-0.020,-0.040,-0.040,0.015,0.992,0.011,0.002,-0.002,-0.004,0.000,0.000,0.000,0.000,0,2,0,2,7,255,1440,300,0,0,-89.578,0.651,-31.125
EX0521-092111,14,C03,rest,12663,12663,0,763174.091,0.685,-0.678,0.193,0.187,0,0,0,0,0,0,0,0,0,0.000,0,0,0.049,0.003,-0.020,-0.040,0.020,0.014,0.991,0.010,0.002,-0.002,-0.004,0.000,0.000,0.000,0.000,0,2,0,2,7,255,1440,300,0,0,-89.578,0.652,-31.125
EX0521-092111,14,C03,rest,12695,12695,0,763179.092,0.685,-0.678,0.193,0.187,0,0,0,0,0,0,0,0,0,0.000,0,0,0.110,0.003,-0.020,-0.100,-0.040,0.013,0.990,0.011,0.002,0.002,-0.014,0.000,0.000,0.000,0.000,0,2,0,2,7,255,1440,300,0,0,-89.578,0.652,-31.125
EX0521-092111,14,C03,rest,12695,12695,0,763184.093,0.685,-0.678,0.193,0.187,0,0,0,0,0,0,0,0,0,0.000,0,0,0.060,0.010,-0.020,-0.040,-0.040,0.013,0.990,0.011,-0.010,0.002,-0.022,0.000,0.000,0.000,0.000,0,2,0,2,7,255,1440,300,0,0,-89.578,0.652,-31.125
EX0521-092111,14,C03,rest,12695,12695,0,763189.092,0.685,-0.678,0.193,0.187,0,0,0,0,0,0,0,0,0,0.000,0,0,0.060,0.010,-0.020,-0.040,-0.040,0.014,0.992,0.011,-0.010,0.002,-0.022,0.000,0.000,0.000,0.000,0,2,0,2,7,255,1440,300,0,0,-89.578,0.652,-31.125
EX0521-092111,14,C03,rest,12695,12695,0,763194.093,0.685,-0.678,0.193,0.187,0,0,0,0,0,0,0,0,0,0.000,0,0,0.092,0.006,-0.080,-0.040,0.020,0.014,0.990,0.011,-0.006,0.002,-0.018,0.000,0.000,0.000,0.000,0,2,0,2,7,255,1440,300,0,0,-89.578,0.652,-31.125
EX0521-092111,14,C03,rest,12711,12711,0,763199.092,0.685,-0.678,0.193,0.187,0,0,0,0,0,0,0,0,0,0.000,0,0,0.060,0.004,-0.020,-0.040,-0.040,0.015,0.990,0.012,-0.004,-0.002,-0.018,0.000,0.000,0.000,0.000,0,2,0,2,7,255,1440,300,0,0,-89.578,0.652,-31.125
EX0521-092111,14,C03,rest,12711,12711,0,763204.092,0.685,-0.678,0.193,0.187,0,0,0,0,0,0,0,0,0,0.000,0,0,0.049,0.013,-0.020,-0.040,0.020,0.014,0.992,0.012,-0.006,-0.012,-0.018,0.000,0.000,0.000,0.000,0,2,0,2,7,255,1440,300,0,0,-89.578,0.652,-31.125
EX0521-092111,14,C03,rest,12711,12711,0,763209.091,0.685,-0.678,0.193,0.187,0,0,0,0,0,0,0,0,0,0.000,0,0,0.060,0.012,-0.020,-0.040,-0.040,0.014,0.991,0.010,-0.002,-0.012,-0.008,0.000,0.000,0.000,0.000,0,2,0,2,7,255,1440,300,0,0,-89.578,0.652,-31.125
EX0521-092111,14,C03,rest,12711,12711,0,763214.092,0.685,-0.678,0.193,0.187,0,0,0,0,0,0,0,0,0,0.000,0,0,0.069,0.007,0.040,-0.040,-0.040,0.014,0.991,0.012,-0.006,-0.004,-0.008,0.000,0.000,0.000,0.000,0,2,0,2,7,255,1440,300,0,0,-89.578,0.652,-31.125
EX0521-092111,14,C03,rest,12711,12711,0,763219.093,0.685,-0.678,0.193,0.187,0,0,0,0,0,0,0,0,0,0.000,0,0,0.035,0.000,-0.020,0.020,0.020,0.014,0.990,0.011,0.000,0.000,-0.012,0.000,0.000,0.000,0.000,0,2,0,2,7,255,1440,300,0,0,-89.578,0.652,-31.125
EX0521-092111,14,C03,rest,12711,12711,0,763224.091,0.685,-0.678,0.193,0.187,0,0,0,0,0,0,0,0,0,0.000,0,0,0.069,0.008,0.040,-0.040,-0.040,0.013,0.991,0.011,-0.008,0.000,-0.012,0.000,0.000,0.000,0.000,0,2,0,2,7,255,1440,300,0,0,-89.578,0.652,-31.125
EX0521-092111,14,C03,rest,12726,12726,0,763229.092,0.685,-0.678,0.193,0.187,0,0,0,0,0,0,0,0,0,0.000,0,0,0.069,0.000,0.040,-0.040,-0.040,0.014,0.993,0.011,0.000,0.000,-0.012,0.000,0.000,0.000,0.000,0,2,0,2,7,255,1440,300,0,1740,-89.578,0.652,-31.125
EX0521-092111,14,C03,rest,12726,12726,0,763234.092,0.685,-0.678,0.193,0.187,0,0,0,0,0,0,0,0,0,0.000,0,0,0.060,0.006,-0.020,-0.040,-0.040,0.014,0.992,0.011,-0.006,0.000,0.002,0.000,0.000,0.000,0.000,0,2,0,2,7,255,1440,300,0,1740,-89.578,0.652,-31.125
EX0521-092111,14,C03,rest,12726,12726,0,763239.092,0.685,-0.678,0.193,0.187,0,0,0,0,0,0,0,0,0,0.000,0,0,0.069,0.004,0.040,-0.040,-0.040,0.014,0.991,0.011,-0.004,0.000,0.002,0.000,0.000,0.000,0.000,0,2,0,2,7,255,1440,300,0,1740,-89.578,0.652,-31.125
EX0521-092111,14,C03,rest,12726,12726,0,763244.091,0.685,-0.678,0.193,0.187,0,0,0,0,0,0,0,0,0,0.000,0,0,0.060,0.004,-0.020,-0.040,-0.040,0.014,0.991,0.011,-0.004,0.000,-0.008,0.000,0.000,0.000,0.000,0,2,0,2,7,255,1440,300,0,1740,-89.578,0.652,-31.125
EX0521-092111,14,C03,rest,12743,12743,0,763249.092,0.685,-0.678,0.193,0.187,0,0,0,0,0,0,0,0,0,0.000,0,0,0.069,0.000,0.040,-0.040,-0.040,0.016,0.991,0.012,0.000,0.000,-0.008,0.000,0.000,0.000,0.000,0,2,0,2,7,255,1440,300,0,1740,-89.578,0.652,-31.125
EX0521-092111,14,C03,rest,12743,12743,0,763254.093,0.685,-0.678,0.193,0.187,0,0,0,0,0,0,0,0,0,0.000,0,0,0.069,0.004,0.040,-0.040,-0.040,0.015,0.992,0.011,0.004,-0.002,-0.006,0.000,0.000,0.000,0.000,0,2,0,2,7,255,1440,300,4,1740,-89.578,0.652,-31.125
EX0521-092111,14,C03,rest,12743,12743,0,763259.091,0.685,-0.678,0.193,0.187,0,0,0,0,0,0,0,0,0,0.000,0,0,0.049,0.004,0.040,0.020,0.020,0.014,0.992,0.011,0.004,-0.002,-0.002,0.000,0.000,0.000,0.000,0,2,0,2,7,255,1440,300,9,1740,-89.579,0.652,-31.125
EX0521-092111,14,C03,rest,12743,12743,0,763264.092,0.685,-0.678,0.193,0.187,0,0,0,0,0,0,0,0,0,0.000,0,0,0.060,0.004,0.040,-0.040,0.020,0.015,0.991,0.011,0.004,-0.002,-0.002,0.000,0.000,0.000,0.000,0,2,0,2,7,255,1440,300,14,1740,-89.579,0.652,-31.125
EX0521-092111,14,C03,rest,12759,12759,0,763269.092,0.685,-0.678,0.193,0.187,0,0,0,0,0,0,0,0,0,0.000,0,0,0.060,0.004,-0.020,-0.040,-0.040,0.014,0.991,0.011,-0.004,0.000,-0.006,0.000,0.000,0.000,0.000,0,2,0,2,7,255,1440,300,19,1740,-89.579,0.652,-31.125
EX0521-092111,14,C03,rest,12759,12759,0,763274.092,0.685,-0.678,0.193,0.187,0,0,0,0,0,0,0,0,0,0.000,0,0,0.060,0.000,-0.020,-0.040,-0.040,0.014,0.992,0.011,0.000,0.000,-0.006,0.000,0.000,0.000,0.000,0,2,0,2,7,255,1440,300,24,1740,-89.579,0.652,-31.125
EX0521-092111,14,C03,rest,12792,12792,0,763279.091,0.685,-0.678,0.193,0.187,0,0,0,0,0,0,0,0,0,0.000,0,0,0.049,0.002,-0.020,0.020,-0.040,0.014,0.992,0.011,-0.002,0.000,-0.002,0.000,0.000,0.000,0.000,0,2,0,2,7,255,1440,300,29,1740,-89.579,0.652,-31.125
EX0521-092111,14,C03,rest,12792,12792,0,763284.092,0.685,-0.678,0.193,0.187,0,0,0,0,0,0,0,0,0,0.000,0,0,0.110,0.000,-0.020,-0.100,-0.040,0.014,0.991,0.010,0.000,0.000,-0.002,0.000,0.000,0.000,0.000,0,2,0,2,7,255,1440,300,34,1740,-89.579,0.652,-31.125
EX0521-092111,14,C03,rest,12792,12792,0,763289.092,0.685,-0.678,0.193,0.187,0,0,0,0,0,0,0,0,0,0.000,0,0,0.110,0.004,-0.020,-0.040,-0.100,0.014,0.991,0.011,-0.002,-0.004,-0.006,0.000,0.000,0.000,0.000,0,2,0,2,7,255,1440,300,39,1740,-89.579,0.652,-31.125
EX0521-092111,14,C03,rest,12792,12792,0,763294.093,0.685,-0.678,0.193,0.187,0,0,0,0,0,0,0,0,0,0.000,0,0,0.092,0.000,-0.080,-0.040,0.020,0.014,0.992,0.011,0.000,0.000,-0.006,0.000,0.000,0.000,0.000,0,2,0,2,7,255,1440,300,44,1740,-89.579,0.652,-31.125
EX0521-092111,14,C03,rest,12792,12792,0,763299.091,0.685,-0.678,0.193,0.187,0,0,0,0,0,0,0,0,0,0.000,0,0,0.115,0.002,0.040,-0.100,-0.040,0.014,0.991,0.011,-0.002,0.000,-0.012,0.000,0.000,0.000,0.000,0,2,0,2,7,255,1440,300,49,1740,-89.579,0.652,-31.125
EX0521-092111,14,C03,rest,12792,12792,0,763304.092,0.685,-0.678,0.193,0.187,0,0,0,0,0,0,0,0,0,0.000,0,0,0.450,0.000,0.420,0.020,-0.160,0.015,0.991,0.011,0.000,0.000,-0.006,0.000,0.000,0.000,0.000,0,2,0,2,7,255,1440,300,54,1740,-89.579,0.652,-31.125
EX0521-092111,14,C03,rest,12807,12807,0,763309.092,0.685,-0.678,0.193,0.187,0,0,0,0,0,0,0,0,0,0.000,0,0,0.134,0.004,0.040,0.080,-0.100,0.013,0.993,0.008,0.000,0.004,-0.006,0.000,0.000,0.000,0.000,0,2,0,2,7,255,1440,300,59,1740,-89.579,0.652,-31.125
EX0521-092111,14,C03,rest,12807,12807,0,763314.091,0.685,-0.678,0.193,0.187,0,0,0,0,0,0,0,0,0,0.000,0,0,1.473,0.003,-1.360,-0.220,0.520,0.014,0.990,0.011,0.002,0.002,-0.006,0.000,0.000,0.000,0.000,0,2,0,2,7,255,1440,300,64,1740,-89.572,0.652,-31.125
EX0521-092111,14,C03,rest,12807,12807,0,763319.092,0.685,-0.678,0.193,0.187,0,0,0,0,0,0,0,0,0,0.000,0,0,2.044,0.002,1.940,0.080,-0.640,0.016,0.982,0.016,0.000,0.002,-0.016,0.000,0.000,0.000,0.000,0,2,0,2,7,255,1440,300,69,1740,-89.579,0.648,-31.125
EX0521-092111,14,C03,rest,12807,12807,0,763324.092,0.685,-0.678,0.193,0.187,0,0,0,0,0,0,0,0,0,0.000,0,0,1.280,0.003,1.140,-0.040,-0.580,0.012,1.012,0.001,0.002,0.002,-0.016,0.000,0.000,0.000,0.000,0,2,0,2,7,255,1440,300,74,1740,-89.587,0.645,-31.125
EX0521-092111,14,C03,rest,12825,12825,0,763329.091,0.685,-0.677,0.193,0.187,0,0,0,0,0,0,0,0,0,0.000,0,0,4.674,0.055,-4.360,-0.100,1.680,0.017,0.972,0.018,-0.010,-0.054,-0.092,0.000,0.000,0.000,0.000,0,2,0,2,7,255,1440,300,79,1740,-89.562,0.654,-31.125
EX0521-092111,14,C03,rest,12825,12825,0,763334.092,0.685,-0.678,0.193,0.187,0,0,0,0,0,0,0,0,0,0.000,0,0,5.339,0.018,4.980,0.140,-1.920,0.013,1.005,0.010,-0.008,0.016,0.126,0.000,0.000,0.000,0.000,0,2,0,2,7,255,1440,300,84,1740,-89.587,0.645,-31.125
EX0521-092111,14,C03,rest,12825,12825,0,763339.092,0.685,-0.678,0.193,0.187,0,0,0,0,0,0,0,0,0,0.000,0,0,3.161,0.018,-2.880,-0.100,1.300,0.015,0.984,0.005,-0.008,0.016,-0.076,0.000,0.000,0.000,0.000,0,2,0,2,7,255,1440,300,89,1740,-89.573,0.651,-31.125
EX0521-092111,14,C03,rest,12825,12825,0,763344.091,0.685,-0.678,0.193,0.187,0,0,0,0,0,0,0,0,0,0.000,0,0,0.648,0.018,0.400,-0.220,-0.460,0.013,1.008,0.011,-0.008,0.016,0.126,0.000,0.000,0.000,0.000,0,2,0,2,7,255,1440,300,94,1740,-89.573,0.651,-31.125
EX0521-092111,14,C03,rest,12839,12839,0,763349.091,0.685,-0.678,0.193,0.187,0,0,0,0,0,0,0,0,0,0.000,0,0,1.308,0.015,1.260,0.080,-0.340,0.019,0.960,0.022,-0.014,0.006,-0.076,0.000,0.000,0.000,0.000,0,2,0,2,7,255,1440,300,99,1740,-89.575,0.652,-31.125
EX0521-092111,14,C03,rest,12839,12839,0,763354.092,0.685,-0.678,0.193,0.187,0,0,0,0,0,0,0,0,0,0.000,0,0,1.181,0.015,-1.060,-0.040,0.520,0.010,1.025,-0.005,-0.014,0.006,0.158,0.000,0.000,0.000,0.000,0,2,0,2,7,255,1440,300,104,1740,-89.573,0.652,-31.125
EX0521-092111,14,C03,rest,12839,12839,0,763359.092,0.685,-0.678,0.193,0.187,0,0,0,0,0,0,0,0,0,0.000,0,0,1.141,0.059,0.900,-0.040,-0.700,0.015,0.983,0.017,-0.020,-0.056,-0.088,0.000,0.000,0.000,0.000,0,2,0,2,7,255,1440,300,109,1740,-89.575,0.648,-31.125
EX0521-092111,14,C03,rest,12839,12839,0,763364.093,0.685,-0.677,0.193,0.187,0,0,0,0,0,0,0,0,0,0.000,0,0,2.095,0.059,-1.840,-0.040,1.000,0.015,0.976,0.021,-0.020,-0.056,-0.088,0.000,0.000,0.000,0.000,0,2,0,2,7,255,1440,300,114,1740,-89.561,0.653,-31.125
EX0521-092111,14,C03,rest,12857,12857,0,763369.092,0.685,-0.678,0.193,0.187,0,0,0,0,0,0,0,0,0,0.000,0,0,2.642,0.059,2.420,0.020,-1.060,0.012,1.008,0.003,-0.020,-0.056,-0.088,0.000,0.000,0.000,0.000,0,2,0,2,7,255,1440,300,119,1740,-89.574,0.648,-31.125
EX0521-092111,14,C03,rest,12857,12857,0,763374.092,0.685,-0.677,0.193,0.187,0,0,0,0,0,0,0,0,0,0.000,0,0,2.849,0.016,-2.640,-0.160,1.060,0.017,0.980,0.009,0.016,0.000,-0.122,0.000,0.000,0.000,0.000,0,2,0,2,7,255,1440,300,124,1740,-89.561,0.654,-31.125
EX0521-092111,14,C03,rest,12891,12891,0,763379.091,0.685,-0.678,0.193,0.187,0,0,0,0,0,0,0,0,0,0.000,0,0,1.286,0.016,1.200,-0.040,-0.460,0.012,1.009,0.012,0.016,0.004,0.154,0.000,0.000,0.000,0.000,0,2,0,2,7,255,1440,300,129,1740,-89.567,0.654,-31.125
EX0521-092111,14,C03,rest,12891,12891,0,763384.091,0.685,-0.678,0.193,0.187,0,0,0,0,0,0,0,0,0,0.000,0,0,3.019,0.010,2.800,0.140,-1.120,0.014,0.982,0.012,-0.010,0.000,-0.100,0.000,0.000,0.000,0.000,0,2,0,2,7,255,1440,300,134,1740,-89.581,0.648,-31.125
EX0521-092111,14,C03,rest,12891,12891,0,763389.092,0.685,-0.677,0.193,0.187,0,0,0,0,0,0,0,0,0,0.000,0,0,3.838,0.011,-3.500,-0.220,1.560,0.015,0.989,0.010,-0.010,0.004,-0.038,0.000,0.000,0.000,0.000,0,2,0,2,7,255,1440,300,139,1740,-89.563,0.656,-31.125
EX0521-092111,14,C03,rest,12891,12891,0,763394.093,0.685,-0.677,0.193,0.187,0,0,0,0,0,0,0,0,0,0.000,0,0,1.040,0.016,0.900,0.020,-0.520,0.014,0.993,0.015,-0.010,-0.012,-0.038,0.000,0.000,0.000,0.000,0,2,0,2,7,255,1440,300,144,1740,-89.565,0.656,-31.125
EX0521-092111,14,C03,rest,12891,12891,0,763399.091,0.685,-0.677,0.193,0.187,0,0,0,0,0,0,0,0,0,0.000,0,0,0.396,0.010,-0.320,0.080,0.220,0.014,0.985,0.009,0.008,0.006,-0.038,0.000,0.000,0.000,0.000,0,2,0,2,7,255,1440,300,149,1740,-89.565,0.656,-31.125
EX0521-092111,14,C03,rest,12891,12891,0,763404.092,0.685,-0.678,0.193,0.187,0,0,0,0,0,0,0,0,0,0.000,0,0,0.757,0.020,0.600,-0.040,-0.460,0.010,1.018,0.007,-0.016,0.012,0.006,0.000,0.000,0.000,0.000,0,2,0,2,7,255,1440,300,154,1740,-89.568,0.656,-31.125
EX0521-092111,14,C03,rest,12902,12902,0,763409.092,0.685,-0.677,0.193,0.187,0,0,0,0,0,0,0,0,0,0.000,0,0,0.060,0.013,-0.020,-0.040,0.040,0.015,0.978,0.014,-0.006,0.012,-0.070,0.000,0.000,0.000,0.000,0,2,0,2,7,255,1440,300,159,1740,-89.563,0.656,-31.125
EX0521-092111,14,C03,rest,12902,12902,0,763414.091,0.685,-0.677,0.193,0.187,0,0,0,0,0,0,0,0,0,0.000,0,0,0.193,0.021,0.040,-0.100,0.160,0.014,0.996,0.009,-0.006,0.020,0.028,0.000,0.000,0.000,0.000,0,2,0,2,7,255,1440,300,164,1740,-89.563,0.656,-31.125
EX0521-092111,14,C03,rest,12902,12902,0,763419.091,0.685,-0.678,0.193,0.187,0,0,0,0,0,0,0,0,0,0.000,0,0,1.040,0.008,0.900,0.020,-0.520,0.016,0.987,0.010,0.008,0.000,-0.058,0.000,0.000,0.000,0.000,0,2,0,2,7,255,1440,300,169,1740,-89.567,0.656,-31.125
EX0521-092111,14,C03,rest,12903,12903,0,763424.092,0.685,-0.677,0.193,0.187,0,0,0,0,0,0,0,0,0,0.000,0,0,2.767,0.008,-2.580,-0.040,1.000,0.016,0.984,0.018,0.008,0.000,-0.058,0.000,0.000,0.000,0.000,0,2,0,2,7,255,1440,300,174,1740,-89.551,0.661,-31.125
EX0521-092111,14,C03,rest,12927,12927,0,763429.092,0.685,-0.677,0.193,0.187,0,0,0,0,0,0,0,0,0,0.000,0,0,1.576,0.004,1.440,0.020,-0.640,0.012,1.002,0.008,-0.004,0.000,-0.058,0.000,0.000,0.000,0.000,0,2,0,2,7,255,1440,300,179,1740,-89.559,0.658,-31.125
EX0521-092111,14,C03,rest,12927,12927,0,763434.092,0.685,-0.677,0.193,0.187,0,0,0,0,0,0,0,0,0,0.000,0,0,0.627,0.004,-0.560,-0.040,0.280,0.016,0.986,0.010,-0.004,0.002,-0.066,0.000,0.000,0.000,0.000,0,2,0,2,7,255,1440,300,184,1740,-89.559,0.658,-31.125
EX0521-092111,14,C03,rest,12928,12928,0,763439.092,0.685,-0.677,0.193,0.187,0,0,0,0,0,0,0,0,0,0.000,0,0,0.227,0.022,-0.200,-0.100,-0.040,0.013,1.000,0.009,-0.004,0.022,0.076,0.000,0.000,0.000,0.000,0,2,0,2,7,255,1440,300,189,1740,-89.559,0.658,-31.125
EX0521-092111,14,C03,rest,12928,12928,0,763444.092,0.685,-0.677,0.193,0.187,0,0,0,0,0,0,0,0,0,0.000,0,0,1.286,0.008,1.200,-0.040,-0.460,0.014,0.995,0.010,-0.002,0.008,0.024,0.000,0.000,0.000,0.000,0,2,0,2,7,255,1440,300,194,1740,-89.565,0.658,-31.125
EX0521-092111,14,C03,rest,12935,12935,0,763449.091,0.685,-0.677,0.193,0.187,0,0,0,0,0,0,0,0,0,0.000,0,0,0.795,0.014,-0.680,-0.100,0.400,0.016,0.989,0.008,-0.002,0.014,0.024,0.000,0.000,0.000,0.000,0,2,0,2,7,255,1440,300,199,1740,-89.561,0.658,-31.125
EX0521-092111,14,C03,rest,12935,12935,0,763454.091,0.685,-0.677,0.193,0.187,0,0,0,0,0,0,0,0,0,0.000,0,0,0.505,0.008,0.420,0.020,-0.280,0.013,0.997,0.012,-0.002,0.008,0.024,0.000,0.000,0.000,0.000,0,2,0,2,7,255,1440,300,204,1740,-89.561,0.658,-31.125
EX0521-092111,14,C03,rest,12958,12958,0,763459.092,0.685,-0.677,0.193,0.187,0,0,0,0,0,0,0,0,0,0.000,0,0,0.259,0.012,-0.200,-0.040,0.160,0.015,0.984,0.016,-0.012,-0.002,-0.038,0.000,0.000,0.000,0.000,0,2,0,2,7,255,1440,300,209,1740,-89.554,0.658,-31.125
EX0521-092111,14,C03,rest,12958,12958,0,763464.092,0.685,-0.677,0.193,0.187,0,0,0,0,0,0,0,0,0,0.000,0,0,0.296,0.012,-0.260,-0.100,0.100,0.014,1.000,0.006,-0.012,-0.002,0.038,0.000,0.000,0.000,0.000,0,2,0,2,7,255,1440,300,214,1740,-89.554,0.658,-31.125
EX0521-092111,14,C03,rest,12958,12958,0,763469.091,0.685,-0.677,0.193,0.187,0,0,0,0,0,0,0,0,0,0.000,0,0,0.338,0.046,0.280,-0.160,-0.100,0.014,0.988,0.017,-0.018,-0.042,-0.042,0.000,0.000,0.000,0.000,0,2,0,2,7,255,1440,300,219,1740,-89.546,0.658,-31.125
EX0521-092111,14,C03,rest,12958,12958,0,763474.092,0.685,-0.677,0.193,0.187,0,0,0,0,0,0,0,0,0,0.000,0,0,0.844,0.020,-0.620,-0.460,0.340,0.013,0.992,0.013,-0.020,-0.004,-0.004,0.000,0.000,0.000,0.000,0,2,0,2,7,255,1440,300,224,1740,-89.543,0.658,-31.125
EX0521-092111,14,C03,rest,12986,12986,0,763479.092,0.685,-0.677,0.193,0.187,0,0,0,0,0,0,0,0,0,0.000,0,0,0.341,0.020,0.220,0.140,-0.220,0.016,0.994,0.001,-0.020,-0.004,-0.004,0.000,0.000,0.000,0.000,0,2,0,2,7,255,1440,300,229,1740,-89.549,0.658,-31.125
EX0521-092111,14,C03,rest,12986,12986,0,763484.091,0.685,-0.677,0.193,0.187,0,0,0,0,0,0,0,0,0,0.000,0,0,0.821,0.010,-0.200,-0.780,0.160,0.015,0.991,0.011,0.010,-0.002,-0.004,0.000,0.000,0.000,0.000,0,2,0,2,7,255,1440,300,234,1740,-89.549,0.658,-31.129
EX0521-092111,14,C03,rest,12986,12986,0,763489.091,0.685,-0.677,0.193,0.187,0,0,0,0,0,0,0,0,0,0.000,0,0,0.984,0.010,0.340,0.880,-0.280,0.014,0.994,0.021,0.010,-0.002,0.010,0.000,0.000,0.000,0.000,0,2,0,2,7,255,1440,300,239,1740,-89.546,0.658,-31.124
EX0521-092111,14,C03,rest,12986,12986,0,763494.093,0.685,-0.677,0.193,0.187,0,0,0,0,0,0,0,0,0,0.000,0,0,0.467,0.010,0.220,-0.400,-0.100,0.013,0.992,0.005,0.010,-0.002,-0.010,0.000,0.000,0.000,0.000,0,2,0,2,7,255,1440,300,244,1740,-89.546,0.658,-31.124
EX0521-092111,14,C03,rest,12986,12986,0,763499.092,0.685,-0.677,0.193,0.187,0,0,0,0,0,0,0,0,0,0.000,0,0,0.306,0.032,-0.260,0.020,0.160,0.013,0.991,0.014,-0.026,-0.018,-0.010,0.000,0.000,0.000,0.000,0,2,0,2,7,255,1440,300,249,1740,-89.540,0.658,-31.124
EX0521-092111,14,C03,rest,12986,12986,0,763504.091,0.685,-0.677,0.193,0.187,0,0,0,0,0,0,0,0,0,0.000,0,0,0.214,0.006,0.160,-0.100,-0.100,0.015,0.994,0.012,0.002,-0.006,-0.010,0.000,0.000,0.000,0.000,0,2,0,2,7,255,1440,300,254,1740,-89.540,0.658,-31.124
EX0521-092111,14,C03,rest,13015,13015,0,763509.092,0.685,-0.677,0.193,0.187,0,0,0,0,0,0,0,0,0,0.000,0,0,0.060,0.006,-0.020,-0.040,-0.040,0.016,0.991,0.009,0.002,-0.006,-0.014,0.000,0.000,0.000,0.000,0,2,0,2,7,255,1440,300,259,1740,-89.540,0.658,-31.124
EX0521-092111,14,C03,rest,13015,13015,0,763514.092,0.685,-0.677,0.193,0.187,0,0,0,0,0,0,0,0,0,0.000,0,0,0.237,0.006,-0.080,-0.220,-0.040,0.015,0.994,0.014,0.002,-0.006,0.016,0.000,0.000,0.000,0.000,0,2,0,2,7,255,1440,300,264,1740,-89.535,0.658,-31.124
EX0521-092111,14,C03,rest,13031,13031,0,763519.091,0.685,-0.677,0.193,0.187,0,0,0,0,0,0,0,0,0,0.000,0,0,0.214,0.014,0.160,-0.100,-0.100,0.013,0.993,0.010,0.000,0.014,0.000,0.000,0.000,0.000,0.000,0,2,0,2,7,255,1440,300,269,1740,-89.535,0.658,-31.124
EX0521-092111,14,C03,rest,13031,13031,0,763524.091,0.685,-0.677,0.193,0.187,0,0,0,0,0,0,0,0,0,0.000,0,0,0.314,0.014,-0.140,-0.280,0.020,0.013,0.993,0.011,-0.008,0.012,0.006,0.000,0.000,0.000,0.000,0,2,0,2,7,255,1440,300,274,1740,-89.535,0.658,-31.124
EX0521-092111,14,C03,rest,13031,13031,0,763529.092,0.685,-0.677,0.193,0.187,0,0,0,0,0,0,0,0,0,0.000,0,0,0.402,0.018,-0.200,-0.340,0.080,0.014,0.992,0.009,0.000,0.018,0.000,0.000,0.000,0.000,0.000,0,2,0,2,7,255,1440,300,279,1740,-89.535,0.658,-31.124
EX0521-092111,14,C03,rest,13031,13031,0,763534.092,0.685,-0.677,0.193,0.187,0,0,0,0,0,0,0,0,0,0.000,0,0,0.323,0.020,-0.140,-0.280,0.080,0.015,0.990,0.009,0.014,0.014,-0.004,0.000,0.000,0.000,0.000,0,2,0,2,7,255,1440,300,284,1740,-89.535,0.658,-31.124
EX0521-092111,14,C03,rest,13031,13031,0,763539.091,0.685,-0.677,0.193,0.187,0,0,0,0,0,0,0,0,0,0.000,0,0,0.298,0.020,-0.260,0.140,-0.040,0.014,0.993,0.012,0.014,0.014,-0.004,0.000,0.000,0.000,0.000,0,2,0,2,7,255,1440,300,289,1740,-89.535,0.658,-31.124
EX0521-092111,14,C03,rest,13031,13031,0,763544.092,0.685,-0.677,0.193,0.187,0,0,0,0,0,0,0,0,0,0.000,0,0,0.227,0.004,0.040,0.200,-0.100,0.014,0.992,0.012,-0.002,-0.004,-0.004,0.000,0.000,0.000,0.000,0,2,0,2,7,255,1440,300,294,1740,-89.535,0.658,-31.124
EX0521-092111,14,C03,rest,13047,13047,0,763549.092,0.685,-0.677,0.193,0.187,0,0,0,0,0,0,0,0,0,0.000,0,0,0.115,0.009,-0.080,0.080,0.020,0.014,0.993,0.013,-0.004,-0.008,0.006,0.000,0.000,0.000,0.000,0,2,0,2,7,255,1440,300,299,1740,-89.535,0.658,-31.124
EX0521-092111,14,C03,rest,13047,13047,0,763554.091,0.685,-0.677,0.193,0.187,0,0,0,0,0,0,0,0,0,0.000,0,0,0.242,0.013,0.220,0.020,-0.100,0.013,0.994,0.011,-0.010,-0.008,0.006,0.000,0.000,0.000,0.000,0,2,0,2,7,255,1440,300,304,1740,-89.535,0.658,-31.124
EX0521-092111,14,C03,rest,13047,13047,0,763559.091,0.685,-0.677,0.193,0.187,0,0,0,0,0,0,0,0,0,0.000,0,0,0.085,0.013,-0.020,0.080,0.020,0.014,0.992,0.010,-0.010,0.008,0.006,0.000,0.000,0.000,0.000,0,2,0,2,7,255,1440,300,309,1740,-89.535,0.658,-31.124
EX0521-092111,14,C03,rest,13047,13047,0,763564.093,0.685,-0.677,0.193,0.187,0,0,0,0,0,0,0,0,0,0.000,0,0,0.110,0.009,0.100,0.020,-0.040,0.014,0.993,0.011,-0.004,0.008,0.000,0.000,0.000,0.000,0.000,0,2,0,2,7,255,1440,300,314,1740,-89.535,0.658,-31.124
EX0521-092111,14,C03,rest,13065,13065,0,763569.091,0.685,-0.677,0.193,0.187,0,0,0,0,0,0,0,0,0,0.000,0,0,0.166,0.013,0.160,0.020,-0.040,0.015,0.992,0.010,0.008,0.010,-0.004,0.000,0.000,0.000,0.000,0,2,0,2,7,255,1440,300,319,1740,-89.536,0.658,-31.124
EX0521-092111,14,C03,rest,13065,13065,0,763574.091,0.685,-0.677,0.193,0.187,0,0,0,0,0,0,0,0,0,0.000,0,0,0.035,0.012,-0.020,0.020,0.020,0.015,0.992,0.011,0.012,0.002,-0.004,0.000,0.000,0.000,0.000,0,2,0,2,7,255,1440,300,324,1740,-89.536,0.658,-31.124
EX0521-092111,14,C03,rest,13099,13099,0,763579.092,0.685,-0.677,0.193,0.187,0,0,0,0,0,0,0,0,0,0.000,0,0,0.110,0.016,-0.020,-0.100,-0.040,0.015,0.995,0.009,0.012,0.010,-0.004,0.000,0.000,0.000,0.000,0,2,0,2,7,255,1440,300,329,1740,-89.536,0.658,-31.124
EX0521-092111,14,C03,rest,13099,13099,0,763584.092,0.685,-0.677,0.193,0.187,0,0,0,0,0,0,0,0,0,0.000,0,0,0.257,0.018,-0.200,0.140,0.080,0.015,0.992,0.009,0.014,0.012,-0.008,0.000,0.000,0.000,0.000,0,2,0,2,7,255,1440,300,334,1740,-89.536,0.658,-31.124
EX0521-092111,14,C03,rest,13099,13099,0,763589.091,0.685,-0.677,0.193,0.187,0,0,0,0,0,0,0,0,0,0.000,0,0,0.245,0.018,-0.200,0.140,0.020,0.015,0.992,0.010,0.014,0.012,-0.008,0.000,0.000,0.000,0.000,0,2,0,2,7,255,1440,300,339,1740,-89.536,0.658,-31.124
EX0521-092111,14,C03,rest,13100,13100,0,763594.093,0.685,-0.677,0.193,0.187,0,0,0,0,0,0,0,0,0,0.000,0,0,0.085,0.015,-0.080,0.020,0.020,0.014,0.992,0.012,0.014,0.004,-0.008,0.000,0.000,0.000,0.000,0,2,0,2,7,255,1440,300,344,1740,-89.536,0.658,-31.124
EX0521-092111,14,C03,rest,13100,13100,0,763599.092,0.685,-0.677,0.193,0.187,0,0,0,0,0,0,0,0,0,0.000,0,0,0.060,0.004,-0.020,-0.040,-0.040,0.013,0.991,0.012,-0.004,0.000,-0.008,0.000,0.000,0.000,0.000,0,2,0,2,7,255,1440,300,349,1740,-89.536,0.658,-31.124
EX0521-092111,14,C03,rest,13100,13100,0,763604.091,0.685,-0.677,0.193,0.187,0,0,0,0,0,0,0,0,0,0.000,0,0,0.147,0.004,0.100,-0.100,-0.040,0.014,0.992,0.011,-0.004,0.000,-0.004,0.000,0.000,0.000,0.000,0,2,0,2,7,255,1440,300,354,1740,-89.536,0.658,-31.124
EX0521-092111,14,C03,rest,13111,13111,0,763609.091,0.685,-0.677,0.193,0.187,0,0,0,0,0,0,0,0,0,0.000,0,0,0.227,0.000,0.040,-0.220,-0.040,0.014,0.992,0.011,0.000,0.000,-0.004,0.000,0.000,0.000,0.000,0,2,0,2,7,255,1440,300,359,1740,-89.536,0.658,-31.124
EX0521-092111,14,C03,rest,13111,13111,0,763614.092,0.685,-0.677,0.193,0.187,0,0,0,0,0,0,0,0,0,0.000,0,0,0.193,0.000,0.100,-0.160,-0.040,0.013,0.993,0.013,0.000,0.000,-0.004,0.000,0.000,0.000,0.000,0,2,0,2,7,255,1440,300,364,1740,-89.536,0.658,-31.124
EX0521-092111,14,C03,rest,13111,13111,0,763619.092,0.685,-0.677,0.193,0.187,0,0,0,0,0,0,0,0,0,0.000,0,0,0.147,0.000,0.100,-0.100,-0.040,0.014,0.992,0.011,0.000,0.000,-0.004,0.000,0.000,0.000,0.000,0,2,0,2,7,255,1440,300,369,1740,-89.536,0.658,-31.124
EX0521-092111,14,C03,rest,13111,13111,0,763624.091,0.685,-0.677,0.193,0.187,0,0,0,0,0,0,0,0,0,0.000,0,0,0.069,0.002,0.040,-0.040,-0.040,0.014,0.993,0.011,-0.002,0.000,0.006,0.000,0.000,0.000,0.000,0,2,0,2,7,255,1440,300,374,1740,-89.536,0.658,-31.124
EX0521-092111,14,C03,rest,13111,13111,0,763629.092,0.685,-0.677,0.193,0.187,0,0,0,0,0,0,0,0,0,0.000,0,0,0.069,0.006,0.040,-0.040,-0.040,0.016,0.993,0.008,0.000,0.006,0.000,0.000,0.000,0.000,0.000,0,2,0,2,7,255,1440,300,379,1740,-89.536,0.658,-31.124
EX0521-092111,14,C03,rest,13111,13111,0,763634.092,0.685,-0.677,0.193,0.187,0,0,0,0,0,0,0,0,0,0.000,0,0,0.104,0.010,-0.020,-0.100,0.020,0.015,0.992,0.011,0.008,0.006,0.000,0.000,0.000,0.000,0.000,0,2,0,2,7,255,1440,300,384,1740,-89.536,0.658,-31.124
EX0521-092111,14,C03,rest,13133,13133,0,763639.091,0.685,-0.677,0.193,0.187,0,0,0,0,0,0,0,0,0,0.000,0,0,0.092,0.012,-0.080,-0.040,0.020,0.015,0.993,0.010,0.010,0.006,0.000,0.000,0.000,0.000,0.000,0,2,0,2,7,255,1440,300,389,1740,-89.536,0.658,-31.124
EX0521-092111,14,C03,rest,13133,13133,0,763644.091,0.685,-0.677,0.193,0.187,0,0,0,0,0,0,0,0,0,0.000,0,0,0.060,0.012,-0.020,-0.040,-0.040,0.016,0.993,0.011,0.010,-0.006,0.002,0.000,0.000,0.000,0.000,0,2,0,2,7,255,1440,300,394,1740,-89.536,0.658,-31.124
EX0521-092111,14,C03,rest,13143,13143,0,763649.092,0.685,-0.677,0.193,0.187,0,0,0,0,0,0,0,0,0,0.000,0,0,0.115,0.014,-0.080,0.080,0.020,0.014,0.993,0.014,0.010,-0.010,0.002,0.000,0.000,0.000,0.000,0,2,0,2,7,255,1440,300,399,1740,-89.531,0.658,-31.124
EX0521-092111,14,C03,rest,13143,13143,0,763654.091,0.685,-0.677,0.193,0.187,0,0,0,0,0,0,0,0,0,0.000,0,0,0.092,0.026,-0.080,0.020,-0.040,0.014,0.992,0.014,-0.014,-0.022,0.002,0.000,0.000,0.000,0.000,0,2,0,2,7,255,1440,300,404,1740,-89.525,0.658,-31.124
EX0521-092111,14,C03,rest,13143,13143,0,763659.091,0.685,-0.677,0.193,0.187,0,0,0,0,0,0,0,0,0,0.000,0,0,0.060,0.026,0.040,-0.040,0.020,0.014,0.994,0.012,-0.014,-0.022,0.002,0.000,0.000,0.000,0.000,0,2,0,2,7,255,1440,300,409,1740,-89.525,0.658,-31.124
EX0521-092111,14,C03,rest,13143,13143,0,763664.092,0.685,-0.677,0.193,0.187,0,0,0,0,0,0,0,0,0,0.000,0,0,0.170,0.009,0.160,-0.040,-0.040,0.015,0.995,0.011,-0.008,-0.004,0.010,0.000,0.000,0.000,0.000,0,2,0,2,7,255,1440,300,414,1740,-89.526,0.658,-31.124
EX0521-092111,14,C03,rest,13162,13162,0,763669.092,0.685,-0.677,0.193,0.187,0,0,0,0,0,0,0,0,0,0.000,0,0,0.170,0.006,0.160,-0.040,-0.040,0.015,0.994,0.010,0.006,0.000,0.014,0.000,0.000,0.000,0.000,0,2,0,2,7,255,1440,300,419,1740,-89.526,0.658,-31.124
EX0521-092111,14,C03,rest,13162,13162,0,763674.091,0.685,-0.677,0.193,0.187,0,0,0,0,0,0,0,0,0,0.000,0,0,0.069,0.010,0.040,-0.040,-0.040,0.013,0.994,0.010,0.006,0.008,0.014,0.000,0.000,0.000,0.000,0,2,0,2,7,255,1440,300,424,1740,-89.526,0.658,-31.124
EX0521-092111,14,C03,rest,13195,13195,0,763679.091,0.685,-0.677,0.193,0.187,0,0,0,0,0,0,0,0,0,0.000,0,0,0.060,0.013,-0.020,-0.040,-0.040,0.015,0.993,0.010,0.010,0.008,0.014,0.000,0.000,0.000,0.000,0,2,0,2,7,255,1440,300,429,1740,-89.526,0.658,-31.124
EX0521-092111,14,C03,rest,13195,13195,0,763684.092,0.685,-0.677,0.193,0.187,0,0,0,0,0,0,0,0,0,0.000,0,0,0.049,0.019,-0.020,-0.040,0.020,0.015,0.993,0.009,0.010,0.016,0.006,0.000,0.000,0.000,0.000,0,2,0,2,7,255,1440,300,434,1740,-89.526,0.658,-31.124
EX0521-092111,14,C03,rest,13195,13195,0,763689.091,0.685,-0.677,0.193,0.187,0,0,0,0,0,0,0,0,0,0.000,0,0,0.085,0.017,-0.020,0.020,0.080,0.014,0.992,0.010,0.010,0.014,0.000,0.000,0.000,0.000,0.000,0,2,0,2,7,255,1440,300,439,1740,-89.526,0.658,-31.124
EX0521-092111,14,C03,rest,13195,13195,0,763694.093,0.685,-0.677,0.193,0.187,0,0,0,0,0,0,0,0,0,0.000,0,0,0.202,0.016,-0.200,0.020,0.020,0.014,0.993,0.010,0.008,0.014,0.000,0.000,0.000,0.000,0.000,0,2,0,2,7,255,1440,300,444,1740,-89.526,0.658,-31.124
EX0521-092111,14,C03,rest,13195,13195,0,763699.092,0.685,-0.677,0.193,0.187,0,0,0,0,0,0,0,0,0,0.000,0,0,0.085,0.012,-0.080,0.020,0.020,0.014,0.991,0.011,0.006,0.010,-0.010,0.000,0.000,0.000,0.000,0,2,0,2,7,255,1440,300,449,1740,-89.526,0.658,-31.124
EX0521-092111,14,C03,rest,13195,13195,0,763704.092,0.685,-0.677,0.193,0.187,0,0,0,0,0,0,0,0,0,0.000,0,0,0.049,0.006,0.040,0.020,0.020,0.014,0.993,0.012,-0.004,0.004,0.000,0.000,0.000,0.000,0.000,0,2,0,2,7,255,1440,300,454,1740,-89.526,0.658,-31.124
EX0521-092111,14,C03,rest,13206,13206,0,763709.091,0.685,-0.677,0.193,0.187,0,0,0,0,0,0,0,0,0,0.000,0,0,0.092,0.006,-0.080,0.020,0.040,0.014,0.993,0.012,-0.004,-0.004,0.000,0.000,0.000,0.000,0.000,0,2,0,2,7,255,1440,300,459,1740,-89.526,0.658,-31.124
EX0521-092111,14,C03,rest,13206,13206,0,763714.092,0.685,-0.677,0.193,0.187,0,0,0,0,0,0,0,0,0,0.000,0,0,0.049,0.007,-0.020,0.020,-0.040,0.014,0.993,0.012,-0.006,-0.004,0.000,0.000,0.000,0.000,0.000,0,2,0,2,7,255,1440,300,464,1740,-89.526,0.658,-31.124
EX0521-092111,14,C03,rest,13206,13206,0,763719.092,0.685,-0.677,0.193,0.187,0,0,0,0,0,0,0,0,0,0.000,0,0,0.115,0.009,0.100,-0.040,-0.040,0.014,0.994,0.012,-0.008,-0.004,0.006,0.000,0.000,0.000,0.000,0,2,0,2,7,255,1440,300,469,1740,-89.526,0.658,-31.124
EX0521-092111,14,C03,rest,13206,13206,0,763724.091,0.685,-0.677,0.193,0.187,0,0,0,0,0,0,0,0,0,0.000,0,0,0.115,0.006,0.040,-0.100,-0.040,0.014,0.992,0.012,-0.006,-0.002,0.006,0.000,0.000,0.000,0.000,0,2,0,2,7,255,1440,300,474,1740,-89.526,0.658,-31.124
EX0521-092111,14,C03,rest,13228,13228,0,763729.091,0.685,-0.677,0.193,0.187,0,0,0,0,0,0,0,0,0,0.000,0,0,0.115,0.003,0.040,-0.100,-0.040,0.014,0.990,0.011,-0.002,-0.002,-0.004,0.000,0.000,0.000,0.000,0,2,0,2,7,255,1440,300,479,1740,-89.526,0.658,-31.124
EX0521-092111,14,C03,rest,13228,13228,0,763734.092,0.685,-0.677,0.193,0.187,0,0,0,0,0,0,0,0,0,0.000,0,0,0.115,0.004,0.040,-0.100,-0.040,0.015,0.994,0.011,0.004,0.002,-0.004,0.000,0.000,0.000,0.000,0,2,0,2,7,255,1440,300,484,1740,-89.526,0.658,-31.124
EX0521-092111,14,C03,rest,13228,13228,0,763739.092,0.685,-0.677,0.193,0.187,0,0,0,0,0,0,0,0,0,0.000,0,0,0.170,0.008,0.040,-0.160,-0.040,0.014,0.994,0.009,0.006,0.006,0.010,0.000,0.000,0.000,0.000,0,2,0,2,7,255,1440,300,489,1740,-89.526,0.658,-31.124
EX0521-092111,14,C03,rest,13228,13228,0,763744.091,0.685,-0.677,0.193,0.187,0,0,0,0,0,0,0,0,0,0.000,0,0,0.060,0.010,-0.020,-0.040,0.040,0.014,0.994,0.011,0.006,0.008,0.010,0.000,0.000,0.000,0.000,0,2,0,2,7,255,1440,300,494,1740,-89.526,0.658,-31.124
EX0521-092111,14,C03,rest,13239,13239,0,763749.092,0.685,-0.677,0.193,0.187,0,0,0,0,0,0,0,0,0,0.000,0,0,0.049,0.012,-0.020,0.020,0.040,0.014,0.993,0.010,0.006,0.010,0.010,0.000,0.000,0.000,0.000,0,2,0,2,7,255,1440,300,499,1740,-89.526,0.658,-31.124
EX0521-092111,14,C03,rest,13239,13239,0,763754.092,0.685,-0.677,0.193,0.187,0,0,0,0,0,0,0,0,0,0.000,0,0,0.092,0.009,-0.080,0.020,0.040,0.015,0.990,0.011,0.004,0.008,0.006,0.000,0.000,0.000,0.000,0,2,0,2,7,255,1440,300,504,1740,-89.526,0.658,-31.124
EX0521-092111,14,C03,rest,13255,13255,0,763759.091,0.685,-0.677,0.193,0.187,0,0,0,0,0,0,0,0,0,0.000,0,0,0.085,0.006,-0.080,0.020,-0.020,0.015,0.990,0.011,0.006,-0.002,-0.022,0.000,0.000,0.000,0.000,0,2,0,2,7,255,1440,300,509,1740,-89.526,0.658,-31.124
EX0521-092111,14,C03,rest,13255,13255,0,763764.093,0.685,-0.677,0.193,0.187,0,0,0,0,0,0,0,0,0,0.000,0,0,0.035,0.006,-0.020,0.020,-0.020,0.014,0.993,0.012,0.004,-0.004,-0.022,0.000,0.000,0.000,0.000,0,2,0,2,7,255,1440,300,514,1740,-89.527,0.658,-31.124
EX0521-092111,14,C03,rest,13255,13255,0,763769.092,0.685,-0.677,0.193,0.187,0,0,0,0,0,0,0,0,0,0.000,0,0,0.060,0.009,0.040,0.020,0.040,0.013,0.995,0.013,-0.004,-0.008,0.000,0.000,0.000,0.000,0.000,0,2,0,2,7,255,1440,300,519,1740,-89.527,0.658,-31.124
EX0521-092111,14,C03,rest,13255,13255,0,763774.091,0.685,-0.677,0.193,0.187,0,0,0,0,0,0,0,0,0,0.000,0,0,0.060,0.009,0.040,-0.040,-0.020,0.015,0.993,0.011,-0.004,-0.008,0.006,0.000,0.000,0.000,0.000,0,2,0,2,7,255,1440,300,524,1740,-89.527,0.658,-31.124
EX0521-092111,14,C03,rest,13287,13287,0,763779.091,0.685,-0.677,0.193,0.187,0,0,0,0,0,0,0,0,0,0.000,0,0,0.115,0.012,0.100,-0.040,0.040,0.013,0.993,0.011,-0.012,-0.002,0.006,0.000,0.000,0.000,0.000,0,2,0,2,7,255,1440,300,529,1740,-89.527,0.658,-31.124
EX0521-092111,14,C03,rest,13287,13287,0,763784.092,0.685,-0.677,0.193,0.187,0,0,0,0,0,0,0,0,0,0.000,0,0,0.060,0.008,0.040,-0.040,-0.020,0.013,0.993,0.010,-0.002,0.008,0.000,0.000,0.000,0.000,0.000,0,2,0,2,7,255,1440,300,534,1740,-89.527,0.658,-31.124
EX0521-092111,14,C03,rest,13287,13287,0,763789.092,0.685,-0.677,0.193,0.187,0,0,0,0,0,0,0,0,0,0.000,0,0,0.049,0.014,0.040,0.020,-0.020,0.013,0.993,0.010,-0.002,0.014,0.000,0.000,0.000,0.000,0.000,0,2,0,2,7,255,1440,300,539,1740,-89.527,0.658,-31.124
EX0521-092111,14,C03,rest,13287,13287,0,763794.093,0.685,-0.677,0.193,0.187,0,0,0,0,0,0,0,0,0,0.000,0,0,0.092,0.014,-0.080,-0.040,-0.020,0.014,0.993,0.010,0.000,0.014,0.000,0.000,0.000,0.000,0.000,0,2,0,2,7,255,1440,300,544,1740,-89.527,0.658,-31.124
EX0521-092111,14,C03,rest,13287,13287,0,763799.092,0.685,-0.677,0.193,0.187,0,0,0,0,0,0,0,0,0,0.000,0,0,0.069,0.012,0.040,-0.040,0.040,0.014,0.993,0.011,0.000,0.012,0.000,0.000,0.000,0.000,0.000,0,2,0,2,7,255,1440,300,549,1740,-89.527,0.658,-31.124
EX0521-092111,14,C03,rest,13287,13287,0,763804.092,0.685,-0.677,0.193,0.187,0,0,0,0,0,0,0,0,0,0.000,0,0,0.110,0.006,-0.020,-0.100,0.040,0.014,0.993,0.011,0.004,0.004,0.006,0.000,0.000,0.000,0.000,0,2,0,2,7,255,1440,300,554,1740,-89.527,0.658,-31.124
EX0521-092111,14,C03,rest,13319,13319,0,763809.091,0.685,-0.677,0.193,0.187,0,0,0,0,0,0,0,0,0,0.000,0,0,0.060,0.004,-0.020,-0.040,-0.040,0.015,0.993,0.011,0.004,0.000,0.006,0.000,0.000,0.000,0.000,0,2,0,2,7,255,1440,300,0,0,-89.527,0.658,-31.124
EX0521-092111,14,C03,rest,13319,13319,0,763814.091,0.685,-0.677,0.193,0.187,0,0,0,0,0,0,0,0,0,0.000,0,0,0.098,0.006,-0.080,-0.040,-0.040,0.014,0.992,0.010,0.004,0.004,0.006,0.000,0.000,0.000,0.000,0,2,0,2,7,255,1440,300,0,0,-89.527,0.658,-31.124
EX0521-092111,14,C03,rest,13319,13319,0,763819.092,0.685,-0.677,0.193,0.187,0,0,0,0,0,0,0,0,0,0.000,0,0,0.098,0.003,-0.080,-0.040,-0.040,0.014,0.990,0.012,0.002,-0.002,-0.010,0.000,0.000,0.000,0.000,0,2,0,2,7,255,1440,300,0,0,-89.527,0.658,-31.124
EX0521-092111,14,C03,rest,13319,13319,0,763824.092,0.685,-0.677,0.193,0.187,0,0,0,0,0,0,0,0,0,0.000,0,0,0.049,0.006,0.040,0.020,0.020,0.013,0.993,0.012,-0.006,0.002,-0.010,0.000,0.000,0.000,0.000,0,2,0,2,7,255,1440,300,0,0,-89.527,0.658,-31.124
EX0521-092111,14,C03,rest,13319,13319,0,763829.091,0.685,-0.677,0.193,0.187,0,0,0,0,0,0,0,0,0,0.000,0,0,0.049,0.006,-0.020,0.020,-0.040,0.014,0.994,0.011,-0.006,0.000,0.006,0.000,0.000,0.000,0.000,0,2,0,2,7,255,1440,300,0,0,-89.527,0.658,-31.124
EX0521-092111,14,C03,rest,13319,13319,0,763834.092,0.685,-0.677,0.193,0.187,0,0,0,0,0,0,0,0,0,0.000,0,0,0.069,0.010,0.040,-0.040,-0.040,0.014,0.993,0.013,-0.010,0.000,0.006,0.000,0.000,0.000,0.000,0,2,0,2,7,255,1440,300,0,0,-89.527,0.658,-31.124
EX0521-092111,14,C03,rest,13319,13319,0,763839.093,0.685,-0.677,0.193,0.187,0,0,0,0,0,0,0,0,0,0.000,0,0,0.069,0.004,0.040,-0.040,-0.040,0.014,0.991,0.012,-0.002,-0.004,0.000,0.000,0.000,0.000,0.000,0,2,0,2,7,255,1440,300,0,0,-89.527,0.658,-31.124
EX0521-092111,14,C03,rest,13319,13319,0,763844.092,0.685,-0.677,0.193,0.187,0,0,0,0,0,0,0,0,0,0.000,0,0,0.115,0.006,0.040,-0.100,-0.040,0.015,0.993,0.012,-0.002,-0.006,0.000,0.000,0.000,0.000,0.000,0,2,0,2,7,255,1440,300,0,0,-89.527,0.658,-31.124
EX0521-092111,14,C03,rest,13335,13335,0,763849.092,0.685,-0.677,0.193,0.187,0,0,0,0,0,0,0,0,0,0.000,0,0,0.115,0.006,0.100,-0.040,-0.040,0.015,0.994,0.012,0.002,-0.006,0.006,0.000,0.000,0.000,0.000,0,2,0,2,7,255,1440,300,0,0,-89.527,0.658,-31.124
EX0521-092111,14,C03,rest,13335,13335,0,763854.092,0.685,-0.677,0.193,0.187,0,0,0,0,0,0,0,0,0,0.000,0,0,0.060,0.006,0.040,-0.040,0.020,0.015,0.992,0.008,0.002,-0.006,0.006,0.000,0.000,0.000,0.000,0,2,0,2,7,255,1440,300,0,0,-89.527,0.658,-31.124
EX0521-092111,14,C03,rest,13351,13351,0,763859.091,0.685,-0.677,0.193,0.187,0,0,0,0,0,0,0,0,0,0.000,0,0,0.098,0.019,-0.080,-0.040,-0.040,0.014,0.992,0.009,0.006,0.018,-0.004,0.000,0.000,0.000,0.000,0,2,0,2,7,255,1440,300,0,0,-89.528,0.658,-31.124
EX0521-092111,14,C03,rest,13351,13351,0,763864.091,0.685,-0.677,0.193,0.187,0,0,0,0,0,0,0,0,0,0.000,0,0,0.092,0.019,-0.020,0.080,-0.040,0.013,0.993,0.013,0.006,0.018,-0.004,0.000,0.000,0.000,0.000,0,2,0,2,7,255,1440,300,0,0,-89.528,0.658,-31.124
EX0521-092111,14,C03,rest,13351,13351,0,763869.093,0.685,-0.677,0.193,0.187,0,0,0,0,0,0,0,0,0,0.000,0,0,0.060,0.006,-0.020,-0.040,-0.040,0.015,0.993,0.012,0.002,-0.006,0.000,0.000,0.000,0.000,0.000,0,2,0,2,7,255,1440,300,0,0,-89.528,0.658,-31.124
EX0521-092111,14,C03,rest,13351,13351,0,763874.093,0.685,-0.677,0.193,0.187,0,0,0,0,0,0,0,0,0,0.000,0,0,0.060,0.012,-0.020,-0.040,-0.040,0.013,0.993,0.011,-0.010,-0.006,0.006,0.000,0.000,0.000,0.000,0,2,0,2,7,255,1440,300,0,0,-89.528,0.658,-31.124
EX0521-092111,14,C03,prep,49,49,0,763879.091,0.685,-0.677,0.193,0.187,0,0,0,0,0,0,0,0,0,0.000,0,0,0.060,0.004,0.040,0.020,-0.040,0.014,0.993,0.011,0.002,0.004,0.000,0.000,0.000,0.000,0.000,0,2,0,2,7,255,1440,300,0,0,-89.528,0.658,-31.124
EX0521-092111,14,C03,prep,49,49,0,763884.092,0.685,-0.677,0.193,0.187,0,0,0,0,0,0,0,0,0,0.000,0,0,0.115,0.006,0.100,-0.040,-0.040,0.014,0.992,0.011,-0.004,0.004,0.000,0.000,0.000,0.000,0.000,0,2,0,2,7,255,1440,300,0,0,-89.528,0.658,-31.124
EX0521-092111,14,C03,prep,49,49,0,763889.092,0.685,-0.677,0.193,0.187,0,0,0,0,0,0,0,0,0,0.000,0,0,0.049,0.004,-0.020,-0.040,0.020,0.014,0.990,0.012,-0.004,0.002,-0.004,0.000,0.000,0.000,0.000,0,2,0,2,7,255,1440,300,0,0,-89.528,0.658,-31.124
EX0521-092111,14,C03,prep,49,49,0,763894.093,0.685,-0.677,0.193,0.187,0,0,0,0,0,0,0,0,0,0.000,0,0,0.275,0.010,-0.260,-0.040,0.080,0.014,0.992,0.012,-0.008,-0.006,-0.004,0.000,0.000,0.000,0.000,0,2,0,2,7,255,1440,300,0,0,-89.528,0.658,-31.124
EX0521-092111,14,C03,prep,49,49,0,763899.092,0.685,-0.677,0.193,0.187,0,0,0,0,0,0,0,0,0,0.000,0,0,0.143,0.010,-0.140,0.020,0.020,0.013,0.998,0.010,-0.008,-0.006,-0.004,0.000,0.000,0.000,0.000,0,2,0,2,7,255,1440,300,0,0,-89.528,0.658,-31.124
EX0521-092111,14,C03,prep,49,49,0,763904.092,0.685,-0.677,0.193,0.187,0,0,0,0,0,0,0,0,0,0.000,0,0,0.639,0.020,0.600,0.020,-0.220,0.014,0.996,0.008,-0.004,0.020,0.034,0.000,0.000,0.000,0.000,0,2,0,2,7,255,1440,300,0,0,-89.531,0.658,-31.124
EX0521-092111,14,C03,prep,65,65,0,763909.092,0.685,-0.677,0.193,0.187,0,0,0,0,0,0,0,0,0,0.000,0,0,0.640,0.020,0.600,-0.040,-0.220,0.015,0.989,0.013,0.002,0.020,0.034,0.000,0.000,0.000,0.000,0,2,0,2,7,255,1440,300,0,0,-89.534,0.658,-31.124
EX0521-092111,14,C03,prep,65,65,0,763914.091,0.685,-0.677,0.193,0.187,0,0,0,0,0,0,0,0,0,0.000,0,0,0.944,0.020,-0.880,-0.040,0.340,0.016,0.985,0.013,0.008,-0.018,-0.032,0.000,0.000,0.000,0.000,0,2,0,2,7,255,1440,300,0,0,-89.528,0.658,-31.124
EX0521-092111,14,C03,prep,65,65,0,763919.092,0.685,-0.677,0.193,0.187,0,0,0,0,0,0,0,0,0,0.000,0,0,0.092,0.018,-0.080,0.020,-0.040,0.011,1.006,0.009,0.002,-0.018,-0.032,0.000,0.000,0.000,0.000,0,2,0,2,7,255,1440,300,0,0,-89.528,0.658,-31.124
EX0521-092111,14,C03,prep,65,65,0,763924.092,0.685,-0.677,0.193,0.187,0,0,0,0,0,0,0,0,0,0.000,0,0,1.388,0.016,1.260,-0.040,-0.580,0.015,0.987,0.012,0.004,-0.016,-0.056,0.000,0.000,0.000,0.000,0,2,0,2,7,255,1440,300,0,0,-89.534,0.655,-31.124
EX0521-092111,14,C03,prep,65,65,0,763929.091,0.685,-0.677,0.193,0.187,0,0,0,0,0,0,0,0,0,0.000,0,0,1.854,0.006,-1.660,-0.100,0.820,0.015,0.984,0.011,0.004,-0.004,-0.056,0.000,0.000,0.000,0.000,0,2,0,2,7,255,1440,300,0,0,-89.526,0.659,-31.124
EX0521-092111,14,C03,prep,65,65,0,763934.092,0.685,-0.677,0.193,0.187,0,0,0,0,0,0,0,0,0,0.000,0,0,1.040,0.006,0.900,0.020,-0.520,0.011,1.015,0.008,0.004,-0.004,-0.056,0.000,0.000,0.000,0.000,0,2,0,2,7,255,1440,300,0,0,-89.531,0.659,-31.124
EX0521-092111,14,C03,prep,81,81,0,763939.092,0.685,-0.677,0.193,0.187,0,0,0,0,0,0,0,0,0,0.000,0,0,0.717,0.007,0.660,0.020,-0.280,0.019,0.971,0.015,0.006,-0.004,-0.086,0.000,0.000,0.000,0.000,0,2,0,2,7,255,1440,300,0,0,-89.528,0.661,-31.124
EX0521-092111,14,C03,prep,81,81,0,763944.091,0.685,-0.677,0.193,0.187,0,0,0,0,0,0,0,0,0,0.000,0,0,2.328,0.031,-2.100,-0.100,1.000,0.012,1.011,0.009,-0.008,0.030,0.182,0.000,0.000,0.000,0.000,0,2,0,2,7,255,1440,300,0,0,-89.518,0.666,-31.124
EX0521-092111,14,C03,prep,95,95,0,763949.091,0.685,-0.677,0.193,0.187,0,0,0,0,0,0,0,0,0,0.000,0,0,3.792,0.014,3.400,0.020,-1.680,0.015,0.988,0.010,0.012,0.008,-0.042,0.000,0.000,0.000,0.000,0,2,0,2,7,255,1440,300,0,0,-89.535,0.658,-31.124
EX0521-092111,14,C03,prep,95,95,0,763954.092,0.685,-0.677,0.193,0.187,0,0,0,0,0,0,0,0,0,0.000,0,0,4.286,0.009,-3.860,-0.100,1.860,0.015,0.982,0.012,0.004,0.008,-0.042,0.000,0.000,0.000,0.000,0,2,0,2,7,255,1440,300,0,0,-89.515,0.667,-31.124
EX0521-092111,14,C03,prep,95,95,0,763959.092,0.685,-0.677,0.193,0.187,0,0,0,0,0,0,0,0,0,0.000,0,0,3.846,0.009,3.460,0.020,-1.680,0.011,1.014,0.006,0.004,0.008,-0.042,0.000,0.000,0.000,0.000,0,2,0,2,7,255,1440,300,0,0,-89.533,0.659,-31.124
EX0521-092111,14,C03,prep,95,95,0,763964.093,0.685,-0.677,0.193,0.187,0,0,0,0,0,0,0,0,0,0.000,0,0,2.679,0.013,-2.460,0.020,1.060,0.017,0.965,0.019,-0.004,-0.012,-0.100,0.000,0.000,0.000,0.000,0,2,0,2,7,255,1440,300,0,0,-89.517,0.665,-31.124
EX0521-092111,14,C03,prep,111,111,0,763969.092,0.685,-0.677,0.193,0.187,0,0,0,0,0,0,0,0,0,0.000,0,0,1.023,0.060,0.960,-0.100,-0.340,0.011,1.020,0.005,-0.004,0.060,0.210,0.000,0.000,0.000,0.000,0,2,0,2,7,255,1440,300,0,0,-89.522,0.665,-31.124
EX0521-092111,14,C03,prep,111,111,0,763974.092,0.685,-0.677,0.193,0.187,0,0,0,0,0,0,0,0,0,0.000,0,0,0.462,0.057,0.280,0.140,-0.340,0.016,0.975,0.017,-0.008,-0.056,-0.178,0.000,0.000,0.000,0.000,0,2,0,2,7,255,1440,300,0,0,-89.515,0.665,-31.124
EX0521-092111,14,C03,prep,143,143,0,763979.091,0.685,-0.677,0.193,0.187,0,0,0,0,0,0,0,0,0,0.000,0,0,1.796,0.024,-1.540,-0.280,0.880,0.013,0.999,0.010,-0.004,0.024,0.062,0.000,0.000,0.000,0.000,0,2,0,2,7,255,1440,300,0,0,-89.507,0.669,-31.124
EX0521-092111,14,C03,prep,143,143,0,763984.091,0.685,-0.677,0.193,0.187,0,0,0,0,0,0,0,0,0,0.000,0,0,2.327,0.024,2.060,0.080,-1.080,0.013,1.000,0.008,-0.004,0.024,0.062,0.000,0.000,0.000,0.000,0,2,0,2,7,255,1440,300,0,0,-89.518,0.664,-31.124
EX0521-092111,14,C03,prep,143,143,0,763989.092,0.685,-0.677,0.193,0.187,0,0,0,0,0,0,0,0,0,0.000,0,0,2.070,0.024,-1.900,-0.040,0.820,0.015,0.978,0.018,-0.004,0.024,0.062,0.000,0.000,0.000,0.000,0,2,0,2,7,255,1440,300,0,0,-89.505,0.668,-31.124
EX0521-092111,14,C03,prep,143,143,0,763994.092,0.685,-0.677,0.193,0.187,0,0,0,0,0,0,0,0,0,0.000,0,0,1.249,0.037,1.140,-0.220,-0.460,0.012,1.014,0.004,0.010,0.036,0.066,0.000,0.000,0.000,0.000,0,2,0,2,7,255,1440,300,0,0,-89.511,0.668,-31.124
EX0521-092111,14,C03,prep,143,143,0,763999.091,0.685,-0.677,0.193,0.187,0,0,0,0,0,0,0,0,0,0.000,0,0,0.257,0.046,-0.020,0.200,-0.160,0.016,0.972,0.016,-0.004,-0.046,-0.144,0.000,0.000,0.000,0.000,0,2,0,2,7,255,1440,300,0,0,-89.505,0.668,-31.124
EX0521-092111,14,C03,prep,143,143,0,764004.093,0.685,-0.677,0.193,0.187,0,0,0,0,0,0,0,0,0,0.000,0,0,1.059,0.048,-0.940,-0.160,0.460,0.012,1.008,0.008,-0.002,0.048,0.150,0.000,0.000,0.000,0.000,0,2,0,2,7,255,1440,300,0,0,-89.500,0.668,-31.124
EX0521-092111,14,C03,prep,159,159,0,764009.092,0.685,-0.677,0.193,0.187,0,0,0,0,0,0,0,0,0,0.000,0,0,1.283,0.006,1.140,-0.100,-0.580,0.016,0.985,0.011,-0.002,-0.006,-0.074,0.000,0.000,0.000,0.000,0,2,0,2,7,255,1440,300,0,0,-89.506,0.665,-31.124
EX0521-092111,14,C03,prep,159,159,0,764014.091,0.685,-0.677,0.193,0.187,0,0,0,0,0,0,0,0,0,0.000,0,0,1.056,0.006,-0.940,0.140,0.460,0.015,0.987,0.013,-0.002,-0.006,-0.058,0.000,0.000,0.000,0.000,0,2,0,2,7,255,1440,300,0,0,-89.501,0.665,-31.124
EX0521-092111,14,C03,prep,159,159,0,764019.092,0.685,-0.677,0.193,0.187,0,0,0,0,0,0,0,0,0,0.000,0,0,1.093,0.006,0.960,-0.040,-0.520,0.011,1.008,0.007,-0.002,-0.006,-0.058,0.000,0.000,0.000,0.000,0,2,0,2,7,255,1440,300,0,0,-89.506,0.665,-31.124
EX0521-092111,14,C03,prep,159,159,0,764024.092,0.685,-0.677,0.193,0.187,0,0,0,0,0,0,0,0,0,0.000,0,0,1.675,0.012,-1.540,-0.160,0.640,0.016,0.976,0.016,-0.002,-0.012,-0.058,0.000,0.000,0.000,0.000,0,2,0,2,7,255,1440,300,0,0,-89.496,0.668,-31.124
EX0521-092111,14,C03,prep,181,181,0,764029.091,0.685,-0.677,0.193,0.187,0,0,0,0,0,0,0,0,0,0.000,0,0,1.208,0.022,1.140,0.020,-0.400,0.014,0.998,0.009,-0.002,0.022,0.044,0.000,0.000,0.000,0.000,0,2,0,2,7,255,1440,300,0,0,-89.502,0.668,-31.124
EX0521-092111,14,C03,prep,181,181,0,764034.092,0.685,-0.677,0.193,0.187,0,0,0,0,0,0,0,0,0,0.000,0,0,0.677,0.012,0.540,0.080,-0.400,0.021,0.871,0.006,0.006,-0.010,-0.170,0.000,0.000,0.000,0.000,0,2,0,2,7,255,1440,300,0,0,-89.502,0.669,-31.124
EX0521-092111,14,C03,prep,181,181,0,764039.092,0.685,-0.677,0.193,0.187,0,0,0,0,0,0,0,0,0,0.000,0,0,2.016,0.012,-1.660,-0.100,-1.140,0.008,1.049,0.028,0.006,-0.010,0.044,0.000,0.000,0.000,0.000,0,2,0,2,7,255,1440,300,0,0,-89.489,0.663,-31.124
EX0521-092111,14,C03,prep,181,181,0,764044.092,0.685,-0.677,0.193,0.187,0,0,0,0,0,0,0,0,0,0.000,0,0,2.010,0.079,1.700,-0.160,1.060,0.012,1.196,-0.010,0.078,-0.010,0.554,0.000,0.000,0.000,0.000,0,2,0,2,7,255,1440,300,0,0,-89.499,0.668,-31.124
EX0521-092111,14,C03,prep,181,181,0,764049.091,0.685,-0.677,0.193,0.187,0,0,0,0,0,0,0,0,0,0.000,0,0,0.591,0.099,0.280,0.020,-0.520,0.020,0.810,0.020,0.012,-0.098,0.554,0.000,0.000,0.000,0.000,0,2,0,2,7,255,1440,300,0,0,-89.498,0.669,-31.124
EX0521-092111,14,C03,prep,181,181,0,764054.092,0.685,-0.677,0.193,0.187,0,0,0,0,0,0,0,0,0,0.000,0,0,1.267,0.095,-1.180,0.020,0.460,0.006,1.095,0.007,0.012,0.094,0.996,0.000,0.000,0.000,0.000,0,2,0,2,7,255,1440,300,0,0,-89.492,0.668,-31.124
EX0521-092111,14,C03,prep,213,213,0,764059.092,0.685,-0.677,0.193,0.187,0,0,0,0,0,0,0,0,0,0.000,0,0,0.208,0.114,-0.200,-0.040,-0.040,0.019,0.908,0.021,-0.002,-0.114,-0.834,0.000,0.000,0.000,0.000,0,2,0,2,7,255,1440,300,0,0,-89.489,0.669,-31.124
EX0521-092111,14,C03,prep,213,213,0,764064.091,0.685,-0.677,0.193,0.187,0,0,0,0,0,0,0,0,0,0.000,0,0,0.906,0.094,0.900,-0.100,0.020,0.011,1.041,0.002,-0.002,0.094,0.466,0.000,0.000,0.000,0.000,0,2,0,2,7,255,1440,300,0,0,-89.495,0.669,-31.124
EX0521-092111,14,C03,prep,213,213,0,764069.092,0.685,-0.677,0.193,0.187,0,0,0,0,0,0,0,0,0,0.000,0,0,0.626,0.021,0.480,-0.040,-0.400,0.020,0.933,0.009,0.016,-0.014,-0.586,0.000,0.000,0.000,0.000,0,2,0,2,7,255,1440,300,0,0,-89.495,0.670,-31.124
EX0521-092111,14,C03,prep,213,213,0,764074.093,0.685,-0.677,0.193,0.187,0,0,0,0,0,0,0,0,0,0.000,0,0,1.608,0.045,-1.540,-0.040,0.460,0.010,1.113,0.011,0.016,0.042,0.466,0.000,0.000,0.000,0.000,0,2,0,2,7,255,1440,300,0,0,-89.488,0.670,-31.124
EX0521-092111,14,C03,prep,246,246,0,764079.091,0.685,-0.677,0.193,0.187,0,0,0,0,0,0,0,0,0,0.000,0,0,1.291,0.023,1.260,-0.040,-0.280,0.016,0.875,0.020,-0.018,-0.014,-0.586,0.000,0.000,0.000,0.000,0,2,0,2,7,255,1440,300,0,0,-89.491,0.670,-31.124
EX0521-092111,14,C03,prep,246,246,0,764084.091,0.685,-0.677,0.193,0.187,0,0,0,0,0,0,0,0,0,0.000,0,0,0.404,0.046,0.040,-0.040,-0.400,0.015,1.038,0.006,-0.018,0.042,0.438,0.000,0.000,0.000,0.000,0,2,0,2,7,255,1440,300,0,0,-89.492,0.670,-31.124
EX0521-092111,14,C03,prep,246,246,0,764089.092,0.685,-0.677,0.193,0.187,0,0,0,0,0,0,0,0,0,0.000,0,0,1.854,0.008,-1.660,-0.100,0.820,0.014,0.996,0.013,-0.006,-0.006,0.026,0.000,0.000,0.000,0.000,0,2,0,2,7,255,1440,300,0,0,-89.483,0.674,-31.124
EX0521-092111,14,C03,prep,246,246,0,764094.092,0.685,-0.677,0.193,0.187,0,0,0,0,0,0,0,0,0,0.000,0,0,2.029,0.040,1.880,0.080,-0.760,0.013,0.984,0.008,0.012,0.038,0.026,0.000,0.000,0.000,0.000,0,2,0,2,7,255,1440,300,0,0,-89.493,0.670,-31.124
EX0521-092111,14,C03,prep,246,246,0,764099.091,0.685,-0.677,0.193,0.187,0,0,0,0,0,0,0,0,0,0.000,0,0,0.414,0.038,-0.380,-0.040,0.160,0.012,0.982,0.008,0.000,0.038,-0.090,0.000,0.000,0.000,0.000,0,2,0,2,7,255,1440,300,0,0,-89.493,0.670,-31.124
EX0521-092111,14,C03,prep,246,246,0,764104.093,0.685,-0.677,0.193,0.187,0,0,0,0,0,0,0,0,0,0.000,0,0,0.717,0.038,-0.680,-0.160,0.160,0.014,1.022,0.015,0.000,0.038,-0.090,0.000,0.000,0.000,0.000,0,2,0,2,7,255,1440,300,0,0,-89.485,0.670,-31.124
EX0521-092111,14,C03,prep,258,258,0,764109.092,0.685,-0.677,0.193,0.187,0,0,0,0,0,0,0,0,0,0.000,0,0,0.610,0.020,0.600,-0.040,-0.100,0.018,0.959,0.016,0.000,-0.020,-0.102,0.000,0.000,0.000,0.000,0,2,0,2,7,255,1440,300,0,0,-89.482,0.672,-31.124
EX0521-092111,14,C03,prep,258,258,0,764114.091,0.685,-0.677,0.193,0.187,0,0,0,0,0,0,0,0,0,0.000,0,0,0.665,0.022,0.480,0.020,-0.460,0.013,1.033,0.006,0.008,-0.020,0.284,0.000,0.000,0.000,0.000,0,2,0,2,7,255,1440,300,0,0,-89.482,0.672,-31.124
EX0521-092111,14,C03,prep,278,278,0,764119.092,0.685,-0.677,0.193,0.187,0,0,0,0,0,0,0,0,0,0.000,0,0,1.345,0.035,-1.240,-0.040,0.520,0.013,0.975,0.008,0.010,0.034,-0.180,0.000,0.000,0.000,0.000,0,2,0,2,7,255,1440,300,0,0,-89.475,0.672,-31.124
EX0521-092111,14,C03,prep,278,278,0,764124.092,0.685,-0.677,0.193,0.187,0,0,0,0,0,0,0,0,0,0.000,0,0,0.104,0.035,0.100,0.020,0.020,0.015,0.965,0.012,0.010,0.034,-0.180,0.000,0.000,0.000,0.000,0,2,0,2,7,255,1440,300,0,0,-89.475,0.672,-31.124
EX0521-092111,14,C03,prep,278,278,0,764129.091,0.685,-0.677,0.193,0.187,0,0,0,0,0,0,0,0,0,0.000,0,0,1.588,0.034,1.500,-0.040,-0.520,0.014,1.018,0.009,0.010,0.032,-0.180,0.000,0.000,0.000,0.000,0,2,0,2,7,255,1440,300,0,0,-89.483,0.672,-31.124
EX0521-092111,14,C03,prep,278,278,0,764134.092,0.685,-0.677,0.193,0.187,0,0,0,0,0,0,0,0,0,0.000,0,0,1.277,0.007,-1.180,-0.160,0.460,0.014,1.001,0.013,0.004,-0.006,0.076,0.000,0.000,0.000,0.000,0,2,0,2,7,255,1440,300,0,0,-89.477,0.672,-31.124
EX0521-092111,14,C03,prep,278,278,0,764139.092,0.685,-0.677,0.193,0.187,0,0,0,0,0,0,0,0,0,0.000,0,0,0.143,0.007,0.100,0.020,-0.100,0.012,0.998,0.014,-0.006,-0.004,0.076,0.000,0.000,0.000,0.000,0,2,0,2,7,255,1440,300,0,0,-89.477,0.672,-31.124
EX0521-092111,14,C03,prep,278,278,0,764144.092,0.685,-0.677,0.193,0.187,0,0,0,0,0,0,0,0,0,0.000,0,0,0.796,0.007,0.720,0.020,-0.340,0.013,0.982,0.009,-0.006,-0.004,0.048,0.000,0.000,0.000,0.000,0,2,0,2,7,255,1440,300,0,0,-89.481,0.672,-31.124
EX0521-092111,14,C03,prep,288,288,0,764149.091,0.685,-0.677,0.193,0.187,0,0,0,0,0,0,0,0,0,0.000,0,0,0.867,0.022,-0.820,-0.040,0.280,0.016,0.986,0.008,0.000,0.022,-0.070,0.000,0.000,0.000,0.000,0,2,0,2,7,255,1440,300,0,0,-89.477,0.672,-31.124
EX0521-092111,14,C03,prep,288,288,0,764154.092,0.685,-0.677,0.193,0.187,0,0,0,0,0,0,0,0,0,0.000,0,0,0.147,0.022,-0.140,0.020,-0.040,0.014,0.991,0.012,0.000,0.022,-0.070,0.000,0.000,0.000,0.000,0,2,0,2,7,255,1440,300,0,0,-89.477,0.672,-31.124
EX0521-092111,14,C03,prep,303,303,0,764159.092,0.685,-0.677,0.193,0.187,0,0,0,0,0,0,0,0,0,0.000,0,0,0.829,0.010,0.780,0.020,-0.280,0.014,1.010,0.011,-0.002,0.010,-0.022,0.000,0.000,0.000,0.000,0,2,0,2,7,255,1440,300,0,0,-89.481,0.672,-31.124
EX0521-092111,14,C03,prep,303,303,0,764164.093,0.685,-0.677,0.193,0.187,0,0,0,0,0,0,0,0,0,0.000,0,0,0.098,0.010,-0.080,-0.040,-0.040,0.013,0.995,0.010,-0.002,0.010,0.014,0.000,0.000,0.000,0.000,0,2,0,2,7,255,1440,300,0,0,-89.481,0.672,-31.124
EX0521-092111,14,C03,prep,303,303,0,764169.092,0.685,-0.677,0.193,0.187,0,0,0,0,0,0,0,0,0,0.000,0,0,0.642,0.011,-0.620,-0.040,0.160,0.014,0.978,0.013,-0.004,0.010,0.014,0.000,0.000,0.000,0.000,0,2,0,2,7,255,1440,300,0,0,-89.478,0.672,-31.124
EX0521-092111,14,C03,prep,303,303,0,764174.092,0.685,-0.677,0.193,0.187,0,0,0,0,0,0,0,0,0,0.000,0,0,0.697,0.009,0.660,-0.040,-0.220,0.015,0.995,0.010,-0.004,0.008,0.014,0.000,0.000,0.000,0.000,0,2,0,2,7,255,1440,300,0,0,-89.481,0.672,-31.124
EX0521-092111,14,C03,prep,351,351,0,764179.091,0.685,-0.677,0.193,0.187,0,0,0,0,0,0,0,0,0,0.000,0,0,0.193,0.018,0.160,-0.040,-0.100,0.015,0.994,0.009,0.016,0.008,0.010,0.000,0.000,0.000,0.000,0,2,0,2,7,255,1440,300,0,0,-89.481,0.672,-31.124
EX0521-092111,14,C03,prep,351,351,0,764184.091,0.685,-0.677,0.193,0.187,0,0,0,0,0,0,0,0,0,0.000,0,0,0.981,0.018,-0.940,0.020,0.280,0.013,0.999,0.012,0.016,0.008,0.016,0.000,0.000,0.000,0.000,0,2,0,2,7,255,1440,300,0,0,-89.477,0.672,-31.124
EX0521-092111,14,C03,prep,351,351,0,764189.092,0.685,-0.677,0.193,0.187,0,0,0,0,0,0,0,0,0,0.000,0,0,0.528,0.015,0.480,0.020,-0.220,0.012,0.997,0.014,-0.014,0.006,0.038,0.000,0.000,0.000,0.000,0,2,0,2,7,255,1440,300,0,0,-89.477,0.672,-31.124
EX0521-092111,14,C03,prep,351,351,0,764194.092,0.685,-0.677,0.193,0.187,0,0,0,0,0,0,0,0,0,0.000,0,0,0.407,0.015,0.340,-0.040,-0.220,0.015,0.988,0.010,-0.014,0.006,0.038,0.000,0.000,0.000,0.000,0,2,0,2,7,255,1440,300,0,0,-89.477,0.672,-31.124
EX0521-092111,14,C03,prep,351,351,0,764199.091,0.685,-0.677,0.193,0.187,0,0,0,0,0,0,0,0,0,0.000,0,0,0.531,0.013,-0.500,-0.160,0.080,0.015,0.997,0.011,0.010,0.008,0.034,0.000,0.000,0.000,0.000,0,2,0,2,7,255,1440,300,0,0,-89.477,0.672,-31.124
EX0521-092111,14,C03,prep,351,351,0,764204.093,0.685,-0.677,0.193,0.187,0,0,0,0,0,0,0,0,0,0.000,0,0,0.170,0.016,0.160,-0.040,-0.040,0.013,0.986,0.011,0.010,0.012,-0.048,0.000,0.000,0.000,0.000,0,2,0,2,7,255,1440,300,0,0,-89.477,0.672,-31.124
EX0521-092111,14,C03,prep,351,351,0,764209.092,0.685,-0.677,0.193,0.187,0,0,0,0,0,0,0,0,0,0.000,0,0,0.451,0.016,0.420,-0.040,-0.160,0.014,0.993,0.009,0.010,0.012,-0.004,0.000,0.000,0.000,0.000,0,2,0,2,7,255,1440,300,0,0,-89.477,0.672,-31.124
EX0521-092111,14,C03,prep,351,351,0,764214.091,0.685,-0.677,0.193,0.187,0,0,0,0,0,0,0,0,0,0.000,0,0,0.448,0.012,-0.440,0.020,0.080,0.014,0.999,0.011,-0.002,0.012,-0.004,0.000,0.000,0.000,0.000,0,2,0,2,7,255,1440,300,0,0,-89.477,0.672,-31.124
EX0521-092111,14,C03,prep,367,367,0,764219.092,0.685,-0.677,0.193,0.187,0,0,0,0,0,0,0,0,0,0.000,0,0,0.275,0.008,-0.260,-0.040,0.080,0.015,0.993,0.013,0.000,0.008,-0.004,0.000,0.000,0.000,0.000,0,2,0,2,7,255,1440,300,0,0,-89.477,0.672,-31.124
EX0521-092111,14,C03,prep,367,367,0,764224.092,0.685,-0.677,0.193,0.187,0,0,0,0,0,0,0,0,0,0.000,0,0,0.640,0.008,0.600,-0.040,-0.220,0.014,0.993,0.011,0.000,0.008,0.000,0.000,0.000,0.000,0.000,0,2,0,2,7,255,1440,300,0,0,-89.480,0.672,-31.124
EX0521-092111,14,C03,prep,367,367,0,764229.092,0.685,-0.677,0.193,0.187,0,0,0,0,0,0,0,0,0,0.000,0,0,0.227,0.009,-0.200,-0.100,-0.040,0.014,0.993,0.010,0.004,0.008,0.000,0.000,0.000,0.000,0.000,0,2,0,2,7,255,1440,300,0,0,-89.480,0.672,-31.124
EX0521-092111,14,C03,prep,367,367,0,764234.091,0.685,-0.677,0.193,0.187,0,0,0,0,0,0,0,0,0,0.000,0,0,0.332,0.009,-0.320,-0.040,0.080,0.014,0.987,0.011,0.004,0.008,0.000,0.000,0.000,0.000,0.000,0,2,0,2,7,255,1440,300,0,0,-89.480,0.672,-31.124
EX0521-092111,14,C03,prep,383,383,0,764239.092,0.685,-0.677,0.193,0.187,0,0,0,0,0,0,0,0,0,0.000,0,0,0.662,0.006,0.600,0.020,-0.280,0.013,0.998,0.012,-0.002,0.006,0.000,0.000,0.000,0.000,0.000,0,2,0,2,7,255,1440,300,0,0,-89.483,0.672,-31.124
EX0521-092111,14,C03,prep,383,383,0,764244.091,0.685,-0.677,0.193,0.187,0,0,0,0,0,0,0,0,0,0.000,0,0,0.202,0.006,-0.200,0.020,0.020,0.014,1.000,0.010,-0.002,0.006,0.048,0.000,0.000,0.000,0.000,0,2,0,2,7,255,1440,300,0,0,-89.483,0.672,-31.124
EX0521-092111,14,C03,prep,383,383,0,764249.091,0.685,-0.677,0.193,0.187,0,0,0,0,0,0,0,0,0,0.000,0,0,0.463,0.006,-0.440,-0.040,0.140,0.014,0.990,0.011,-0.002,0.006,0.048,0.000,0.000,0.000,0.000,0,2,0,2,7,255,1440,300,0,0,-89.483,0.672,-31.124
EX0521-092111,14,C03,prep,383,383,0,764254.092,0.685,-0.677,0.193,0.187,0,0,0,0,0,0,0,0,0,0.000,0,0,0.451,0.007,0.420,-0.040,-0.160,0.014,0.988,0.011,0.004,0.006,-0.028,0.000,0.000,0.000,0.000,0,2,0,2,7,255,1440,300,0,0,-89.483,0.672,-31.124
EX0521-092111,14,C03,prep,399,399,0,764259.092,0.685,-0.677,0.193,0.187,0,0,0,0,0,0,0,0,0,0.000,0,0,0.193,0.007,0.160,-0.040,-0.100,0.013,0.992,0.009,0.004,0.006,-0.028,0.000,0.000,0.000,0.000,0,2,0,2,7,255,1440,300,0,0,-89.483,0.672,-31.124
EX0521-092111,14,C03,prep,399,399,0,764264.091,0.685,-0.677,0.193,0.187,0,0,0,0,0,0,0,0,0,0.000,0,0,0.336,0.015,-0.320,-0.100,0.020,0.013,0.993,0.011,0.004,0.014,-0.014,0.000,0.000,0.000,0.000,0,2,0,2,7,255,1440,300,0,0,-89.483,0.672,-31.124
EX0521-092111,14,C03,prep,415,415,0,764269.092,0.685,-0.677,0.193,0.187,0,0,0,0,0,0,0,0,0,0.000,0,0,0.193,0.016,0.160,-0.040,-0.100,0.013,0.997,0.012,-0.008,0.014,0.000,0.000,0.000,0.000,0.000,0,2,0,2,7,255,1440,300,0,0,-89.483,0.672,-31.124
EX0521-092111,14,C03,prep,415,415,0,764274.092,0.685,-0.677,0.193,0.187,0,0,0,0,0,0,0,0,0,0.000,0,0,0.193,0.016,0.160,-0.040,-0.100,0.014,0.994,0.010,-0.008,0.014,0.006,0.000,0.000,0.000,0.000,0,2,0,2,7,255,1440,300,0,0,-89.483,0.672,-31.124
EX0521-092111,14,C03,prep,448,448,0,764279.091,0.685,-0.677,0.193,0.187,0,0,0,0,0,0,0,0,0,0.000,0,0,0.508,0.012,-0.500,-0.040,0.080,0.015,0.989,0.010,0.010,0.006,0.006,0.000,0.000,0.000,0.000,0,2,0,2,7,255,1440,300,0,0,-89.484,0.672,-31.124
EX0521-092111,14,C03,prep,448,448,0,764284.091,0.685,-0.677,0.193,0.187,0,0,0,0,0,0,0,0,0,0.000,0,0,0.098,0.012,-0.080,-0.040,-0.040,0.014,0.991,0.012,0.010,0.006,-0.018,0.000,0.000,0.000,0.000,0,2,0,2,7,255,1440,300,0,0,-89.484,0.672,-31.124
EX0521-092111,14,C03,prep,448,448,0,764289.092,0.685,-0.677,0.193,0.187,0,0,0,0,0,0,0,0,0,0.000,0,0,0.451,0.006,0.420,-0.040,-0.160,0.012,0.993,0.012,0.000,0.006,-0.018,0.000,0.000,0.000,0.000,0,2,0,2,7,255,1440,300,0,0,-89.484,0.672,-31.124
EX0521-092111,14,C03,prep,448,448,0,764294.092,0.685,-0.677,0.193,0.187,0,0,0,0,0,0,0,0,0,0.000,0,0,0.237,0.008,-0.200,-0.100,0.080,0.013,0.997,0.010,0.000,0.008,0.000,0.000,0.000,0.000,0.000,0,2,0,2,7,255,1440,300,0,0,-89.484,0.672,-31.124
EX0521-092111,14,C03,prep,448,448,0,764299.091,0.685,-0.677,0.193,0.187,0,0,0,0,0,0,0,0,0,0.000,0,0,0.098,0.008,-0.080,-0.040,-0.040,0.014,0.993,0.011,-0.002,0.008,0.000,0.000,0.000,0.000,0.000,0,2,0,2,7,255,1440,300,0,0,-89.484,0.672,-31.124
EX0521-092111,14,C03,prep,448,448,0,764304.093,0.685,-0.677,0.193,0.187,0,0,0,0,0,0,0,0,0,0.000,0,0,0.376,0.004,0.340,0.020,-0.160,0.016,0.993,0.010,0.002,0.004,-0.004,0.000,0.000,0.000,0.000,0,2,0,2,7,255,1440,300,0,0,-89.484,0.672,-31.124
EX0521-092111,14,C03,prep,448,448,0,764309.092,0.685,-0.677,0.193,0.187,0,0,0,0,0,0,0,0,0,0.000,0,0,0.219,0.007,-0.200,-0.040,0.080,0.014,0.994,0.010,0.006,0.004,-0.004,0.000,0.000,0.000,0.000,0,2,0,2,7,255,1440,300,0,0,-89.484,0.672,-31.124
EX0521-092111,14,C03,prep,448,448,0,764314.091,0.685,-0.677,0.193,0.187,0,0,0,0,0,0,0,0,0,0.000,0,0,0.275,0.006,-0.260,-0.040,0.080,0.013,0.993,0.012,0.006,0.002,-0.004,0.000,0.000,0.000,0.000,0,2,0,2,7,255,1440,300,0,0,-89.484,0.672,-31.124
EX0521-092111,14,C03,prep,463,463,0,764319.092,0.685,-0.677,0.193,0.187,0,0,0,0,0,0,0,0,0,0.000,0,0,0.245,0.002,0.220,-0.040,-0.100,0.015,0.994,0.012,0.000,-0.002,0.006,0.000,0.000,0.000,0.000,0,2,0,2,7,255,1440,300,0,0,-89.484,0.672,-31.124
EX0521-092111,14,C03,prep,463,463,0,764324.092,0.685,-0.677,0.193,0.187,0,0,0,0,0,0,0,0,0,0.000,0,0,0.173,0.002,0.100,-0.100,-0.100,0.016,0.995,0.008,0.000,-0.002,0.010,0.000,0.000,0.000,0.000,0,2,0,2,7,255,1440,300,0,0,-89.484,0.672,-31.124
EX0521-092111,14,C03,prep,463,463,0,764329.091,0.685,-0.677,0.193,0.187,0,0,0,0,0,0,0,0,0,0.000,0,0,0.290,0.008,-0.260,-0.100,0.080,0.013,0.992,0.011,0.000,0.008,0.010,0.000,0.000,0.000,0.000,0,2,0,2,7,255,1440,300,0,0,-89.484,0.672,-31.124
EX0521-092111,14,C03,prep,463,463,0,764334.092,0.685,-0.677,0.193,0.187,0,0,0,0,0,0,0,0,0,0.000,0,0,0.245,0.008,0.220,-0.040,-0.100,0.014,0.990,0.011,-0.002,0.008,-0.010,0.000,0.000,0.000,0.000,0,2,0,2,7,255,1440,300,0,0,-89.484,0.672,-31.124
EX0521-092111,14,C03,prep,480,480,0,764339.092,0.685,-0.677,0.193,0.187,0,0,0,0,0,0,0,0,0,0.000,0,0,0.110,0.004,0.100,0.020,-0.040,0.014,0.991,0.011,-0.002,0.004,-0.018,0.000,0.000,0.000,0.000,0,2,0,2,7,255,1440,300,0,0,-89.484,0.672,-31.124
EX0521-092111,14,C03,prep,480,480,0,764344.092,0.685,-0.677,0.193,0.187,0,0,0,0,0,0,0,0,0,0.000,0,0,0.332,0.004,-0.320,-0.040,0.080,0.014,0.993,0.012,-0.002,0.004,-0.018,0.000,0.000,0.000,0.000,0,2,0,2,7,255,1440,300,0,0,-89.484,0.672,-31.124
EX0521-092111,14,C03,prep,480,480,0,764349.091,0.685,-0.677,0.193,0.187,0,0,0,0,0,0,0,0,0,0.000,0,0,0.069,0.006,0.040,-0.040,-0.040,0.013,0.996,0.011,-0.004,0.004,0.002,0.000,0.000,0.000,0.000,0,2,0,2,7,255,1440,300,0,0,-89.484,0.672,-31.124
EX0521-092111,14,C03,prep,480,480,0,764354.092,0.685,-0.677,0.193,0.187,0,0,0,0,0,0,0,0,0,0.000,0,0,0.190,0.006,0.160,0.020,-0.100,0.015,0.994,0.010,-0.004,0.004,0.010,0.000,0.000,0.000,0.000,0,2,0,2,7,255,1440,300,0,0,-89.484,0.672,-31.124
EX0521-092111,14,C03,prep,496,496,0,764359.092,0.685,-0.677,0.193,0.187,0,0,0,0,0,0,0,0,0,0.000,0,0,0.177,0.006,-0.140,-0.100,0.040,0.014,0.991,0.010,0.002,0.006,0.010,0.000,0.000,0.000,0.000,0,2,0,2,7,255,1440,300,0,0,-89.484,0.672,-31.124
EX0521-092111,14,C03,prep,496,496,0,764364.093,0.685,-0.677,0.193,0.187,0,0,0,0,0,0,0,0,0,0.000,0,0,0.115,0.008,0.040,-0.100,-0.040,0.014,0.992,0.011,0.002,0.008,-0.014,0.000,0.000,0.000,0.000,0,2,0,2,7,255,1440,300,0,0,-89.484,0.672,-31.124
EX0521-092111,14,C03,prep,512,512,0,764369.092,0.685,-0.677,0.193,0.187,0,0,0,0,0,0,0,0,0,0.000,0,0,0.242,0.008,0.220,0.020,-0.100,0.014,0.993,0.011,0.000,0.008,-0.014,0.000,0.000,0.000,0.000,0,2,0,2,7,255,1440,300,0,0,-89.484,0.672,-31.124
EX0521-092111,14,C03,prep,512,512,0,764374.092,0.685,-0.677,0.193,0.187,0,0,0,0,0,0,0,0,0,0.000,0,0,0.205,0.008,-0.200,0.020,0.040,0.014,0.995,0.011,0.000,0.008,-0.004,0.000,0.000,0.000,0.000,0,2,0,2,7,255,1440,300,0,0,-89.484,0.672,-31.124
EX0521-092111,14,C03,prep,543,543,0,764379.091,0.685,-0.677,0.193,0.187,0,0,0,0,0,0,0,0,0,0.000,0,0,0.173,0.004,-0.140,0.020,0.100,0.013,0.993,0.012,-0.002,0.004,0.000,0.000,0.000,0.000,0.000,0,2,0,2,7,255,1440,300,0,0,-89.485,0.672,-31.124
EX0521-092111,14,C03,prep,543,543,0,764384.091,0.685,-0.677,0.193,0.187,0,0,0,0,0,0,0,0,0,0.000,0,0,0.245,0.004,0.220,-0.040,-0.100,0.014,0.991,0.010,-0.002,0.004,0.000,0.000,0.000,0.000,0.000,0,2,0,2,7,255,1440,300,0,0,-89.485,0.672,-31.124
EX0521-092111,14,C03,prep,543,543,0,764389.092,0.685,-0.677,0.193,0.187,0,0,0,0,0,0,0,0,0,0.000,0,0,0.143,0.010,-0.020,-0.100,-0.100,0.014,0.990,0.009,0.006,0.008,-0.018,0.000,0.000,0.000,0.000,0,2,0,2,7,255,1440,300,0,0,-89.485,0.672,-31.124
EX0521-092111,14,C03,prep,543,543,0,764394.092,0.685,-0.677,0.193,0.187,0,0,0,0,0,0,0,0,0,0.000,0,0,0.134,0.010,-0.080,-0.100,0.040,0.014,0.991,0.011,0.006,0.008,-0.018,0.000,0.000,0.000,0.000,0,2,0,2,7,255,1440,300,0,0,-89.485,0.672,-31.124
EX0521-092111,14,C03,prep,543,543,0,764399.091,0.685,-0.677,0.193,0.187,0,0,0,0,0,0,0,0,0,0.000,0,0,0.193,0.002,0.160,-0.040,-0.100,0.014,0.993,0.012,0.000,0.002,-0.018,0.000,0.000,0.000,0.000,0,2,0,2,7,255,1440,300,0,0,-89.485,0.672,-31.124
EX0521-092111,14,C03,prep,543,543,0,764404.093,0.685,-0.677,0.193,0.187,0,0,0,0,0,0,0,0,0,0.000,0,0,0.069,0.002,0.040,-0.040,-0.040,0.014,0.996,0.010,0.000,0.002,0.002,0.000,0.000,0.000,0.000,0,2,0,2,7,255,1440,300,0,0,-89.485,0.672,-31.124
EX0521-092111,14,C03,prep,559,559,0,764409.092,0.685,-0.677,0.193,0.187,0,0,0,0,0,0,0,0,0,0.000,0,0,0.205,0.006,-0.200,-0.040,0.020,0.014,0.992,0.011,0.004,0.004,0.002,0.000,0.000,0.000,0.000,0,2,0,2,7,255,1440,300,0,0,-89.485,0.672,-31.124
EX0521-092111,14,C03,prep,559,559,0,764414.091,0.685,-0.677,0.193,0.187,0,0,0,0,0,0,0,0,0,0.000,0,0,0.115,0.009,0.100,-0.040,-0.040,0.014,0.993,0.011,0.004,0.008,0.002,0.000,0.000,0.000,0.000,0,2,0,2,7,255,1440,300,0,0,-89.485,0.672,-31.124
EX0521-092111,14,C03,prep,559,559,0,764419.092,0.685,-0.677,0.193,0.187,0,0,0,0,0,0,0,0,0,0.000,0,0,0.170,0.008,0.160,-0.040,-0.040,0.013,0.990,0.011,0.000,0.008,-0.014,0.000,0.000,0.000,0.000,0,2,0,2,7,255,1440,300,0,0,-89.485,0.672,-31.124
EX0521-092111,14,C03,prep,559,559,0,764424.092,0.685,-0.677,0.193,0.187,0,0,0,0,0,0,0,0,0,0.000,0,0,0.049,0.008,-0.020,-0.040,0.020,0.016,0.992,0.011,0.000,0.008,-0.008,0.000,0.000,0.000,0.000,0,2,0,2,7,255,1440,300,0,0,-89.485,0.672,-31.124
EX0521-092111,14,C03,prep,578,578,0,764429.092,0.685,-0.677,0.193,0.187,0,0,0,0,0,0,0,0,0,0.000,0,0,0.115,0.006,0.100,-0.040,-0.040,0.015,0.993,0.011,0.006,-0.002,-0.008,0.000,0.000,0.000,0.000,0,2,0,2,7,255,1440,300,0,0,-89.485,0.672,-31.124
EX0521-092111,14,C03,prep,578,578,0,764434.091,0.685,-0.677,0.193,0.187,0,0,0,0,0,0,0,0,0,0.000,0,0,0.115,0.008,0.100,-0.040,-0.040,0.015,0.994,0.011,0.008,-0.002,-0.004,0.000,0.000,0.000,0.000,0,2,0,2,7,255,1440,300,0,0,-89.485,0.672,-31.124
EX0521-092111,14,C03,prep,578,578,0,764439.092,0.685,-0.677,0.193,0.187,0,0,0,0,0,0,0,0,0,0.000,0,0,0.262,0.006,-0.260,0.020,0.020,0.015,0.992,0.012,0.006,-0.002,-0.004,0.000,0.000,0.000,0.000,0,2,0,2,7,255,1440,300,0,0,-89.485,0.672,-31.124
EX0521-092111,14,C03,prep,578,578,0,764444.092,0.685,-0.677,0.193,0.187,0,0,0,0,0,0,0,0,0,0.000,0,0,0.134,0.002,-0.080,-0.100,-0.040,0.014,0.993,0.012,0.000,-0.002,-0.004,0.000,0.000,0.000,0.000,0,2,0,2,7,255,1440,300,0,0,-89.485,0.672,-31.124
EX0521-092111,14,C03,prep,591,591,0,764449.091,0.685,-0.677,0.193,0.187,0,0,0,0,0,0,0,0,0,0.000,0,0,0.214,0.006,0.160,-0.100,-0.100,0.014,0.991,0.012,-0.006,-0.002,-0.012,0.000,0.000,0.000,0.000,0,2,0,2,7,255,1440,300,0,0,-89.485,0.672,-31.124
EX0521-092111,14,C03,prep,591,591,0,764454.092,0.685,-0.677,0.193,0.187,0,0,0,0,0,0,0,0,0,0.000,0,0,0.060,0.006,-0.020,-0.040,-0.040,0.014,0.992,0.011,-0.006,-0.002,-0.008,0.000,0.000,0.000,0.000,0,2,0,2,7,255,1440,300,0,0,-89.485,0.672,-31.124
EX0521-092111,14,C03,prep,591,591,0,764459.092,0.685,-0.677,0.193,0.187,0,0,0,0,0,0,0,0,0,0.000,0,0,0.049,0.006,-0.020,-0.040,0.020,0.013,0.992,0.012,-0.006,-0.002,-0.012,0.000,0.000,0.000,0.000,0,2,0,2,7,255,1440,300,0,0,-89.485,0.672,-31.124
EX0521-092111,14,C03,prep,591,591,0,764464.091,0.685,-0.677,0.193,0.187,0,0,0,0,0,0,0,0,0,0.000,0,0,0.193,0.012,0.160,-0.040,-0.100,0.013,0.993,0.012,-0.012,-0.002,-0.008,0.000,0.000,0.000,0.000,0,2,0,2,7,255,1440,300,0,0,-89.485,0.672,-31.124
EX0521-092111,14,C03,prep,612,612,0,764469.092,0.685,-0.677,0.193,0.187,0,0,0,0,0,0,0,0,0,0.000,0,0,0.060,0.012,-0.020,-0.040,-0.040,0.014,0.992,0.011,-0.012,-0.002,-0.008,0.000,0.000,0.000,0.000,0,2,0,2,7,255,1440,300,0,0,-89.485,0.672,-31.124
EX0521-092111,14,C03,prep,612,612,0,764474.092,0.685,-0.677,0.193,0.187,0,0,0,0,0,0,0,0,0,0.000,0,0,0.098,0.002,-0.080,-0.040,-0.040,0.014,0.992,0.011,0.002,0.000,-0.008,0.000,0.000,0.000,0.000,0,2,0,2,7,255,1440,300,0,0,-89.486,0.672,-31.124
EX0521-092111,14,C03,prep,645,645,0,764479.091,0.685,-0.677,0.193,0.187,0,0,0,0,0,0,0,0,0,0.000,0,0,0.069,0.004,0.040,-0.040,-0.040,0.013,0.991,0.011,0.002,0.004,-0.008,0.000,0.000,0.000,0.000,0,2,0,2,7,255,1440,300,0,0,-89.486,0.672,-31.124
EX0521-092111,14,C03,prep,645,645,0,764484.091,0.685,-0.677,0.193,0.187,0,0,0,0,0,0,0,0,0,0.000,0,0,0.110,0.010,0.100,0.020,-0.040,0.014,0.994,0.010,0.002,0.010,-0.008,0.000,0.000,0.000,0.000,0,2,0,2,7,255,1440,300,0,0,-89.486,0.672,-31.124
EX0521-092111,14,C03,prep,645,645,0,764489.092,0.685,-0.677,0.193,0.187,0,0,0,0,0,0,0,0,0,0.000,0,0,0.060,0.011,-0.020,-0.040,-0.040,0.014,0.994,0.012,-0.004,0.010,0.008,0.000,0.000,0.000,0.000,0,2,0,2,7,255,1440,300,0,0,-89.486,0.672,-31.124
EX0521-092111,14,C03,prep,645,645,0,764494.092,0.685,-0.677,0.193,0.187,0,0,0,0,0,0,0,0,0,0.000,0,0,0.143,0.003,0.100,0.020,-0.100,0.015,0.995,0.011,0.002,0.002,0.012,0.000,0.000,0.000,0.000,0,2,0,2,7,255,1440,300,0,0,-89.486,0.672,-31.124
EX0521-092111,14,C03,prep,646,646,0,764499.091,0.685,-0.677,0.193,0.187,0,0,0,0,0,0,0,0,0,0.000,0,0,0.115,0.006,0.100,-0.040,-0.040,0.014,0.992,0.010,0.006,0.002,0.012,0.000,0.000,0.000,0.000,0,2,0,2,7,255,1440,300,0,0,-89.486,0.672,-31.124
EX0521-092111,14,C03,prep,646,646,0,764504.093,0.685,-0.677,0.193,0.187,0,0,0,0,0,0,0,0,0,0.000,0,0,0.205,0.008,-0.200,-0.040,0.020,0.014,0.991,0.011,0.006,0.006,-0.012,0.000,0.000,0.000,0.000,0,2,0,2,7,255,1440,300,0,0,-89.486,0.672,-31.124
EX0521-092111,14,C03,prep,655,655,0,764509.092,0.685,-0.677,0.193,0.187,0,0,0,0,0,0,0,0,0,0.000,0,0,0.060,0.006,-0.020,-0.040,-0.040,0.013,0.992,0.012,0.000,0.006,-0.012,0.000,0.000,0.000,0.000,0,2,0,2,7,255,1440,300,0,0,-89.486,0.672,-31.124
EX0521-092111,14,C03,prep,655,655,0,764514.091,0.685,-0.677,0.193,0.187,0,0,0,0,0,0,0,0,0,0.000,0,0,0.170,0.003,0.160,-0.040,-0.040,0.014,0.995,0.011,-0.002,0.002,-0.008,0.000,0.000,0.000,0.000,0,2,0,2,7,255,1440,300,0,0,-89.486,0.672,-31.124
EX0521-092111,14,C03,prep,655,655,0,764519.092,0.685,-0.677,0.193,0.187,0,0,0,0,0,0,0,0,0,0.000,0,0,0.115,0.003,0.040,-0.100,-0.040,0.015,0.994,0.011,-0.002,-0.002,0.012,0.000,0.000,0.000,0.000,0,2,0,2,7,255,1440,300,0,0,-89.486,0.672,-31.124
EX0521-092111,14,C03,prep,655,655,0,764524.092,0.685,-0.677,0.193,0.187,0,0,0,0,0,0,0,0,0,0.000,0,0,0.069,0.002,0.040,-0.040,-0.040,0.015,0.993,0.012,0.000,-0.002,0.012,0.000,0.000,0.000,0.000,0,2,0,2,7,255,1440,300,0,0,-89.486,0.672,-31.124
EX0521-092111,14,C03,prep,682,682,0,764529.091,0.685,-0.677,0.193,0.187,0,0,0,0,0,0,0,0,0,0.000,0,0,0.115,0.002,0.100,-0.040,-0.040,0.013,0.991,0.011,0.000,-0.002,0.002,0.000,0.000,0.000,0.000,0,2,0,2,7,255,1440,300,0,0,-89.486,0.672,-31.124
EX0521-092111,14,C03,prep,682,682,0,764534.092,0.685,-0.677,0.193,0.187,0,0,0,0,0,0,0,0,0,0.000,0,0,0.060,0.004,-0.020,-0.040,-0.040,0.014,0.992,0.011,0.000,0.004,-0.008,0.000,0.000,0.000,0.000,0,2,0,2,7,255,1440,300,0,0,-89.486,0.672,-31.124
EX0521-092111,14,C03,prep,682,682,0,764539.092,0.685,-0.677,0.193,0.187,0,0,0,0,0,0,0,0,0,0.000,0,0,0.092,0.004,-0.080,-0.040,0.020,0.014,0.991,0.011,-0.002,0.004,-0.016,0.000,0.000,0.000,0.000,0,2,0,2,7,255,1440,300,0,0,-89.486,0.672,-31.124
EX0521-092111,14,C03,prep,682,682,0,764544.092,0.685,-0.677,0.193,0.187,0,0,0,0,0,0,0,0,0,0.000,0,0,0.115,0.002,0.040,-0.040,-0.100,0.015,0.994,0.012,0.000,0.002,-0.008,0.000,0.000,0.000,0.000,0,2,0,2,7,255,1440,300,0,0,-89.486,0.672,-31.124
EX0521-092111,14,C03,prep,687,687,0,764549.091,0.685,-0.677,0.193,0.187,0,0,0,0,0,0,0,0,0,0.000,0,0,0.069,0.002,0.040,-0.040,-0.040,0.015,0.993,0.011,0.000,0.002,-0.002,0.000,0.000,0.000,0.000,0,2,0,2,7,255,1440,300,0,0,-89.486,0.672,-31.124
EX0521-092111,14,C03,prep,687,687,0,764554.092,0.685,-0.677,0.193,0.187,0,0,0,0,0,0,0,0,0,0.000,0,0,0.049,0.006,-0.020,-0.040,0.020,0.015,0.991,0.011,0.006,-0.002,-0.002,0.000,0.000,0.000,0.000,0,2,0,2,7,255,1440,300,0,0,-89.486,0.672,-31.124
EX0521-092111,14,C03,prep,687,687,0,764559.092,0.685,-0.677,0.193,0.187,0,0,0,0,0,0,0,0,0,0.000,0,0,0.115,0.006,0.040,-0.100,-0.040,0.012,0.992,0.011,0.006,0.002,-0.012,0.000,0.000,0.000,0.000,0,2,0,2,7,255,1440,300,0,0,-89.486,0.672,-31.124
EX0521-092111,14,C03,prep,687,687,0,764564.093,0.685,-0.677,0.193,0.187,0,0,0,0,0,0,0,0,0,0.000,0,0,0.115,0.006,0.040,-0.100,-0.040,0.015,0.991,0.011,0.006,0.002,-0.016,0.000,0.000,0.000,0.000,0,2,0,2,7,255,1440,300,0,0,-89.486,0.672,-31.124
EX0521-092111,14,C03,prep,713,713,0,764569.091,0.685,-0.677,0.193,0.187,0,0,0,0,0,0,0,0,0,0.000,0,0,0.147,0.010,-0.140,-0.040,0.020,0.015,0.992,0.010,0.008,0.006,-0.012,0.000,0.000,0.000,0.000,0,2,0,2,7,255,1440,300,0,0,-89.486,0.672,-31.124
EX0521-092111,14,C03,prep,713,713,0,764574.092,0.685,-0.677,0.193,0.187,0,0,0,0,0,0,0,0,0,0.000,0,0,0.060,0.008,-0.020,-0.040,-0.040,0.014,0.993,0.012,0.008,0.002,-0.012,0.000,0.000,0.000,0.000,0,2,0,2,7,255,1440,300,0,0,-89.487,0.672,-31.124
EX0521-092111,14,C03,prep,735,735,0,764579.092,0.685,-0.677,0.193,0.187,0,0,0,0,0,0,0,0,0,0.000,0,0,0.069,0.004,0.040,-0.040,-0.040,0.015,0.992,0.012,0.002,-0.004,-0.006,0.000,0.000,0.000,0.000,0,2,0,2,7,255,1440,300,0,0,-89.487,0.672,-31.124
EX0521-092111,14,C03,prep,735,735,0,764584.091,0.685,-0.677,0.193,0.187,0,0,0,0,0,0,0,0,0,0.000,0,0,0.060,0.004,-0.020,-0.040,-0.040,0.013,0.991,0.012,-0.002,-0.004,-0.006,0.000,0.000,0.000,0.000,0,2,0,2,7,255,1440,300,0,0,-89.487,0.672,-31.124
EX0521-092111,14,C03,prep,735,735,0,764589.092,0.685,-0.677,0.193,0.187,0,0,0,0,0,0,0,0,0,0.000,0,0,0.060,0.000,-0.020,-0.040,-0.040,0.014,0.991,0.011,0.000,0.000,-0.016,0.000,0.000,0.000,0.000,0,2,0,2,7,255,1440,300,0,0,-89.487,0.672,-31.124
EX0521-092111,14,C03,prep,735,735,0,764594.092,0.685,-0.677,0.193,0.187,0,0,0,0,0,0,0,0,0,0.000,0,0,0.110,0.006,0.100,0.020,-0.040,0.014,0.992,0.010,0.000,0.006,-0.016,0.000,0.000,0.000,0.000,0,2,0,2,7,255,1440,300,0,0,-89.487,0.672,-31.124
EX0521-092111,14,C03,prep,735,735,0,764599.091,0.685,-0.677,0.193,0.187,0,0,0,0,0,0,0,0,0,0.000,0,0,0.098,0.006,-0.080,-0.040,-0.040,0.014,0.993,0.011,0.000,0.006,-0.006,0.000,0.000,0.000,0.000,0,2,0,2,7,255,1440,300,0,0,-89.487,0.672,-31.124
EX0521-092111,14,C03,prep,735,735,0,764604.093,0.685,-0.677,0.193,0.187,0,0,0,0,0,0,0,0,0,0.000,0,0,0.098,0.006,-0.080,-0.040,-0.040,0.014,0.993,0.012,0.000,0.006,-0.002,0.000,0.000,0.000,0.000,0,2,0,2,7,255,1440,300,0,0,-89.487,0.672,-31.124
EX0521-092111,14,C03,prep,751,751,0,764609.092,0.685,-0.677,0.193,0.187,0,0,0,0,0,0,0,0,0,0.000,0,0,0.069,0.006,0.040,-0.040,-0.040,0.013,0.992,0.012,-0.006,0.000,-0.002,0.000,0.000,0.000,0.000,0,2,0,2,7,255,1440,300,0,0,-89.487,0.672,-31.124
EX0521-092111,14,C03,prep,751,751,0,764614.091,0.685,-0.677,0.193,0.187,0,0,0,0,0,0,0,0,0,0.000,0,0,0.110,0.006,-0.020,-0.040,-0.100,0.015,0.992,0.010,-0.006,0.000,-0.006,0.000,0.000,0.000,0.000,0,2,0,2,7,255,1440,300,0,0,-89.487,0.672,-31.124
EX0521-092111,14,C03,prep,751,751,0,764619.091,0.685,-0.677,0.193,0.187,0,0,0,0,0,0,0,0,0,0.000,0,0,0.060,0.006,-0.020,-0.040,-0.040,0.014,0.991,0.012,-0.006,0.000,-0.006,0.000,0.000,0.000,0.000,0,2,0,2,7,255,1440,300,0,0,-89.487,0.672,-31.124
EX0521-092111,14,C03,prep,751,751,0,764624.092,0.685,-0.677,0.193,0.187,0,0,0,0,0,0,0,0,0,0.000,0,0,0.115,0.006,0.100,-0.040,-0.040,0.014,0.992,0.012,-0.006,-0.002,-0.006,0.000,0.000,0.000,0.000,0,2,0,2,7,255,1440,300,0,0,-89.487,0.672,-31.124
EX0521-092111,14,C03,prep,767,767,0,764629.092,0.685,-0.677,0.193,0.187,0,0,0,0,0,0,0,0,0,0.000,0,0,0.060,0.006,-0.020,-0.040,-0.040,0.014,0.991,0.012,-0.006,-0.002,-0.014,0.000,0.000,0.000,0.000,0,2,0,2,7,255,1440,300,0,0,-89.487,0.672,-31.124
EX0521-092111,14,C03,prep,767,767,0,764634.092,0.685,-0.677,0.193,0.187,0,0,0,0,0,0,0,0,0,0.000,0,0,0.098,0.004,-0.080,-0.040,-0.040,0.014,0.993,0.012,-0.002,-0.004,-0.006,0.000,0.000,0.000,0.000,0,2,0,2,7,255,1440,300,0,0,-89.487,0.672,-31.124
EX0521-092111,14,C03,prep,783,783,0,764639.092,0.685,-0.677,0.193,0.187,0,0,0,0,0,0,0,0,0,0.000,0,0,0.060,0.004,-0.020,-0.040,-0.040,0.014,0.992,0.011,-0.002,-0.004,-0.010,0.000,0.000,0.000,0.000,0,2,0,2,7,255,1440,300,0,0,-89.487,0.672,-31.124
EX0521-092111,14,C03,prep,783,783,0,764644.092,0.685,-0.677,0.193,0.187,0,0,0,0,0,0,0,0,0,0.000,0,0,0.060,0.004,-0.020,-0.040,-0.040,0.015,0.991,0.012,0.002,-0.004,-0.010,0.000,0.000,0.000,0.000,0,2,0,2,7,255,1440,300,0,0,-89.487,0.672,-31.124
EX0521-092111,14,C03,prep,783,783,0,764649.091,0.685,-0.677,0.193,0.187,0,0,0,0,0,0,0,0,0,0.000,0,0,0.060,0.002,-0.020,-0.040,0.040,0.014,0.991,0.011,0.002,0.000,-0.014,0.000,0.000,0.000,0.000,0,2,0,2,7,255,1440,300,0,0,-89.487,0.672,-31.124
EX0521-092111,14,C03,prep,783,783,0,764654.091,0.685,-0.677,0.193,0.187,0,0,0,0,0,0,0,0,0,0.000,0,0,0.060,0.004,-0.020,-0.040,-0.040,0.015,0.992,0.011,0.004,0.002,-0.014,0.000,0.000,0.000,0.000,0,2,0,2,7,255,1440,300,0,0,-89.487,0.672,-31.124
EX0521-092111,14,C03,prep,799,799,0,764659.092,0.685,-0.677,0.193,0.187,0,0,0,0,0,0,0,0,0,0.000,0,0,0.060,0.008,-0.020,-0.040,-0.040,0.015,0.993,0.011,0.008,0.002,-0.004,0.000,0.000,0.000,0.000,0,2,0,2,7,255,1440,300,0,0,-89.487,0.672,-31.124
EX0521-092111,14,C03,prep,799,799,0,764664.092,0.685,-0.677,0.193,0.187,0,0,0,0,0,0,0,0,0,0.000,0,0,0.092,0.008,-0.080,-0.040,0.020,0.014,0.993,0.011,0.008,0.002,0.004,0.000,0.000,0.000,0.000,0,2,0,2,7,255,1440,300,0,0,-89.487,0.672,-31.124
EX0521-092111,14,C03,prep,815,815,0,764669.091,0.685,-0.677,0.193,0.187,0,0,0,0,0,0,0,0,0,0.000,0,0,0.035,0.006,-0.020,0.020,0.020,0.014,0.991,0.011,0.000,0.006,0.004,0.000,0.000,0.000,0.000,0,2,0,2,7,255,1440,300,0,0,-89.487,0.672,-31.124
EX0521-092111,14,C03,prep,815,815,0,764674.092,0.685,-0.677,0.193,0.187,0,0,0,0,0,0,0,0,0,0.000,0,0,0.115,0.006,0.040,-0.040,-0.100,0.014,0.992,0.011,0.000,0.006,-0.010,0.000,0.000,0.000,0.000,0,2,0,2,7,255,1440,300,0,0,-89.488,0.672,-31.124
EX0521-092111,14,C03,prep,831,831,0,764679.092,0.685,-0.677,0.193,0.187,0,0,0,0,0,0,0,0,0,0.000,0,0,0.060,0.006,-0.020,-0.040,-0.040,0.015,0.991,0.011,0.004,0.004,-0.014,0.000,0.000,0.000,0.000,0,2,0,2,7,255,1440,300,0,0,-89.488,0.672,-31.124
EX0521-092111,14,C03,prep,831,831,0,764684.091,0.685,-0.677,0.193,0.187,0,0,0,0,0,0,0,0,0,0.000,0,0,0.049,0.006,-0.020,0.020,-0.040,0.013,0.991,0.011,0.004,0.004,-0.014,0.000,0.000,0.000,0.000,0,2,0,2,7,255,1440,300,0,0,-89.488,0.672,-31.124
EX0521-092111,14,C03,prep,831,831,0,764689.092,0.685,-0.677,0.193,0.187,0,0,0,0,0,0,0,0,0,0.000,0,0,0.069,0.006,0.040,-0.040,-0.040,0.014,0.991,0.011,0.000,0.006,-0.014,0.000,0.000,0.000,0.000,0,2,0,2,7,255,1440,300,0,0,-89.488,0.672,-31.124
EX0521-092111,14,C03,prep,831,831,0,764694.092,0.685,-0.677,0.193,0.187,0,0,0,0,0,0,0,0,0,0.000,0,0,0.060,0.006,0.040,-0.040,0.020,0.015,0.993,0.011,0.000,0.006,-0.014,0.000,0.000,0.000,0.000,0,2,0,2,7,255,1440,300,0,0,-89.488,0.672,-31.124
EX0521-092111,14,C03,prep,847,847,0,764699.091,0.685,-0.677,0.193,0.187,0,0,0,0,0,0,0,0,0,0.000,0,0,0.060,0.004,-0.020,-0.040,-0.040,0.015,0.995,0.011,0.004,-0.002,0.006,0.000,0.000,0.000,0.000,0,2,0,2,7,255,1440,300,0,0,-89.488,0.672,-31.124
EX0521-092111,14,C03,prep,847,847,0,764704.093,0.685,-0.677,0.193,0.187,0,0,0,0,0,0,0,0,0,0.000,0,0,0.069,0.004,0.040,-0.040,-0.040,0.014,0.992,0.012,0.004,-0.002,0.006,0.000,0.000,0.000,0.000,0,2,0,2,7,255,1440,300,0,0,-89.488,0.672,-31.124
EX0521-092111,14,C03,prep,863,863,0,764709.092,0.685,-0.677,0.193,0.187,0,0,0,0,0,0,0,0,0,0.000,0,0,0.098,0.003,-0.080,-0.040,0.040,0.014,0.991,0.011,0.002,-0.002,-0.010,0.000,0.000,0.000,0.000,0,2,0,2,7,255,1440,300,0,0,-89.488,0.672,-31.124
EX0521-092111,14,C03,prep,863,863,0,764714.092,0.685,-0.677,0.193,0.187,0,0,0,0,0,0,0,0,0,0.000,0,0,0.110,0.002,-0.020,-0.100,0.040,0.013,0.992,0.011,-0.002,0.000,-0.010,0.000,0.000,0.000,0.000,0,2,0,2,7,255,1440,300,0,0,-89.488,0.672,-31.124
EX0521-092111,14,C03,prep,863,863,0,764719.091,0.685,-0.677,0.193,0.187,0,0,0,0,0,0,0,0,0,0.000,0,0,0.060,0.004,0.040,-0.040,-0.020,0.014,0.993,0.010,0.002,0.004,-0.004,0.000,0.000,0.000,0.000,0,2,0,2,7,255,1440,300,0,0,-89.488,0.672,-31.124
EX0521-092111,14,C03,prep,863,863,0,764724.092,0.685,-0.677,0.193,0.187,0,0,0,0,0,0,0,0,0,0.000,0,0,0.049,0.004,-0.020,-0.040,-0.020,0.014,0.993,0.012,-0.002,0.004,0.000,0.000,0.000,0.000,0.000,0,2,0,2,7,255,1440,300,0,0,-89.488,0.672,-31.124
EX0521-092111,14,C03,prep,863,863,0,764729.092,0.685,-0.677,0.193,0.187,0,0,0,0,0,0,0,0,0,0.000,0,0,0.049,0.000,-0.020,-0.040,-0.020,0.014,0.992,0.011,0.000,0.000,0.000,0.000,0.000,0.000,0.000,0,2,0,2,7,255,1440,300,0,0,-89.488,0.672,-31.124
EX0521-092111,14,C03,prep,863,863,0,764734.092,0.685,-0.677,0.193,0.187,0,0,0,0,0,0,0,0,0,0.000,0,0,0.049,0.002,-0.020,-0.040,-0.020,0.015,0.992,0.011,0.000,-0.002,-0.004,0.000,0.000,0.000,0.000,0,2,0,2,7,255,1440,300,0,0,-89.488,0.672,-31.124
EX0521-092111,14,C03,prep,880,880,0,764739.091,0.685,-0.677,0.193,0.187,0,0,0,0,0,0,0,0,0,0.000,0,0,0.049,0.010,-0.020,-0.040,-0.020,0.015,0.992,0.010,0.010,0.000,-0.004,0.000,0.000,0.000,0.000,0,2,0,2,7,255,1440,300,0,0,-89.488,0.672,-31.124
EX0521-092111,14,C03,prep,880,880,0,764744.092,0.685,-0.677,0.193,0.187,0,0,0,0,0,0,0,0,0,0.000,0,0,0.049,0.010,-0.020,-0.040,-0.020,0.014,0.993,0.011,0.010,0.002,-0.004,0.000,0.000,0.000,0.000,0,2,0,2,7,255,1440,300,0,0,-89.488,0.672,-31.124
EX0521-092111,14,C03,prep,896,896,0,764749.092,0.685,-0.677,0.193,0.187,0,0,0,0,0,0,0,0,0,0.000,0,0,0.060,0.004,0.040,-0.040,-0.020,0.014,0.992,0.010,0.002,0.004,-0.004,0.000,0.000,0.000,0.000,0,2,0,2,7,255,1440,300,0,0,-89.488,0.672,-31.124
EX0521-092111,14,C03,prep,896,896,0,764754.091,0.685,-0.677,0.193,0.187,0,0,0,0,0,0,0,0,0,0.000,0,0,0.060,0.003,0.040,-0.040,-0.020,0.014,0.993,0.012,-0.002,0.002,0.000,0.000,0.000,0.000,0.000,0,2,0,2,7,255,1440,300,0,0,-89.488,0.672,-31.124
EX0521-092111,14,C03,prep,896,896,0,764759.092,0.685,-0.677,0.193,0.187,0,0,0,0,0,0,0,0,0,0.000,0,0,0.060,0.004,-0.020,-0.040,-0.040,0.014,0.992,0.011,0.002,0.004,-0.004,0.000,0.000,0.000,0.000,0,2,0,2,7,255,1440,300,0,0,-89.488,0.672,-31.124
EX0521-092111,14,C03,prep,896,896,0,764764.093,0.685,-0.677,0.193,0.187,0,0,0,0,0,0,0,0,0,0.000,0,0,0.060,0.004,-0.020,-0.040,-0.040,0.014,0.992,0.012,-0.002,-0.004,-0.004,0.000,0.000,0.000,0.000,0,2,0,2,7,255,1440,300,0,0,-89.488,0.672,-31.124
EX0521-092111,14,C03,prep,914,914,0,764769.091,0.685,-0.677,0.193,0.187,0,0,0,0,0,0,0,0,0,0.000,0,0,0.049,0.006,-0.020,-0.040,0.020,0.013,0.992,0.011,-0.004,0.004,-0.004,0.000,0.000,0.000,0.000,0,2,0,2,7,255,1440,300,0,0,-89.488,0.672,-31.124
EX0521-092111,14,C03,prep,914,914,0,764774.091,0.685,-0.677,0.193,0.187,0,0,0,0,0,0,0,0,0,0.000,0,0,0.092,0.004,-0.080,0.020,-0.040,0.014,0.993,0.011,-0.004,0.000,-0.004,0.000,0.000,0.000,0.000,0,2,0,2,7,255,1440,300,0,0,-89.489,0.672,-31.124
EX0521-092111,14,C03,prep,947,947,0,764779.092,0.685,-0.677,0.193,0.187,0,0,0,0,0,0,0,0,0,0.000,0,0,0.060,0.002,-0.020,-0.040,-0.040,0.014,0.993,0.012,-0.002,0.000,0.006,0.000,0.000,0.000,0.000,0,2,0,2,7,255,1440,300,0,0,-89.489,0.672,-31.124
EX0521-092111,14,C03,prep,947,947,0,764784.091,0.685,-0.677,0.193,0.187,0,0,0,0,0,0,0,0,0,0.000,0,0,0.069,0.000,0.040,-0.040,-0.040,0.014,0.994,0.011,0.000,0.000,0.006,0.000,0.000,0.000,0.000,0,2,0,2,7,255,1440,300,0,0,-89.489,0.672,-31.124
EX0521-092111,14,C03,prep,947,947,0,764789.091,0.685,-0.677,0.193,0.187,0,0,0,0,0,0,0,0,0,0.000,0,0,0.104,0.004,-0.020,-0.100,0.020,0.014,0.992,0.012,-0.002,-0.004,0.006,0.000,0.000,0.000,0.000,0,2,0,2,7,255,1440,300,0,0,-89.489,0.672,-31.124
EX0521-092111,14,C03,prep,947,947,0,764794.092,0.685,-0.677,0.193,0.187,0,0,0,0,0,0,0,0,0,0.000,0,0,0.098,0.002,-0.080,-0.040,-0.040,0.015,0.992,0.010,0.000,0.002,-0.004,0.000,0.000,0.000,0.000,0,2,0,2,7,255,1440,300,0,0,-89.489,0.672,-31.124
EX0521-092111,14,C03,prep,959,959,0,764799.092,0.685,-0.677,0.193,0.187,0,0,0,0,0,0,0,0,0,0.000,0,0,0.092,0.012,-0.080,0.020,-0.040,0.015,0.991,0.012,0.006,-0.010,-0.008,0.000,0.000,0.000,0.000,0,2,0,2,7,255,1440,300,0,0,-89.489,0.672,-31.124
EX0521-092111,14,C03,prep,959,959,0,764804.093,0.685,-0.677,0.193,0.187,0,0,0,0,0,0,0,0,0,0.000,0,0,0.060,0.006,-0.020,-0.040,-0.040,0.014,0.994,0.010,0.006,0.002,-0.008,0.000,0.000,0.000,0.000,0,2,0,2,7,255,1440,300,0,0,-89.489,0.672,-31.124
EX0521-092111,14,C03,prep,959,959,0,764809.092,0.685,-0.677,0.193,0.187,0,0,0,0,0,0,0,0,0,0.000,0,0,0.060,0.004,-0.020,-0.040,-0.040,0.013,0.993,0.011,0.002,0.004,0.000,0.000,0.000,0.000,0.000,0,2,0,2,7,255,1440,300,0,0,-89.489,0.672,-31.124
EX0521-092111,14,C03,prep,959,959,0,764814.092,0.685,-0.677,0.193,0.187,0,0,0,0,0,0,0,0,0,0.000,0,0,0.060,0.010,-0.020,-0.040,-0.040,0.014,0.992,0.010,0.002,0.010,0.000,0.000,0.000,0.000,0.000,0,2,0,2,7,255,1440,300,0,0,-89.489,0.672,-31.124
EX0521-092111,14,C03,prep,959,959,0,764819.091,0.685,-0.677,0.193,0.187,0,0,0,0,0,0,0,0,0,0.000,0,0,0.060,0.010,-0.020,-0.040,-0.040,0.014,0.992,0.010,0.002,0.010,-0.004,0.000,0.000,0.000,0.000,0,2,0,2,7,255,1440,300,0,0,-89.489,0.672,-31.124
EX0521-092111,14,C03,prep,959,959,0,764824.091,0.685,-0.677,0.193,0.187,0,0,0,0,0,0,0,0,0,0.000,0,0,0.060,0.010,-0.020,-0.040,-0.040,0.014,0.992,0.012,0.002,0.010,-0.004,0.000,0.000,0.000,0.000,0,2,0,2,7,255,1440,300,0,0,-89.489,0.672,-31.124
EX0521-092111,14,C03,prep,959,959,0,764829.092,0.685,-0.677,0.193,0.187,0,0,0,0,0,0,0,0,0,0.000,0,0,0.060,0.004,-0.020,-0.040,-0.040,0.015,0.993,0.011,0.002,-0.004,-0.004,0.000,0.000,0.000,0.000,0,2,0,2,7,255,1440,300,0,0,-89.489,0.672,-31.124
EX0521-092111,14,C03,prep,959,959,0,764834.092,0.685,-0.677,0.193,0.187,0,0,0,0,0,0,0,0,0,0.000,0,0,0.069,0.004,0.040,-0.040,-0.040,0.014,0.993,0.011,-0.002,-0.004,0.006,0.000,0.000,0.000,0.000,0,2,0,2,7,255,1440,300,0,0,-89.489,0.672,-31.124
EX0521-092111,14,C03,prep,980,980,0,764839.091,0.685,-0.677,0.193,0.187,0,0,0,0,0,0,0,0,0,0.000,0,0,0.069,0.007,0.040,-0.040,-0.040,0.014,0.993,0.010,0.004,0.006,0.006,0.000,0.000,0.000,0.000,0,2,0,2,7,255,1440,300,0,0,-89.489,0.672,-31.124
EX0521-092111,14,C03,prep,981,981,0,764844.092,0.685,-0.677,0.193,0.187,0,0,0,0,0,0,0,0,0,0.000,0,0,0.069,0.006,0.040,-0.040,-0.040,0.014,0.992,0.012,-0.002,0.006,0.006,0.000,0.000,0.000,0.000,0,2,0,2,7,255,1440,300,0,0,-89.489,0.672,-31.124
EX0521-092111,14,C03,prep,991,991,0,764849.092,0.685,-0.677,0.193,0.187,0,0,0,0,0,0,0,0,0,0.000,0,0,0.069,0.004,0.040,-0.040,-0.040,0.014,0.992,0.011,0.004,0.002,-0.004,0.000,0.000,0.000,0.000,0,2,0,2,7,255,1440,300,0,0,-89.489,0.672,-31.124
EX0521-092111,14,C03,prep,991,991,0,764854.091,0.685,-0.677,0.193,0.187,0,0,0,0,0,0,0,0,0,0.000,0,0,0.060,0.004,-0.020,-0.040,-0.040,0.014,0.992,0.010,0.004,0.002,-0.004,0.000,0.000,0.000,0.000,0,2,0,2,7,255,1440,300,0,0,-89.489,0.672,-31.124
EX0521-092111,14,C03,prep,991,991,0,764859.091,0.685,-0.677,0.193,0.187,0,0,0,0,0,0,0,0,0,0.000,0,0,0.069,0.004,0.040,-0.040,-0.040,0.014,0.993,0.012,0.004,0.002,-0.004,0.000,0.000,0.000,0.000,0,2,0,2,7,255,1440,300,0,0,-89.489,0.672,-31.124
EX0521-092111,14,C03,prep,991,991,0,764864.092,0.685,-0.677,0.193,0.187,0,0,0,0,0,0,0,0,0,0.000,0,0,0.049,0.010,-0.020,0.020,-0.040,0.013,0.993,0.011,-0.006,0.008,0.000,0.000,0.000,0.000,0.000,0,2,0,2,7,255,1440,300,0,0,-89.489,0.672,-31.124
EX0521-092111,14,C03,prep,1013,1013,0,764869.092,0.685,-0.677,0.193,0.187,0,0,0,0,0,0,0,0,0,0.000,0,0,0.069,0.006,0.040,-0.040,-0.040,0.015,0.992,0.012,-0.006,-0.002,0.000,0.000,0.000,0.000,0.000,0,2,0,2,7,255,1440,300,0,0,-89.489,0.672,-31.124
EX0521-092111,14,C03,prep,1013,1013,0,764874.091,0.685,-0.677,0.193,0.187,0,0,0,0,0,0,0,0,0,0.000,0,0,0.060,0.002,-0.020,-0.040,-0.040,0.014,0.992,0.011,0.000,-0.002,-0.004,0.000,0.000,0.000,0.000,0,2,0,2,7,255,1440,300,0,0,-89.490,0.672,-31.124
EX0521-092111,14,C03,prep,1042,1042,0,764879.092,0.685,-0.677,0.193,0.187,0,0,0,0,0,0,0,0,0,0.000,0,0,0.069,0.006,0.040,-0.040,-0.040,0.014,0.993,0.012,0.000,-0.006,-0.004,0.000,0.000,0.000,0.000,0,2,0,2,7,255,1440,300,0,0,-89.490,0.672,-31.124
EX0521-092111,14,C03,prep,1042,1042,0,764884.092,0.685,-0.677,0.193,0.187,0,0,0,0,0,0,0,0,0,0.000,0,0,0.069,0.003,0.040,-0.040,-0.040,0.014,0.993,0.011,-0.002,-0.002,0.000,0.000,0.000,0.000,0.000,0,2,0,2,7,255,1440,300,0,0,-89.490,0.672,-31.124
EX0521-092111,14,C03,prep,1042,1042,0,764889.091,0.685,-0.677,0.193,0.187,0,0,0,0,0,0,0,0,0,0.000,0,0,0.110,0.006,-0.020,-0.100,-0.040,0.014,0.992,0.010,-0.002,0.006,0.000,0.000,0.000,0.000,0.000,0,2,0,2,7,255,1440,300,0,0,-89.490,0.672,-31.124
EX0521-092111,14,C03,prep,1042,1042,0,764894.092,0.685,-0.677,0.193,0.187,0,0,0,0,0,0,0,0,0,0.000,0,0,0.060,0.006,0.040,0.020,-0.040,0.014,0.993,0.010,0.002,0.006,0.000,0.000,0.000,0.000,0.000,0,2,0,2,7,255,1440,300,0,0,-89.490,0.672,-31.124
EX0521-092111,14,C03,prep,1042,1042,0,764899.092,0.685,-0.677,0.193,0.187,0,0,0,0,0,0,0,0,0,0.000,0,0,0.069,0.006,0.040,-0.040,-0.040,0.014,0.993,0.012,0.002,0.006,0.000,0.000,0.000,0.000,0.000,0,2,0,2,7,255,1440,300,0,0,-89.490,0.672,-31.124
EX0521-092111,14,C03,prep,1042,1042,0,764904.093,0.685,-0.677,0.193,0.187,0,0,0,0,0,0,0,0,0,0.000,0,0,0.069,0.006,0.040,-0.040,-0.040,0.013,0.994,0.010,-0.002,0.006,0.000,0.000,0.000,0.000,0.000,0,2,0,2,7,255,1440,300,0,0,-89.490,0.672,-31.124
EX0521-092111,14,C03,prep,1055,1055,0,764909.091,0.685,-0.677,0.193,0.187,0,0,0,0,0,0,0,0,0,0.000,0,0,0.098,0.003,0.040,-0.040,-0.080,0.014,0.994,0.011,-0.002,0.002,0.010,0.000,0.000,0.000,0.000,0,2,0,2,7,255,1440,300,0,0,-89.490,0.672,-31.124
EX0521-092111,14,C03,prep,1055,1055,0,764914.092,0.685,-0.677,0.193,0.187,0,0,0,0,0,0,0,0,0,0.000,0,0,0.049,0.008,-0.020,-0.040,-0.020,0.014,0.992,0.010,0.002,0.008,0.010,0.000,0.000,0.000,0.000,0,2,0,2,7,255,1440,300,0,0,-89.490,0.672,-31.124
EX0521-092111,14,C03,prep,1081,1081,0,764919.092,0.685,-0.677,0.193,0.187,0,0,0,0,0,0,0,0,0,0.000,0,0,0.049,0.004,-0.020,-0.040,-0.020,0.015,0.992,0.011,0.004,0.002,-0.008,0.000,0.000,0.000,0.000,0,2,0,2,7,255,1440,300,0,0,-89.490,0.672,-31.124
EX0521-092111,14,C03,prep,1081,1081,0,764924.091,0.685,-0.677,0.193,0.187,0,0,0,0,0,0,0,0,0,0.000,0,0,0.060,0.003,-0.020,-0.040,0.040,0.014,0.993,0.011,0.002,-0.002,-0.008,0.000,0.000,0.000,0.000,0,2,0,2,7,255,1440,300,0,0,-89.490,0.672,-31.124
EX0521-092111,14,C03,prep,1081,1081,0,764929.092,0.685,-0.677,0.193,0.187,0,0,0,0,0,0,0,0,0,0.000,0,0,0.060,0.006,0.040,-0.040,-0.020,0.015,0.993,0.011,0.004,-0.004,0.000,0.000,0.000,0.000,0.000,0,2,0,2,7,255,1440,300,0,0,-89.490,0.672,-31.124
EX0521-092111,14,C03,prep,1081,1081,0,764934.092,0.685,-0.677,0.193,0.187,0,0,0,0,0,0,0,0,0,0.000,0,0,0.049,0.002,-0.020,-0.040,-0.020,0.013,0.992,0.012,0.000,-0.002,0.000,0.000,0.000,0.000,0.000,0,2,0,2,7,255,1440,300,0,0,-89.490,0.672,-31.124
EX0521-092111,14,C03,prep,1081,1081,0,764939.091,0.685,-0.677,0.193,0.187,0,0,0,0,0,0,0,0,0,0.000,0,0,0.060,0.002,-0.020,-0.040,0.040,0.014,0.993,0.010,0.002,0.000,0.000,0.000,0.000,0.000,0.000,0,2,0,2,7,255,1440,300,0,0,-89.490,0.672,-31.124
EX0521-092111,14,C03,prep,1081,1081,0,764944.091,0.685,-0.677,0.193,0.187,0,0,0,0,0,0,0,0,0,0.000,0,0,0.092,0.002,0.040,0.020,-0.080,0.015,0.993,0.011,0.002,0.000,0.000,0.000,0.000,0.000,0.000,0,2,0,2,7,255,1440,300,0,0,-89.490,0.672,-31.124
EX0521-092111,14,C03,prep,1087,1087,0,764949.092,0.685,-0.677,0.193,0.187,0,0,0,0,0,0,0,0,0,0.000,0,0,0.060,0.002,0.040,-0.040,-0.020,0.015,0.993,0.012,0.002,0.000,0.000,0.000,0.000,0.000,0.000,0,2,0,2,7,255,1440,300,0,0,-89.490,0.672,-31.124
EX0521-092111,14,C03,prep,1087,1087,0,764954.092,0.685,-0.677,0.193,0.187,0,0,0,0,0,0,0,0,0,0.000,0,0,0.060,0.010,-0.020,-0.040,0.040,0.014,0.993,0.012,0.000,-0.010,0.000,0.000,0.000,0.000,0.000,0,2,0,2,7,255,1440,300,0,0,-89.490,0.672,-31.124
EX0521-092111,14,C03,prep,1110,1110,0,764959.093,0.685,-0.677,0.193,0.187,0,0,0,0,0,0,0,0,0,0.000,0,0,0.060,0.011,0.040,-0.040,-0.020,0.014,0.993,0.011,-0.004,-0.010,0.000,0.000,0.000,0.000,0.000,0,2,0,2,7,255,1440,300,0,0,-89.490,0.672,-31.124
EX0521-092111,14,C03,prep,1110,1110,0,764964.093,0.685,-0.677,0.193,0.187,0,0,0,0,0,0,0,0,0,0.000,0,0,0.060,0.004,0.040,-0.040,-0.020,0.014,0.993,0.011,-0.004,0.000,0.000,0.000,0.000,0.000,0.000,0,2,0,2,7,255,1440,300,0,0,-89.490,0.672,-31.124
EX0521-092111,14,C03,prep,1110,1110,0,764969.092,0.685,-0.677,0.193,0.187,0,0,0,0,0,0,0,0,0,0.000,0,0,0.092,0.004,-0.020,-0.040,-0.080,0.014,0.992,0.011,-0.004,0.000,0.000,0.000,0.000,0.000,0.000,0,2,0,2,7,255,1440,300,0,0,-89.490,0.672,-31.124
EX0521-092111,14,C03,prep,1110,1110,0,764974.091,0.685,-0.677,0.193,0.187,0,0,0,0,0,0,0,0,0,0.000,0,0,0.110,0.006,0.040,-0.100,-0.020,0.014,0.993,0.010,-0.002,0.006,0.000,0.000,0.000,0.000,0.000,0,2,0,2,7,255,1440,300,0,0,-89.491,0.672,-31.124
EX0521-092111,14,C03,prep,1151,1151,0,764979.092,0.685,-0.677,0.193,0.187,0,0,0,0,0,0,0,0,0,0.000,0,0,0.110,0.004,-0.020,-0.100,0.040,0.014,0.991,0.011,-0.002,0.004,-0.004,0.000,0.000,0.000,0.000,0,2,0,2,7,255,1440,300,0,0,-89.491,0.672,-31.124
EX0521-092111,14,C03,prep,1151,1151,0,764984.092,0.685,-0.677,0.193,0.187,0,0,0,0,0,0,0,0,0,0.000,0,0,0.049,0.004,-0.020,-0.040,-0.020,0.013,0.993,0.011,-0.002,0.004,0.000,0.000,0.000,0.000,0.000,0,2,0,2,7,255,1440,300,0,0,-89.491,0.672,-31.124
EX0521-092111,14,C03,prep,1151,1151,0,764989.091,0.685,-0.677,0.193,0.187,0,0,0,0,0,0,0,0,0,0.000,0,0,0.130,0.004,-0.080,-0.100,-0.020,0.015,0.994,0.012,-0.002,0.004,0.000,0.000,0.000,0.000,0.000,0,2,0,2,7,255,1440,300,0,0,-89.491,0.672,-31.124
EX0521-092111,14,C03,prep,1151,1151,0,764994.092,0.685,-0.677,0.193,0.187,0,0,0,0,0,0,0,0,0,0.000,0,0,0.092,0.002,-0.080,-0.040,-0.020,0.015,0.994,0.011,0.002,0.000,0.010,0.000,0.000,0.000,0.000,0,2,0,2,7,255,1440,300,0,0,-89.491,0.672,-31.124
EX0521-092111,14,C03,prep,1151,1151,0,764999.092,0.685,-0.677,0.193,0.187,0,0,0,0,0,0,0,0,0,0.000,0,0,0.035,0.006,-0.020,0.020,-0.020,0.015,0.993,0.011,0.006,0.000,0.010,0.000,0.000,0.000,0.000,0,2,0,2,7,255,1440,300,0,0,-89.491,0.672,-31.124
EX0521-092111,14,C03,prep,1151,1151,0,765004.093,0.685,-0.677,0.193,0.187,0,0,0,0,0,0,0,0,0,0.000,0,0,0.060,0.006,0.040,-0.040,-0.020,0.014,0.992,0.011,0.006,0.000,0.000,0.000,0.000,0.000,0.000,0,2,0,2,7,255,1440,300,0,0,-89.491,0.672,-31.124
EX0521-092111,14,C03,prep,1168,1168,0,765009.091,0.685,-0.677,0.193,0.187,0,0,0,0,0,0,0,0,0,0.000,0,0,0.069,0.003,0.040,-0.040,-0.040,0.014,0.993,0.011,0.002,0.002,0.000,0.000,0.000,0.000,0.000,0,2,0,2,7,255,1440,300,0,0,-89.491,0.672,-31.124
EX0521-092111,14,C03,prep,1168,1168,0,765014.092,0.685,-0.677,0.193,0.187,0,0,0,0,0,0,0,0,0,0.000,0,0,0.060,0.003,-0.020,-0.040,-0.040,0.014,0.994,0.011,0.002,0.002,0.006,0.000,0.000,0.000,0.000,0,2,0,2,7,255,1440,300,0,0,-89.491,0.672,-31.124
EX0521-092111,14,C03,prep,1168,1168,0,765019.092,0.685,-0.677,0.193,0.187,0,0,0,0,0,0,0,0,0,0.000,0,0,0.060,0.002,-0.020,-0.040,-0.040,0.014,0.993,0.011,0.000,0.002,0.006,0.000,0.000,0.000,0.000,0,2,0,2,7,255,1440,300,0,0,-89.491,0.672,-31.124
EX0521-092111,14,C03,prep,1168,1168,0,765024.091,0.685,-0.677,0.193,0.187,0,0,0,0,0,0,0,0,0,0.000,0,0,0.060,0.004,-0.020,-0.040,-0.040,0.015,0.993,0.010,0.000,0.004,0.000,0.000,0.000,0.000,0.000,0,2,0,2,7,255,1440,300,0,0,-89.491,0.672,-31.124
EX0521-092111,14,C03,prep,1168,1168,0,765029.092,0.685,-0.677,0.193,0.187,0,0,0,0,0,0,0,0,0,0.000,0,0,0.143,0.002,-0.020,-0.100,0.100,0.014,0.994,0.012,0.000,-0.002,0.000,0.000,0.000,0.000,0.000,0,2,0,2,7,255,1440,300,0,0,-89.491,0.672,-31.124
EX0521-092111,14,C03,prep,1168,1168,0,765034.092,0.685,-0.677,0.193,0.187,0,0,0,0,0,0,0,0,0,0.000,0,0,0.060,0.012,-0.020,-0.040,-0.040,0.014,0.992,0.009,0.010,0.006,0.000,0.000,0.000,0.000,0.000,0,2,0,2,7,255,1440,300,0,0,-89.491,0.672,-31.124
EX0521-092111,14,C03,prep,1168,1168,0,765039.091,0.685,-0.677,0.193,0.187,0,0,0,0,0,0,0,0,0,0.000,0,0,0.110,0.002,-0.020,-0.100,-0.040,0.014,0.994,0.011,0.000,-0.002,0.010,0.000,0.000,0.000,0.000,0,2,0,2,7,255,1440,300,0,0,-89.491,0.672,-31.124
EX0521-092111,14,C03,prep,1168,1168,0,765044.091,0.685,-0.677,0.193,0.187,0,0,0,0,0,0,0,0,0,0.000,0,0,0.069,0.004,0.040,-0.040,-0.040,0.015,0.995,0.011,0.004,-0.002,0.010,0.000,0.000,0.000,0.000,0,2,0,2,7,255,1440,300,0,0,-89.491,0.672,-31.124
EX0521-092111,14,C03,prep,1183,1183,0,765049.092,0.685,-0.677,0.193,0.187,0,0,0,0,0,0,0,0,0,0.000,0,0,0.060,0.002,-0.020,-0.040,-0.040,0.014,0.994,0.011,0.000,-0.002,0.010,0.000,0.000,0.000,0.000,0,2,0,2,7,255,1440,300,0,0,-89.491,0.672,-31.124
EX0521-092111,14,C03,prep,1183,1183,0,765054.092,0.685,-0.677,0.193,0.187,0,0,0,0,0,0,0,0,0,0.000,0,0,0.060,0.004,-0.020,-0.040,-0.040,0.014,0.994,0.012,0.000,-0.004,0.014,0.000,0.000,0.000,0.000,0,2,0,2,7,255,1440,300,0,0,-89.491,0.672,-31.124
EX0521-092111,14,C03,prep,1199,1199,0,765059.091,0.685,-0.677,0.193,0.187,0,0,0,0,0,0,0,0,0,0.000,0,0,0.069,0.004,0.040,-0.040,-0.040,0.013,0.994,0.010,-0.004,-0.002,0.014,0.000,0.000,0.000,0.000,0,2,0,2,7,255,1440,300,0,0,-89.491,0.672,-31.124
EX0521-092111,14,C03,prep,1199,1199,0,765064.092,0.685,-0.677,0.193,0.187,0,0,0,0,0,0,0,0,0,0.000,0,0,0.060,0.006,-0.020,-0.040,-0.040,0.014,0.992,0.011,-0.004,0.004,0.014,0.000,0.000,0.000,0.000,0,2,0,2,7,255,1440,300,0,0,-89.491,0.672,-31.124
EX0521-092111,14,C03,prep,1199,1199,0,765069.092,0.685,-0.677,0.193,0.187,0,0,0,0,0,0,0,0,0,0.000,0,0,0.110,0.007,-0.020,-0.040,-0.100,0.013,0.993,0.011,-0.004,0.006,0.000,0.000,0.000,0.000,0.000,0,2,0,2,7,255,1440,300,0,0,-89.492,0.672,-31.124
EX0521-092111,14,C03,prep,1199,1199,0,765074.093,0.685,-0.677,0.193,0.187,0,0,0,0,0,0,0,0,0,0.000,0,0,0.049,0.004,-0.020,0.020,-0.040,0.015,0.993,0.011,-0.002,0.004,0.000,0.000,0.000,0.000,0.000,0,2,0,2,7,255,1440,300,0,0,-89.492,0.672,-31.124
EX0521-092111,14,C03,prep,1247,1247,0,765079.092,0.685,-0.677,0.193,0.187,0,0,0,0,0,0,0,0,0,0.000,0,0,0.069,0.006,0.040,-0.040,-0.040,0.014,0.994,0.010,0.000,0.006,0.000,0.000,0.000,0.000,0.000,0,2,0,2,7,255,1440,300,0,0,-89.492,0.672,-31.124
EX0521-092111,14,C03,prep,1247,1247,0,765084.092,0.685,-0.677,0.193,0.187,0,0,0,0,0,0,0,0,0,0.000,0,0,0.069,0.004,0.040,-0.040,-0.040,0.015,0.993,0.011,0.004,0.000,0.000,0.000,0.000,0.000,0.000,0,2,0,2,7,255,1440,300,0,0,-89.492,0.672,-31.124
EX0521-092111,14,C03,prep,1247,1247,0,765089.092,0.685,-0.677,0.193,0.187,0,0,0,0,0,0,0,0,0,0.000,0,0,0.069,0.006,0.040,-0.040,-0.040,0.015,0.993,0.011,0.004,-0.004,0.000,0.000,0.000,0.000,0.000,0,2,0,2,7,255,1440,300,0,0,-89.492,0.672,-31.124
EX0521-092111,14,C03,prep,1247,1247,0,765094.092,0.685,-0.677,0.193,0.187,0,0,0,0,0,0,0,0,0,0.000,0,0,0.115,0.007,0.040,-0.100,-0.040,0.014,0.993,0.009,0.006,-0.004,0.000,0.000,0.000,0.000,0.000,0,2,0,2,7,255,1440,300,0,0,-89.492,0.672,-31.124
EX0521-092111,14,C03,prep,1247,1247,0,765099.092,0.685,-0.677,0.193,0.187,0,0,0,0,0,0,0,0,0,0.000,0,0,0.069,0.007,0.040,-0.040,-0.040,0.015,0.993,0.012,0.006,-0.004,0.000,0.000,0.000,0.000,0.000,0,2,0,2,7,255,1440,300,0,0,-89.492,0.672,-31.124
EX0521-092111,14,C03,prep,1247,1247,0,765104.093,0.685,-0.677,0.193,0.187,0,0,0,0,0,0,0,0,0,0.000,0,0,0.060,0.008,-0.020,-0.040,-0.040,0.014,0.993,0.012,0.002,-0.008,0.004,0.000,0.000,0.000,0.000,0,2,0,2,7,255,1440,300,0,0,-89.492,0.672,-31.124
EX0521-092111,14,C03,prep,1263,1263,0,765109.091,0.685,-0.677,0.193,0.187,0,0,0,0,0,0,0,0,0,0.000,0,0,0.049,0.008,-0.020,-0.040,0.020,0.014,0.992,0.011,0.000,-0.008,0.004,0.000,0.000,0.000,0.000,0,2,0,2,7,255,1440,300,0,0,-89.492,0.672,-31.124
EX0521-092111,14,C03,prep,1263,1263,0,765114.092,0.685,-0.677,0.193,0.187,0,0,0,0,0,0,0,0,0,0.000,0,0,0.049,0.002,-0.020,0.020,-0.040,0.014,0.992,0.010,0.000,-0.002,-0.004,0.000,0.000,0.000,0.000,0,2,0,2,7,255,1440,300,0,0,-89.492,0.672,-31.124
EX0521-092111,14,C03,prep,1263,1263,0,765119.092,0.685,-0.677,0.193,0.187,0,0,0,0,0,0,0,0,0,0.000,0,0,0.060,0.002,-0.020,-0.040,-0.040,0.014,0.992,0.011,0.000,-0.002,-0.004,0.000,0.000,0.000,0.000,0,2,0,2,7,255,1440,300,0,0,-89.492,0.672,-31.124
EX0521-092111,14,C03,prep,1263,1263,0,765124.091,0.685,-0.677,0.193,0.187,0,0,0,0,0,0,0,0,0,0.000,0,0,0.069,0.002,0.040,-0.040,-0.040,0.015,0.993,0.012,0.000,-0.002,-0.004,0.000,0.000,0.000,0.000,0,2,0,2,7,255,1440,300,0,0,-89.492,0.672,-31.124
EX0521-092111,14,C03,prep,1263,1263,0,765129.091,0.685,-0.677,0.193,0.187,0,0,0,0,0,0,0,0,0,0.000,0,0,0.060,0.004,-0.020,-0.040,-0.040,0.015,0.994,0.011,0.000,-0.004,0.004,0.000,0.000,0.000,0.000,0,2,0,2,7,255,1440,300,0,0,-89.492,0.672,-31.124
EX0521-092111,14,C03,prep,1263,1263,0,765134.092,0.685,-0.677,0.193,0.187,0,0,0,0,0,0,0,0,0,0.000,0,0,0.060,0.007,0.040,0.020,-0.040,0.015,0.994,0.011,0.004,-0.006,0.010,0.000,0.000,0.000,0.000,0,2,0,2,7,255,1440,300,0,0,-89.492,0.672,-31.124
EX0521-092111,14,C03,prep,1279,1279,0,765139.092,0.685,-0.677,0.193,0.187,0,0,0,0,0,0,0,0,0,0.000,0,0,0.060,0.009,-0.020,-0.040,-0.040,0.015,0.993,0.010,0.008,-0.004,0.010,0.000,0.000,0.000,0.000,0,2,0,2,7,255,1440,300,0,0,-89.492,0.672,-31.124
EX0521-092111,14,C03,prep,1279,1279,0,765144.091,0.685,-0.677,0.193,0.187,0,0,0,0,0,0,0,0,0,0.000,0,0,0.098,0.008,-0.080,-0.040,-0.040,0.013,0.993,0.011,0.008,0.002,0.004,0.000,0.000,0.000,0.000,0,2,0,2,7,255,1440,300,0,0,-89.492,0.672,-31.124
EX0521-092111,14,C03,prep,1295,1295,0,765149.092,0.685,-0.677,0.193,0.187,0,0,0,0,0,0,0,0,0,0.000,0,0,0.069,0.008,0.040,-0.040,-0.040,0.015,0.994,0.011,0.008,0.002,0.004,0.000,0.000,0.000,0.000,0,2,0,2,7,255,1440,300,0,0,-89.492,0.672,-31.124
EX0521-092111,14,C03,prep,1295,1295,0,765154.092,0.685,-0.677,0.193,0.187,0,0,0,0,0,0,0,0,0,0.000,0,0,0.092,0.006,-0.080,-0.040,0.020,0.014,0.993,0.012,-0.002,-0.006,0.004,0.000,0.000,0.000,0.000,0,2,0,2,7,255,1440,300,0,0,-89.492,0.672,-31.124
EX0521-092111,14,C03,prep,1295,1295,0,765159.095,0.685,-0.677,0.193,0.187,0,0,0,0,0,0,0,0,0,0.000,0,0,0.049,0.006,-0.020,-0.040,0.020,0.014,0.993,0.012,-0.002,-0.006,0.000,0.000,0.000,0.000,0.000,0,2,0,2,7,255,1440,300,0,0,-89.492,0.672,-31.124
EX0521-092111,14,C03,prep,1295,1295,0,765164.092,0.685,-0.677,0.193,0.187,0,0,0,0,0,0,0,0,0,0.000,0,0,0.060,0.006,0.040,0.020,-0.040,0.014,0.994,0.011,-0.002,-0.006,0.000,0.000,0.000,0.000,0.000,0,2,0,2,7,255,1440,300,0,0,-89.492,0.672,-31.124
EX0521-092111,14,C03,prep,1316,1316,0,765169.092,0.685,-0.677,0.193,0.187,0,0,0,0,0,0,0,0,0,0.000,0,0,0.060,0.002,-0.020,-0.040,-0.040,0.014,0.994,0.010,0.000,0.002,0.008,0.000,0.000,0.000,0.000,0,2,0,2,7,255,1440,300,0,0,-89.493,0.672,-31.124
EX0521-092111,14,C03,prep,1316,1316,0,765174.091,0.685,-0.677,0.193,0.187,0,0,0,0,0,0,0,0,0,0.000,0,0,0.069,0.002,0.040,-0.040,-0.040,0.013,0.993,0.012,0.000,0.002,0.008,0.000,0.000,0.000,0.000,0,2,0,2,7,255,1440,300,0,0,-89.493,0.672,-31.124
EX0521-092111,14,C03,prep,1345,1345,0,765179.091,0.685,-0.677,0.193,0.187,0,0,0,0,0,0,0,0,0,0.000,0,0,0.104,0.002,-0.020,-0.100,0.020,0.015,0.993,0.011,0.000,0.002,0.004,0.000,0.000,0.000,0.000,0,2,0,2,7,255,1440,300,0,0,-89.493,0.672,-31.124
EX0521-092111,14,C03,prep,1345,1345,0,765184.092,0.685,-0.677,0.193,0.187,0,0,0,0,0,0,0,0,0,0.000,0,0,0.110,0.006,-0.020,-0.100,-0.040,0.014,0.993,0.010,0.006,0.002,0.004,0.000,0.000,0.000,0.000,0,2,0,2,7,255,1440,300,0,0,-89.493,0.672,-31.124
EX0521-092111,14,C03,prep,1345,1345,0,765189.092,0.685,-0.677,0.193,0.187,0,0,0,0,0,0,0,0,0,0.000,0,0,0.115,0.006,0.040,-0.100,-0.040,0.015,0.993,0.011,0.006,0.000,0.004,0.000,0.000,0.000,0.000,0,2,0,2,7,255,1440,300,0,0,-89.493,0.672,-31.124
EX0521-092111,14,C03,prep,1345,1345,0,765194.093,0.685,-0.677,0.193,0.187,0,0,0,0,0,0,0,0,0,0.000,0,0,0.060,0.004,0.040,0.020,-0.040,0.013,0.992,0.012,0.004,-0.002,0.000,0.000,0.000,0.000,0.000,0,2,0,2,7,255,1440,300,0,0,-89.493,0.672,-31.124
EX0521-092111,14,C03,prep,1345,1345,0,765199.092,0.685,-0.677,0.193,0.187,0,0,0,0,0,0,0,0,0,0.000,0,0,0.069,0.004,0.040,-0.040,-0.040,0.014,0.991,0.010,0.004,-0.002,-0.006,0.000,0.000,0.000,0.000,0,2,0,2,7,255,1440,300,0,0,-89.493,0.672,-31.124
EX0521-092111,14,C03,prep,1345,1345,0,765204.092,0.685,-0.677,0.193,0.187,0,0,0,0,0,0,0,0,0,0.000,0,0,0.060,0.007,-0.020,-0.040,-0.040,0.014,0.993,0.010,0.004,0.006,-0.006,0.000,0.000,0.000,0.000,0,2,0,2,7,255,1440,300,0,0,-89.493,0.672,-31.124
EX0521-092111,14,C03,prep,1359,1359,0,765209.091,0.685,-0.677,0.193,0.187,0,0,0,0,0,0,0,0,0,0.000,0,0,0.060,0.007,0.040,0.020,-0.040,0.012,0.993,0.012,0.004,0.006,0.000,0.000,0.000,0.000,0.000,0,2,0,2,7,255,1440,300,0,0,-89.493,0.672,-31.124
EX0521-092111,14,C03,prep,1359,1359,0,765214.092,0.685,-0.677,0.193,0.187,0,0,0,0,0,0,0,0,0,0.000,0,0,0.147,0.004,0.040,-0.100,-0.100,0.014,0.994,0.011,-0.004,0.000,0.004,0.000,0.000,0.000,0.000,0,2,0,2,7,255,1440,300,0,0,-89.493,0.672,-31.124
EX0521-092111,14,C03,prep,1359,1359,0,765219.092,0.685,-0.677,0.193,0.187,0,0,0,0,0,0,0,0,0,0.000,0,0,0.060,0.004,-0.020,-0.040,-0.040,0.014,0.994,0.011,-0.004,0.000,0.014,0.000,0.000,0.000,0.000,0,2,0,2,7,255,1440,300,0,0,-89.493,0.672,-31.124
EX0521-092111,14,C03,prep,1360,1360,0,765224.091,0.685,-0.677,0.193,0.187,0,0,0,0,0,0,0,0,0,0.000,0,0,0.098,0.002,-0.080,-0.040,-0.040,0.014,0.992,0.011,-0.002,0.000,0.014,0.000,0.000,0.000,0.000,0,2,0,2,7,255,1440,300,0,0,-89.493,0.672,-31.124
EX0521-092111,14,C03,prep,1360,1360,0,765229.091,0.685,-0.677,0.193,0.187,0,0,0,0,0,0,0,0,0,0.000,0,0,0.060,0.003,-0.020,-0.040,-0.040,0.014,0.993,0.012,-0.002,-0.002,0.004,0.000,0.000,0.000,0.000,0,2,0,2,7,255,1440,300,0,0,-89.493,0.672,-31.124
EX0521-092111,14,C03,prep,1360,1360,0,765234.092,0.685,-0.677,0.193,0.187,0,0,0,0,0,0,0,0,0,0.000,0,0,0.060,0.004,-0.020,-0.040,-0.040,0.014,0.993,0.012,-0.002,-0.004,0.004,0.000,0.000,0.000,0.000,0,2,0,2,7,255,1440,300,0,0,-89.493,0.672,-31.124
EX0521-092111,14,C03,prep,1378,1378,0,765239.091,0.685,-0.677,0.193,0.187,0,0,0,0,0,0,0,0,0,0.000,0,0,0.049,0.007,0.040,0.020,0.020,0.013,0.995,0.011,-0.006,-0.004,0.004,0.000,0.000,0.000,0.000,0,2,0,2,7,255,1440,300,0,0,-89.493,0.672,-31.124
EX0521-092111,14,C03,prep,1378,1378,0,765244.091,0.685,-0.677,0.193,0.187,0,0,0,0,0,0,0,0,0,0.000,0,0,0.060,0.007,0.040,-0.040,0.020,0.014,0.994,0.012,-0.004,-0.006,0.008,0.000,0.000,0.000,0.000,0,2,0,2,7,255,1440,300,0,0,-89.493,0.672,-31.124
EX0521-092111,14,C03,prep,1392,1392,0,765249.092,0.685,-0.677,0.193,0.187,0,0,0,0,0,0,0,0,0,0.000,0,0,0.104,0.007,-0.020,-0.100,0.020,0.014,0.993,0.012,-0.006,-0.004,0.008,0.000,0.000,0.000,0.000,0,2,0,2,7,255,1440,300,0,0,-89.493,0.672,-31.124
EX0521-092111,14,C03,prep,1392,1392,0,765254.092,0.685,-0.677,0.193,0.187,0,0,0,0,0,0,0,0,0,0.000,0,0,0.110,0.006,-0.020,-0.100,-0.040,0.014,0.993,0.011,-0.004,-0.004,-0.002,0.000,0.000,0.000,0.000,0,2,0,2,7,255,1440,300,0,0,-89.493,0.672,-31.124
EX0521-092111,14,C03,prep,1409,1409,0,765259.091,0.685,-0.677,0.193,0.187,0,0,0,0,0,0,0,0,0,0.000,0,0,0.092,0.007,-0.080,0.020,-0.040,0.014,0.993,0.012,-0.006,-0.004,-0.002,0.000,0.000,0.000,0.000,0,2,0,2,7,255,1440,300,0,0,-89.493,0.672,-31.124
EX0521-092111,14,C03,prep,1409,1409,0,765264.092,0.685,-0.677,0.193,0.187,0,0,0,0,0,0,0,0,0,0.000,0,0,0.049,0.007,-0.020,0.020,-0.040,0.014,0.993,0.012,-0.006,-0.004,-0.002,0.000,0.000,0.000,0.000,0,2,0,2,7,255,1440,300,0,0,-89.493,0.672,-31.124
EX0521-092111,14,C03,prep,1409,1409,0,765269.092,0.685,-0.677,0.193,0.187,0,0,0,0,0,0,0,0,0,0.000,0,0,0.060,0.007,-0.020,-0.040,-0.040,0.014,0.994,0.011,-0.006,-0.004,0.004,0.000,0.000,0.000,0.000,0,2,0,2,7,255,1440,300,0,0,-89.494,0.672,-31.124
EX0521-092111,14,C03,prep,1409,1409,0,765274.091,0.685,-0.677,0.193,0.187,0,0,0,0,0,0,0,0,0,0.000,0,0,0.049,0.004,-0.020,-0.040,0.020,0.015,0.993,0.012,-0.002,-0.004,0.000,0.000,0.000,0.000,0.000,0,2,0,2,7,255,1440,300,0,0,-89.494,0.672,-31.124
EX0521-092111,14,C03,prep,1446,1446,0,765279.092,0.685,-0.677,0.193,0.187,0,0,0,0,0,0,0,0,0,0.000,0,0,0.115,0.002,0.040,-0.100,-0.040,0.014,0.993,0.011,0.000,-0.002,0.004,0.000,0.000,0.000,0.000,0,2,0,2,7,255,1440,300,0,0,-89.494,0.672,-31.124
EX0521-092111,14,C03,prep,1446,1446,0,765284.092,0.685,-0.677,0.193,0.187,0,0,0,0,0,0,0,0,0,0.000,0,0,0.060,0.008,0.040,0.020,-0.040,0.014,0.993,0.012,0.000,-0.008,0.000,0.000,0.000,0.000,0.000,0,2,0,2,7,255,1440,300,0,0,-89.494,0.672,-31.124
EX0521-092111,14,C03,prep,1446,1446,0,765289.091,0.685,-0.677,0.193,0.187,0,0,0,0,0,0,0,0,0,0.000,0,0,0.060,0.008,-0.020,-0.040,-0.040,0.015,0.994,0.012,0.000,-0.008,0.004,0.000,0.000,0.000,0.000,0,2,0,2,7,255,1440,300,0,0,-89.494,0.672,-31.124
EX0521-092111,14,C03,prep,1446,1446,0,765294.093,0.685,-0.677,0.193,0.187,0,0,0,0,0,0,0,0,0,0.000,0,0,0.069,0.011,0.040,-0.040,-0.040,0.013,0.993,0.011,-0.008,-0.008,0.004,0.000,0.000,0.000,0.000,0,2,0,2,7,255,1440,300,0,0,-89.494,0.672,-31.124
EX0521-092111,14,C03,prep,1447,1447,0,765299.092,0.685,-0.677,0.193,0.187,0,0,0,0,0,0,0,0,0,0.000,0,0,0.060,0.008,0.040,0.020,-0.040,0.015,0.993,0.012,0.000,-0.008,0.004,0.000,0.000,0.000,0.000,0,2,0,2,7,255,1440,300,0,0,-89.494,0.672,-31.124
EX0521-092111,14,C03,prep,1447,1447,0,765304.092,0.685,-0.677,0.193,0.187,0,0,0,0,0,0,0,0,0,0.000,0,0,0.069,0.004,0.040,-0.040,-0.040,0.014,0.993,0.011,-0.002,0.004,0.004,0.000,0.000,0.000,0.000,0,2,0,2,7,255,1440,300,0,0,-89.494,0.672,-31.124
EX0521-092111,14,C03,prep,1455,1455,0,765309.091,0.685,-0.677,0.193,0.187,0,0,0,0,0,0,0,0,0,0.000,0,0,0.060,0.003,-0.020,-0.040,-0.040,0.015,0.993,0.011,0.002,-0.002,-0.002,0.000,0.000,0.000,0.000,0,2,0,2,7,255,1440,300,0,0,-89.494,0.672,-31.124
EX0521-092111,14,C03,prep,1455,1455,0,765314.092,0.685,-0.677,0.193,0.187,0,0,0,0,0,0,0,0,0,0.000,0,0,0.069,0.010,0.040,-0.040,-0.040,0.015,0.993,0.011,0.010,-0.002,-0.002,0.000,0.000,0.000,0.000,0,2,0,2,7,255,1440,300,0,0,-89.494,0.672,-31.124
EX0521-092111,14,C03,prep,1455,1455,0,765319.092,0.685,-0.677,0.193,0.187,0,0,0,0,0,0,0,0,0,0.000,0,0,0.069,0.010,0.040,-0.040,-0.040,0.014,0.993,0.010,0.010,-0.002,-0.002,0.000,0.000,0.000,0.000,0,2,0,2,7,255,1440,300,0,0,-89.494,0.672,-31.124
EX0521-092111,14,C03,prep,1455,1455,0,765324.091,0.685,-0.677,0.193,0.187,0,0,0,0,0,0,0,0,0,0.000,0,0,0.110,0.008,0.100,-0.040,0.020,0.014,0.993,0.011,0.008,0.000,0.004,0.000,0.000,0.000,0.000,0,2,0,2,7,255,1440,300,0,0,-89.494,0.672,-31.124
EX0521-092111,14,C03,prep,1478,1478,0,765329.092,0.685,-0.677,0.193,0.187,0,0,0,0,0,0,0,0,0,0.000,0,0,0.069,0.003,0.040,-0.040,-0.040,0.014,0.994,0.011,0.002,0.002,0.004,0.000,0.000,0.000,0.000,0,2,0,2,7,255,1440,300,0,0,-89.494,0.672,-31.124
EX0521-092111,14,C03,prep,1478,1478,0,765334.092,0.685,-0.677,0.193,0.187,0,0,0,0,0,0,0,0,0,0.000,0,0,0.110,0.002,-0.020,-0.040,-0.100,0.015,0.993,0.011,0.002,0.000,0.004,0.000,0.000,0.000,0.000,0,2,0,2,7,255,1440,300,0,0,-89.494,0.672,-31.124
EX0521-092111,14,C03,prep,1478,1478,0,765339.091,0.685,-0.677,0.193,0.187,0,0,0,0,0,0,0,0,0,0.000,0,0,0.069,0.003,0.040,-0.040,-0.040,0.014,0.993,0.011,0.002,0.002,-0.002,0.000,0.000,0.000,0.000,0,2,0,2,7,255,1440,300,0,0,-89.494,0.672,-31.124
EX0521-092111,14,C03,prep,1478,1478,0,765344.091,0.685,-0.677,0.193,0.187,0,0,0,0,0,0,0,0,0,0.000,0,0,0.110,0.004,-0.020,-0.100,-0.040,0.014,0.994,0.012,0.002,-0.004,-0.002,0.000,0.000,0.000,0.000,0,2,0,2,7,255,1440,300,0,0,-89.494,0.672,-31.124
EX0521-092111,14,C03,prep,1494,1494,0,765349.092,0.685,-0.677,0.193,0.187,0,0,0,0,0,0,0,0,0,0.000,0,0,0.110,0.004,-0.020,-0.100,-0.040,0.014,0.992,0.012,-0.002,-0.004,-0.002,0.000,0.000,0.000,0.000,0,2,0,2,7,255,1440,300,0,0,-89.494,0.672,-31.124
EX0521-092111,14,C03,prep,1494,1494,0,765354.092,0.685,-0.677,0.193,0.187,0,0,0,0,0,0,0,0,0,0.000,0,0,0.115,0.004,0.040,-0.100,-0.040,0.014,0.993,0.011,-0.002,-0.004,-0.002,0.000,0.000,0.000,0.000,0,2,0,2,7,255,1440,300,0,0,-89.494,0.672,-31.124
EX0521-092111,14,C03,prep,1496,1496,0,765359.094,0.685,-0.677,0.193,0.187,0,0,0,0,0,0,0,0,0,0.000,0,0,0.098,0.006,-0.080,-0.040,-0.040,0.014,0.993,0.012,-0.002,-0.006,-0.002,0.000,0.000,0.000,0.000,0,2,0,2,7,255,1440,300,0,0,-89.494,0.672,-31.124
EX0521-092111,14,C03,prep,1496,1496,0,765364.092,0.685,-0.677,0.193,0.187,0,0,0,0,0,0,0,0,0,0.000,0,0,0.069,0.002,0.040,-0.040,-0.040,0.014,0.992,0.011,0.000,-0.002,-0.002,0.000,0.000,0.000,0.000,0,2,0,2,7,255,1440,300,0,0,-89.494,0.672,-31.124
EX0521-092111,14,C03,prep,1508,1508,0,765369.092,0.685,-0.677,0.193,0.187,0,0,0,0,0,0,0,0,0,0.000,0,0,0.098,0.006,-0.080,-0.040,-0.040,0.013,0.992,0.011,-0.006,0.002,-0.006,0.000,0.000,0.000,0.000,0,2,0,2,7,255,1440,300,0,0,-89.495,0.672,-31.124
EX0521-092111,14,C03,prep,1508,1508,0,765374.091,0.685,-0.677,0.193,0.187,0,0,0,0,0,0,0,0,0,0.000,0,0,0.060,0.004,-0.020,-0.040,-0.040,0.014,0.993,0.012,-0.004,0.002,-0.006,0.000,0.000,0.000,0.000,0,2,0,2,7,255,1440,300,0,0,-89.495,0.672,-31.124
EX0521-092111,14,C03,prep,1551,1551,0,765379.092,0.685,-0.677,0.193,0.187,0,0,0,0,0,0,0,0,0,0.000,0,0,0.060,0.004,-0.020,-0.040,-0.040,0.015,0.993,0.011,-0.004,0.000,-0.002,0.000,0.000,0.000,0.000,0,2,0,2,7,255,1440,300,0,0,-89.495,0.672,-31.124
EX0521-092111,14,C03,prep,1551,1551,0,765384.092,0.685,-0.677,0.193,0.187,0,0,0,0,0,0,0,0,0,0.000,0,0,0.060,0.006,0.040,0.020,-0.040,0.016,0.993,0.010,0.006,-0.002,-0.002,0.000,0.000,0.000,0.000,0,2,0,2,7,255,1440,300,0,0,-89.495,0.672,-31.124
EX0521-092111,14,C03,prep,1551,1551,0,765389.091,0.685,-0.677,0.193,0.187,0,0,0,0,0,0,0,0,0,0.000,0,0,0.069,0.006,0.040,-0.040,-0.040,0.014,0.992,0.012,0.006,-0.002,-0.002,0.000,0.000,0.000,0.000,0,2,0,2,7,255,1440,300,0,0,-89.495,0.672,-31.124
EX0521-092111,14,C03,prep,1551,1551,0,765394.093,0.685,-0.677,0.193,0.187,0,0,0,0,0,0,0,0,0,0.000,0,0,0.069,0.006,0.040,-0.040,-0.040,0.013,0.993,0.011,-0.006,-0.002,-0.002,0.000,0.000,0.000,0.000,0,2,0,2,7,255,1440,300,0,0,-89.495,0.672,-31.124
EX0521-092111,14,C03,prep,1551,1551,0,765399.092,0.685,-0.677,0.193,0.187,0,0,0,0,0,0,0,0,0,0.000,0,0,0.049,0.006,-0.020,0.020,-0.040,0.014,0.993,0.011,-0.006,0.002,0.004,0.000,0.000,0.000,0.000,0,2,0,2,7,255,1440,300,0,0,-89.495,0.672,-31.124
EX0521-092111,14,C03,prep,1551,1551,0,765404.092,0.685,-0.677,0.193,0.187,0,0,0,0,0,0,0,0,0,0.000,0,0,0.049,0.002,-0.020,0.020,0.040,0.014,0.994,0.011,0.000,0.002,0.004,0.000,0.000,0.000,0.000,0,2,0,2,7,255,1440,300,0,0,-89.495,0.672,-31.124
EX0521-092111,14,C03,prep,1551,1551,0,765409.091,0.685,-0.677,0.193,0.187,0,0,0,0,0,0,0,0,0,0.000,0,0,0.069,0.002,0.040,-0.040,-0.040,0.014,0.993,0.011,0.000,-0.002,0.004,0.000,0.000,0.000,0.000,0,2,0,2,7,255,1440,300,0,0,-89.495,0.672,-31.124
EX0521-092111,14,C03,prep,1551,1551,0,765414.092,0.685,-0.677,0.193,0.187,0,0,0,0,0,0,0,0,0,0.000,0,0,0.060,0.002,-0.020,-0.040,0.040,0.014,0.993,0.011,0.000,-0.002,0.004,0.000,0.000,0.000,0.000,0,2,0,2,7,255,1440,300,0,0,-89.495,0.672,-31.124
EX0521-092111,14,C03,prep,1551,1551,0,765419.092,0.685,-0.677,0.193,0.187,0,0,0,0,0,0,0,0,0,0.000,0,0,0.069,0.002,0.040,-0.040,-0.040,0.014,0.993,0.011,-0.002,0.000,0.004,0.000,0.000,0.000,0.000,0,2,0,2,7,255,1440,300,0,0,-89.495,0.672,-31.124
EX0521-092111,14,C03,prep,1551,1551,0,765424.091,0.685,-0.677,0.193,0.187,0,0,0,0,0,0,0,0,0,0.000,0,0,0.069,0.004,0.040,-0.040,-0.040,0.014,0.993,0.011,-0.004,0.000,-0.002,0.000,0.000,0.000,0.000,0,2,0,2,7,255,1440,300,0,0,-89.495,0.672,-31.124
EX0521-092111,14,C03,prep,1567,1567,0,765429.092,0.685,-0.677,0.193,0.187,0,0,0,0,0,0,0,0,0,0.000,0,0,0.069,0.004,0.040,-0.040,-0.040,0.013,0.993,0.011,-0.004,0.000,-0.002,0.000,0.000,0.000,0.000,0,2,0,2,7,255,1440,300,0,0,-89.495,0.672,-31.124
EX0521-092111,14,C03,prep,1567,1567,0,765434.092,0.685,-0.677,0.193,0.187,0,0,0,0,0,0,0,0,0,0.000,0,0,0.060,0.004,-0.020,-0.040,-0.040,0.013,0.995,0.010,-0.004,0.002,-0.002,0.000,0.000,0.000,0.000,0,2,0,2,7,255,1440,300,0,0,-89.495,0.672,-31.124
EX0521-092111,14,C03,prep,1583,1583,0,765439.091,0.685,-0.677,0.193,0.187,0,0,0,0,0,0,0,0,0,0.000,0,0,0.060,0.004,-0.020,-0.040,-0.040,0.015,0.994,0.011,-0.004,0.002,0.012,0.000,0.000,0.000,0.000,0,2,0,2,7,255,1440,300,0,0,-89.495,0.672,-31.124
EX0521-092111,14,C03,prep,1583,1583,0,765444.091,0.685,-0.677,0.193,0.187,0,0,0,0,0,0,0,0,0,0.000,0,0,0.060,0.007,-0.020,-0.040,0.040,0.013,0.993,0.011,-0.004,0.006,0.012,0.000,0.000,0.000,0.000,0,2,0,2,7,255,1440,300,0,0,-89.495,0.672,-31.124
EX0521-092111,14,C03,prep,1583,1583,0,765449.092,0.685,-0.677,0.193,0.187,0,0,0,0,0,0,0,0,0,0.000,0,0,0.110,0.004,-0.020,-0.100,-0.040,0.014,0.993,0.012,-0.002,-0.004,-0.002,0.000,0.000,0.000,0.000,0,2,0,2,7,255,1440,300,0,0,-89.495,0.672,-31.124
EX0521-092111,14,C03,prep,1583,1583,0,765454.092,0.685,-0.677,0.193,0.187,0,0,0,0,0,0,0,0,0,0.000,0,0,0.060,0.006,-0.020,-0.040,-0.040,0.014,0.992,0.012,-0.002,-0.006,-0.002,0.000,0.000,0.000,0.000,0,2,0,2,7,255,1440,300,0,0,-89.495,0.672,-31.124
EX0521-092111,14,C03,prep,1599,1599,0,765459.091,0.685,-0.677,0.193,0.187,0,0,0,0,0,0,0,0,0,0.000,0,0,0.060,0.006,-0.020,-0.040,-0.040,0.014,0.994,0.011,-0.002,-0.006,-0.002,0.000,0.000,0.000,0.000,0,2,0,2,7,255,1440,300,0,0,-89.495,0.672,-31.124
EX0521-092111,14,C03,prep,1599,1599,0,765464.092,0.685,-0.677,0.193,0.187,0,0,0,0,0,0,0,0,0,0.000,0,0,0.069,0.003,0.040,-0.040,-0.040,0.013,0.993,0.011,-0.002,-0.002,0.002,0.000,0.000,0.000,0.000,0,2,0,2,7,255,1440,300,0,0,-89.495,0.672,-31.124
EX0521-092111,14,C03,prep,1615,1615,0,765469.092,0.685,-0.677,0.193,0.187,0,0,0,0,0,0,0,0,0,0.000,0,0,0.115,0.004,0.040,-0.100,-0.040,0.014,0.994,0.011,-0.004,0.000,0.008,0.000,0.000,0.000,0.000,0,2,0,2,7,255,1440,300,0,0,-89.496,0.672,-31.124
EX0521-092111,14,C03,prep,1615,1615,0,765474.091,0.685,-0.677,0.193,0.187,0,0,0,0,0,0,0,0,0,0.000,0,0,0.069,0.004,0.040,-0.040,-0.040,0.014,0.994,0.011,-0.004,0.002,0.008,0.000,0.000,0.000,0.000,0,2,0,2,7,255,1440,300,0,0,-89.496,0.672,-31.124
EX0521-092111,14,C03,prep,1647,1647,0,765479.092,0.685,-0.677,0.193,0.187,0,0,0,0,0,0,0,0,0,0.000,0,0,0.060,0.003,-0.020,-0.040,-0.040,0.014,0.993,0.010,0.002,0.002,0.008,0.000,0.000,0.000,0.000,0,2,0,2,7,255,1440,300,0,0,-89.496,0.672,-31.124
EX0521-092111,14,C03,prep,1647,1647,0,765484.092,0.685,-0.677,0.193,0.187,0,0,0,0,0,0,0,0,0,0.000,0,0,0.060,0.008,-0.020,-0.040,-0.040,0.014,0.992,0.010,0.006,0.006,0.002,0.000,0.000,0.000,0.000,0,2,0,2,7,255,1440,300,0,0,-89.496,0.672,-31.124
EX0521-092111,14,C03,prep,1647,1647,0,765489.091,0.685,-0.677,0.193,0.187,0,0,0,0,0,0,0,0,0,0.000,0,0,0.110,0.008,0.040,-0.100,0.020,0.015,0.991,0.011,0.006,0.006,-0.006,0.000,0.000,0.000,0.000,0,2,0,2,7,255,1440,300,0,0,-89.496,0.672,-31.124
EX0521-092111,14,C03,prep,1647,1647,0,765494.093,0.685,-0.677,0.193,0.187,0,0,0,0,0,0,0,0,0,0.000,0,0,0.049,0.006,-0.020,0.020,-0.040,0.014,0.992,0.011,0.004,0.004,-0.006,0.000,0.000,0.000,0.000,0,2,0,2,7,255,1440,300,0,0,-89.496,0.672,-31.124
EX0521-092111,14,C03,prep,1647,1647,0,765499.092,0.685,-0.677,0.193,0.187,0,0,0,0,0,0,0,0,0,0.000,0,0,0.035,0.003,-0.020,0.020,0.020,0.014,0.994,0.011,0.002,0.002,-0.006,0.000,0.000,0.000,0.000,0,2,0,2,7,255,1440,300,0,0,-89.496,0.672,-31.124
EX0521-092111,14,C03,prep,1647,1647,0,765504.091,0.685,-0.677,0.193,0.187,0,0,0,0,0,0,0,0,0,0.000,0,0,0.060,0.003,-0.020,-0.040,-0.040,0.015,0.993,0.011,0.002,0.002,0.002,0.000,0.000,0.000,0.000,0,2,0,2,7,255,1440,300,0,0,-89.496,0.672,-31.124
EX0521-092111,14,C03,prep,1663,1663,0,765509.091,0.685,-0.677,0.193,0.187,0,0,0,0,0,0,0,0,0,0.000,0,0,0.049,0.006,-0.020,-0.040,0.020,0.016,0.994,0.011,0.006,0.000,0.008,0.000,0.000,0.000,0.000,0,2,0,2,7,255,1440,300,0,0,-89.496,0.672,-31.124
EX0521-092111,14,C03,prep,1663,1663,0,765514.092,0.685,-0.677,0.193,0.187,0,0,0,0,0,0,0,0,0,0.000,0,0,0.069,0.012,0.040,-0.040,-0.040,0.014,0.992,0.013,0.006,-0.010,0.002,0.000,0.000,0.000,0.000,0,2,0,2,7,255,1440,300,0,0,-89.496,0.672,-31.124
EX0521-092111,14,C03,prep,1663,1663,0,765519.092,0.685,-0.677,0.193,0.187,0,0,0,0,0,0,0,0,0,0.000,0,0,0.069,0.014,0.040,-0.040,-0.040,0.015,0.994,0.010,0.010,-0.010,0.008,0.000,0.000,0.000,0.000,0,2,0,2,7,255,1440,300,0,0,-89.496,0.672,-31.124
EX0521-092111,14,C03,prep,1663,1663,0,765524.091,0.685,-0.677,0.193,0.187,0,0,0,0,0,0,0,0,0,0.000,0,0,0.069,0.006,0.040,-0.040,-0.040,0.015,0.992,0.011,0.004,-0.004,-0.006,0.000,0.000,0.000,0.000,0,2,0,2,7,255,1440,300,0,0,-89.496,0.672,-31.124
EX0521-092111,14,C03,prep,1663,1663,0,765529.092,0.685,-0.677,0.193,0.187,0,0,0,0,0,0,0,0,0,0.000,0,0,0.069,0.006,0.040,-0.040,-0.040,0.014,0.994,0.012,0.004,-0.004,0.008,0.000,0.000,0.000,0.000,0,2,0,2,7,255,1440,300,0,0,-89.496,0.672,-31.124
EX0521-092111,14,C03,prep,1663,1663,0,765534.092,0.685,-0.677,0.193,0.187,0,0,0,0,0,0,0,0,0,0.000,0,0,0.060,0.004,-0.020,-0.040,-0.040,0.014,0.993,0.011,0.000,-0.004,0.002,0.000,0.000,0.000,0.000,0,2,0,2,7,255,1440,300,0,0,-89.496,0.672,-31.124
EX0521-092111,14,C03,prep,1679,1679,0,765539.091,0.685,-0.677,0.193,0.187,0,0,0,0,0,0,0,0,0,0.000,0,0,0.049,0.003,-0.020,-0.040,0.020,0.014,0.992,0.011,-0.002,-0.002,0.002,0.000,0.000,0.000,0.000,0,2,0,2,7,255,1440,300,0,0,-89.496,0.672,-31.124
EX0521-092111,14,C03,prep,1679,1679,0,765544.092,0.685,-0.677,0.193,0.187,0,0,0,0,0,0,0,0,0,0.000,0,0,0.115,0.002,0.040,-0.100,-0.040,0.014,0.993,0.011,-0.002,0.000,-0.002,0.000,0.000,0.000,0.000,0,2,0,2,7,255,1440,300,0,0,-89.496,0.672,-31.124
EX0521-092111,14,C03,prep,1679,1679,0,765549.092,0.685,-0.677,0.193,0.187,0,0,0,0,0,0,0,0,0,0.000,0,0,0.060,0.002,-0.020,-0.040,-0.040,0.014,0.994,0.011,-0.002,0.000,-0.002,0.000,0.000,0.000,0.000,0,2,0,2,7,255,1440,300,0,0,-89.496,0.672,-31.124
EX0521-092111,14,C03,prep,1679,1679,0,765554.091,0.685,-0.677,0.193,0.187,0,0,0,0,0,0,0,0,0,0.000,0,0,0.060,0.002,0.040,-0.040,0.020,0.014,0.994,0.011,-0.002,0.000,0.008,0.000,0.000,0.000,0.000,0,2,0,2,7,255,1440,300,0,0,-89.496,0.672,-31.124
EX0521-092111,14,C03,prep,1695,1695,0,765559.093,0.685,-0.677,0.193,0.187,0,0,0,0,0,0,0,0,0,0.000,0,0,0.060,0.002,-0.020,-0.040,-0.040,0.015,0.994,0.012,0.000,-0.002,0.008,0.000,0.000,0.000,0.000,0,2,0,2,7,255,1440,300,0,0,-89.496,0.672,-31.124
EX0521-092111,14,C03,prep,1695,1695,0,765564.092,0.685,-0.677,0.193,0.187,0,0,0,0,0,0,0,0,0,0.000,0,0,0.049,0.002,-0.020,-0.040,0.020,0.014,0.993,0.011,-0.002,0.000,0.008,0.000,0.000,0.000,0.000,0,2,0,2,7,255,1440,300,0,0,-89.496,0.672,-31.124
EX0521-092111,14,C03,prep,1712,1712,0,765569.091,0.685,-0.677,0.193,0.187,0,0,0,0,0,0,0,0,0,0.000,0,0,0.049,0.002,-0.020,0.020,-0.040,0.014,0.993,0.011,-0.002,0.000,0.002,0.000,0.000,0.000,0.000,0,2,0,2,7,255,1440,300,0,0,-89.497,0.672,-31.124
EX0521-092111,14,C03,prep,1712,1712,0,765574.091,0.685,-0.677,0.193,0.187,0,0,0,0,0,0,0,0,0,0.000,0,0,0.060,0.004,-0.020,-0.040,-0.040,0.013,0.993,0.011,-0.004,0.002,0.002,0.000,0.000,0.000,0.000,0,2,0,2,7,255,1440,300,0,0,-89.497,0.672,-31.124
EX0521-092111,14,C03,prep,1746,1746,0,765579.092,0.685,-0.677,0.193,0.187,0,0,0,0,0,0,0,0,0,0.000,0,0,0.060,0.004,-0.020,-0.040,-0.040,0.014,0.992,0.011,-0.004,0.002,-0.002,0.000,0.000,0.000,0.000,0,2,0,2,7,255,1440,300,0,0,-89.497,0.672,-31.124
EX0521-092111,14,C03,prep,1746,1746,0,765584.092,0.685,-0.677,0.193,0.187,0,0,0,0,0,0,0,0,0,0.000,0,0,0.069,0.004,0.040,-0.040,-0.040,0.014,0.994,0.012,-0.004,0.000,-0.002,0.000,0.000,0.000,0.000,0,2,0,2,7,255,1440,300,0,0,-89.497,0.672,-31.124
EX0521-092111,14,C03,prep,1747,1747,0,765589.091,0.685,-0.677,0.193,0.187,0,0,0,0,0,0,0,0,0,0.000,0,0,0.049,0.004,-0.020,-0.040,0.020,0.014,0.993,0.011,-0.004,0.000,0.002,0.000,0.000,0.000,0.000,0,2,0,2,7,255,1440,300,0,0,-89.497,0.672,-31.124
