experiment_id,condition_order_index,condition_id,condition_phase,condition_phase_elapsed_ms,condition_elapsed_ms,is_stimulation_on,t_ms,R_q0,R_q1,R_q2,R_q3,R_heel1,R_mid1,R_fore1,R_heel2,R_fore3,R_mid2,R_fore4,R_fore2,R_cadence,R_speed,R_steps,R_zupt,R_gyroNorm,R_accH,R_gyro_x,R_gyro_y,R_gyro_z,R_acc_x,R_acc_y,R_acc_z,R_nav_ax,R_nav_ay,R_nav_az,R_stepVel,R_stepVelj,R_stepDispRaw,R_stepDispZUPT,R_gaitEvent,R_motorMode,R_motorActive,R_motorAlignment,R_motorRegionMask,R_motorAmplitude,R_motorIntervalMs,R_motorDurationMs,R_motorPhaseMs,R_motorCycleMs,R_roll,R_pitch,R_yaw
EX0521-092111,23,C11,prep,39,39,0,1149829.092,0.686,-0.675,0.196,0.187,0,0,0,0,0,0,0,0,0,0.000,0,0,0.092,0.002,-0.040,-0.080,0.020,0.014,0.993,0.012,0.002,0.000,0.002,0.000,0.000,0.000,0.000,0,2,0,1,7,255,960,300,0,0,-89.361,0.878,-31.439
EX0521-092111,23,C11,prep,39,39,0,1149834.092,0.686,-0.675,0.196,0.187,0,0,0,0,0,0,0,0,0,0.000,0,0,0.092,0.002,-0.040,-0.080,0.020,0.015,0.994,0.012,0.000,-0.002,-0.002,0.000,0.000,0.000,0.000,0,2,0,1,7,255,960,300,0,0,-89.361,0.878,-31.439
EX0521-092111,23,C11,prep,40,40,0,1149839.091,0.686,-0.675,0.196,0.187,0,0,0,0,0,0,0,0,0,0.000,0,0,0.049,0.002,-0.040,-0.020,0.020,0.014,0.994,0.011,0.000,-0.002,-0.002,0.000,0.000,0.000,0.000,0,2,0,1,7,255,960,300,0,0,-89.361,0.878,-31.439
EX0521-092111,23,C11,prep,40,40,0,1149844.091,0.686,-0.675,0.196,0.187,0,0,0,0,0,0,0,0,0,0.000,0,0,0.060,0.004,-0.040,-0.020,-0.040,0.015,0.995,0.011,0.004,0.000,-0.002,0.000,0.000,0.000,0.000,0,2,0,1,7,255,960,300,0,0,-89.361,0.878,-31.439
EX0521-092111,23,C11,prep,63,63,0,1149849.092,0.686,-0.675,0.196,0.187,0,0,0,0,0,0,0,0,0,0.000,0,0,0.166,0.006,0.160,-0.020,-0.040,0.014,0.995,0.010,0.004,0.004,0.006,0.000,0.000,0.000,0.000,0,2,0,1,7,255,960,300,0,0,-89.361,0.878,-31.439
EX0521-092111,23,C11,prep,63,63,0,1149854.092,0.686,-0.675,0.196,0.187,0,0,0,0,0,0,0,0,0,0.000,0,0,0.298,0.004,0.280,-0.020,-0.100,0.014,0.992,0.012,0.004,0.000,0.006,0.000,0.000,0.000,0.000,0,2,0,1,7,255,960,300,0,0,-89.361,0.878,-31.439
EX0521-092111,23,C11,prep,63,63,0,1149859.095,0.686,-0.675,0.196,0.187,0,0,0,0,0,0,0,0,0,0.000,0,0,0.180,0.004,-0.160,-0.020,0.080,0.014,0.986,0.012,-0.002,-0.004,-0.016,0.000,0.000,0.000,0.000,0,2,0,1,7,255,960,300,0,0,-89.361,0.878,-31.439
EX0521-092111,23,C11,prep,63,63,0,1149864.091,0.686,-0.675,0.196,0.187,0,0,0,0,0,0,0,0,0,0.000,0,0,0.237,0.006,-0.220,0.040,0.080,0.013,1.005,0.011,-0.004,-0.004,-0.016,0.000,0.000,0.000,0.000,0,2,0,1,7,255,960,300,0,0,-89.361,0.878,-31.439
EX0521-092111,23,C11,prep,63,63,0,1149869.092,0.686,-0.675,0.196,0.187,0,0,0,0,0,0,0,0,0,0.000,0,0,0.242,0.015,0.220,-0.020,-0.100,0.014,0.993,0.009,-0.004,0.014,-0.012,0.000,0.000,0.000,0.000,0,2,0,1,7,255,960,300,0,0,-89.361,0.878,-31.439
EX0521-092111,23,C11,prep,63,63,0,1149874.091,0.686,-0.675,0.196,0.187,0,0,0,0,0,0,0,0,0,0.000,0,0,0.110,0.015,-0.040,-0.100,0.020,0.014,0.987,0.012,-0.004,0.014,-0.012,0.000,0.000,0.000,0.000,0,2,0,1,7,255,960,300,0,0,-89.361,0.878,-31.439
EX0521-092111,23,C11,prep,79,79,0,1149879.091,0.686,-0.675,0.196,0.187,0,0,0,0,0,0,0,0,0,0.000,0,0,0.166,0.004,-0.160,0.040,0.020,0.013,0.999,0.012,-0.004,0.002,-0.012,0.000,0.000,0.000,0.000,0,2,0,1,7,255,960,300,0,0,-89.361,0.878,-31.439
EX0521-092111,23,C11,prep,79,79,0,1149884.092,0.686,-0.675,0.196,0.187,0,0,0,0,0,0,0,0,0,0.000,0,0,0.510,0.004,0.460,-0.020,-0.220,0.015,0.994,0.009,-0.004,0.002,-0.002,0.000,0.000,0.000,0.000,0,2,0,1,7,255,960,300,0,0,-89.361,0.878,-31.439
EX0521-092111,23,C11,prep,79,79,0,1149889.092,0.686,-0.675,0.196,0.187,0,0,0,0,0,0,0,0,0,0.000,0,0,0.631,0.010,-0.520,-0.160,0.320,0.015,0.990,0.011,0.010,0.002,-0.002,0.000,0.000,0.000,0.000,0,2,0,1,7,255,960,300,0,0,-89.361,0.878,-31.439
EX0521-092111,23,C11,prep,79,79,0,1149894.091,0.686,-0.675,0.196,0.187,0,0,0,0,0,0,0,0,0,0.000,0,0,0.657,0.013,0.520,0.040,-0.400,0.013,1.000,0.011,0.010,0.008,-0.002,0.000,0.000,0.000,0.000,0,2,0,1,7,255,960,300,0,0,-89.361,0.878,-31.439
EX0521-092111,23,C11,prep,79,79,0,1149899.092,0.686,-0.675,0.196,0.187,0,0,0,0,0,0,0,0,0,0.000,0,0,0.177,0.012,-0.040,-0.100,0.140,0.016,0.985,0.011,0.010,-0.006,-0.036,0.000,0.000,0.000,0.000,0,2,0,1,7,255,960,300,0,0,-89.361,0.878,-31.439
EX0521-092111,23,C11,prep,79,79,0,1149904.092,0.686,-0.675,0.196,0.187,0,0,0,0,0,0,0,0,0,0.000,0,0,0.294,0.014,-0.280,0.040,0.080,0.012,1.003,0.011,-0.012,0.008,0.060,0.000,0.000,0.000,0.000,0,2,0,1,7,255,960,300,0,0,-89.361,0.878,-31.439
EX0521-092111,23,C11,prep,95,95,0,1149909.092,0.686,-0.675,0.196,0.187,0,0,0,0,0,0,0,0,0,0.000,0,0,0.758,0.012,0.700,-0.080,-0.280,0.015,0.987,0.012,0.000,-0.012,-0.070,0.000,0.000,0.000,0.000,0,2,0,1,7,255,960,300,0,0,-89.365,0.878,-31.439
EX0521-092111,23,C11,prep,95,95,0,1149914.091,0.686,-0.675,0.196,0.187,0,0,0,0,0,0,0,0,0,0.000,0,0,1.047,0.016,-0.940,0.040,0.460,0.014,0.996,0.010,0.000,0.016,0.016,0.000,0.000,0.000,0.000,0,2,0,1,7,255,960,300,0,0,-89.360,0.878,-31.439
EX0521-092111,23,C11,prep,124,124,0,1149919.092,0.686,-0.675,0.196,0.187,0,0,0,0,0,0,0,0,0,0.000,0,0,0.625,0.010,0.580,-0.080,-0.220,0.014,0.992,0.013,0.000,-0.010,-0.022,0.000,0.000,0.000,0.000,0,2,0,1,7,255,960,300,0,0,-89.363,0.878,-31.439
EX0521-092111,23,C11,prep,124,124,0,1149924.092,0.686,-0.675,0.196,0.187,0,0,0,0,0,0,0,0,0,0.000,0,0,0.275,0.011,-0.220,0.160,-0.040,0.015,0.993,0.010,0.004,0.010,-0.006,0.000,0.000,0.000,0.000,0,2,0,1,7,255,960,300,0,0,-89.363,0.878,-31.439
EX0521-092111,23,C11,prep,124,124,0,1149929.091,0.686,-0.675,0.196,0.187,0,0,0,0,0,0,0,0,0,0.000,0,0,0.383,0.014,-0.280,-0.220,0.140,0.014,0.997,0.014,-0.010,-0.010,-0.006,0.000,0.000,0.000,0.000,0,2,0,1,7,255,960,300,0,0,-89.363,0.878,-31.439
EX0521-092111,23,C11,prep,124,124,0,1149934.091,0.686,-0.675,0.196,0.187,0,0,0,0,0,0,0,0,0,0.000,0,0,1.051,0.009,0.940,0.100,-0.460,0.013,0.991,0.011,-0.004,0.008,-0.006,0.000,0.000,0.000,0.000,0,2,0,1,7,255,960,300,0,0,-89.368,0.878,-31.439
EX0521-092111,23,C11,prep,158,158,0,1149939.092,0.686,-0.675,0.196,0.187,0,0,0,0,0,0,0,0,0,0.000,0,0,1.351,0.010,-1.260,-0.160,0.460,0.014,0.997,0.012,-0.008,-0.006,0.026,0.000,0.000,0.000,0.000,0,2,0,1,7,255,960,300,0,0,-89.361,0.878,-31.439
EX0521-092111,23,C11,prep,158,158,0,1149944.092,0.686,-0.675,0.196,0.187,0,0,0,0,0,0,0,0,0,0.000,0,0,1.134,0.007,1.060,0.040,-0.400,0.015,0.990,0.013,-0.004,-0.006,-0.026,0.000,0.000,0.000,0.000,0,2,0,1,7,255,960,300,0,0,-89.367,0.878,-31.439
EX0521-092111,23,C11,prep,159,159,0,1149949.091,0.686,-0.675,0.196,0.187,0,0,0,0,0,0,0,0,0,0.000,0,0,0.678,0.006,-0.640,0.100,0.200,0.013,0.996,0.007,-0.002,-0.006,0.016,0.000,0.000,0.000,0.000,0,2,0,1,7,255,960,300,0,0,-89.363,0.878,-31.439
EX0521-092111,23,C11,prep,159,159,0,1149954.092,0.686,-0.675,0.196,0.187,0,0,0,0,0,0,0,0,0,0.000,0,0,0.365,0.016,-0.280,-0.220,0.080,0.015,0.994,0.014,-0.002,-0.016,-0.002,0.000,0.000,0.000,0.000,0,2,0,1,7,255,960,300,0,0,-89.363,0.878,-31.439
EX0521-092111,23,C11,prep,160,160,0,1149959.095,0.686,-0.675,0.196,0.187,0,0,0,0,0,0,0,0,0,0.000,0,0,1.616,0.008,1.500,0.160,-0.580,0.014,0.993,0.010,0.006,0.006,-0.002,0.000,0.000,0.000,0.000,0,2,0,1,7,255,960,300,0,0,-89.371,0.875,-31.439
EX0521-092111,23,C11,prep,160,160,0,1149964.091,0.686,-0.675,0.196,0.187,0,0,0,0,0,0,0,0,0,0.000,0,0,1.723,0.008,-1.620,-0.080,0.580,0.013,0.995,0.008,0.006,0.006,-0.002,0.000,0.000,0.000,0.000,0,2,0,1,7,255,960,300,0,0,-89.363,0.878,-31.439
EX0521-092111,23,C11,prep,186,186,0,1149969.092,0.686,-0.675,0.196,0.187,0,0,0,0,0,0,0,0,0,0.000,0,0,0.494,0.008,0.460,-0.080,-0.160,0.014,0.988,0.018,0.006,0.006,-0.012,0.000,0.000,0.000,0.000,0,2,0,1,7,255,960,300,0,0,-89.357,0.878,-31.439
EX0521-092111,23,C11,prep,186,186,0,1149974.092,0.686,-0.675,0.196,0.187,0,0,0,0,0,0,0,0,0,0.000,0,0,1.309,0.014,1.260,0.100,-0.340,0.016,0.992,0.009,0.008,0.012,-0.016,0.000,0.000,0.000,0.000,0,2,0,1,7,255,960,300,0,0,-89.363,0.878,-31.439
EX0521-092111,23,C11,prep,186,186,0,1149979.092,0.686,-0.675,0.196,0.187,0,0,0,0,0,0,0,0,0,0.000,0,0,1.612,0.016,-1.560,-0.080,0.400,0.014,1.004,0.009,0.010,0.012,-0.016,0.000,0.000,0.000,0.000,0,2,0,1,7,255,960,300,0,0,-89.356,0.878,-31.439
EX0521-092111,23,C11,prep,186,186,0,1149984.091,0.686,-0.675,0.196,0.187,0,0,0,0,0,0,0,0,0,0.000,0,0,0.363,0.016,0.340,-0.080,-0.100,0.016,0.985,0.019,0.010,0.012,-0.016,0.000,0.000,0.000,0.000,0,2,0,1,7,255,960,300,0,0,-89.349,0.878,-31.439
EX0521-092111,23,C11,prep,186,186,0,1149989.092,0.686,-0.675,0.196,0.187,0,0,0,0,0,0,0,0,0,0.000,0,0,1.605,0.021,1.560,0.160,-0.340,0.014,0.996,0.009,0.010,0.018,0.018,0.000,0.000,0.000,0.000,0,2,0,1,7,255,960,300,0,0,-89.357,0.878,-31.439
EX0521-092111,23,C11,prep,186,186,0,1149994.092,0.686,-0.675,0.196,0.187,0,0,0,0,0,0,0,0,0,0.000,0,0,1.536,0.022,-1.500,-0.080,0.320,0.014,1.001,0.007,0.012,0.018,0.018,0.000,0.000,0.000,0.000,0,2,0,1,7,255,960,300,0,0,-89.349,0.878,-31.439
EX0521-092111,23,C11,prep,186,186,0,1149999.092,0.686,-0.675,0.196,0.187,0,0,0,0,0,0,0,0,0,0.000,0,0,0.416,0.022,-0.400,-0.080,0.080,0.016,0.986,0.019,0.012,0.018,0.018,0.000,0.000,0.000,0.000,0,2,0,1,7,255,960,300,0,0,-89.343,0.878,-31.439
EX0521-092111,23,C11,prep,186,186,0,1150004.091,0.686,-0.675,0.196,0.187,0,0,0,0,0,0,0,0,0,0.000,0,0,1.851,0.009,1.800,0.160,-0.400,0.014,0.998,0.011,0.004,0.008,0.044,0.000,0.000,0.000,0.000,0,2,0,1,7,255,960,300,0,0,-89.352,0.878,-31.439
EX0521-092111,23,C11,prep,192,192,0,1150009.092,0.686,-0.675,0.196,0.187,0,0,0,0,0,0,0,0,0,0.000,0,0,0.789,0.009,-0.760,-0.160,0.140,0.013,1.001,0.005,0.004,0.008,0.044,0.000,0.000,0.000,0.000,0,2,0,1,7,255,960,300,0,0,-89.354,0.878,-31.439
EX0521-092111,23,C11,prep,192,192,0,1150014.092,0.686,-0.675,0.196,0.187,0,0,0,0,0,0,0,0,0,0.000,0,0,1.426,0.009,-1.380,-0.160,0.320,0.015,0.985,0.018,0.004,0.008,0.044,0.000,0.000,0.000,0.000,0,2,0,1,7,255,960,300,0,0,-89.345,0.878,-31.439
EX0521-092111,23,C11,prep,219,219,0,1150019.091,0.686,-0.675,0.196,0.187,0,0,0,0,0,0,0,0,0,0.000,0,0,1.446,0.015,1.380,0.160,-0.400,0.013,0.998,0.013,-0.014,-0.004,0.042,0.000,0.000,0.000,0.000,0,2,0,1,7,255,960,300,0,0,-89.352,0.878,-31.439
EX0521-092111,23,C11,prep,219,219,0,1150024.092,0.686,-0.675,0.196,0.187,0,0,0,0,0,0,0,0,0,0.000,0,0,0.323,0.015,0.280,-0.020,-0.160,0.013,0.995,0.005,-0.014,-0.004,0.014,0.000,0.000,0.000,0.000,0,2,0,1,7,255,960,300,0,0,-89.357,0.878,-31.439
EX0521-092111,23,C11,prep,220,220,0,1150029.092,0.686,-0.675,0.196,0.187,0,0,0,0,0,0,0,0,0,0.000,0,0,1.912,0.011,-1.800,-0.280,0.580,0.015,0.990,0.015,-0.010,-0.004,0.014,0.000,0.000,0.000,0.000,0,2,0,1,7,255,960,300,0,0,-89.348,0.878,-31.439
EX0521-092111,23,C11,prep,220,220,0,1150034.091,0.686,-0.675,0.196,0.187,0,0,0,0,0,0,0,0,0,0.000,0,0,1.251,0.030,1.200,0.100,-0.340,0.015,0.994,0.015,-0.010,-0.028,0.004,0.000,0.000,0.000,0.000,0,2,0,1,7,255,960,300,0,0,-89.354,0.878,-31.439
EX0521-092111,23,C11,prep,223,223,0,1150039.091,0.686,-0.675,0.196,0.187,0,0,0,0,0,0,0,0,0,0.000,0,0,0.414,0.030,0.400,0.040,-0.100,0.014,0.994,0.006,-0.010,-0.028,0.004,0.000,0.000,0.000,0.000,0,2,0,1,7,255,960,300,0,0,-89.354,0.878,-31.439
EX0521-092111,23,C11,prep,223,223,0,1150044.092,0.686,-0.675,0.196,0.187,0,0,0,0,0,0,0,0,0,0.000,0,0,1.413,0.016,-1.380,-0.160,0.260,0.015,0.997,0.013,-0.004,-0.016,0.004,0.000,0.000,0.000,0.000,0,2,0,1,7,255,960,300,0,0,-89.347,0.878,-31.439
EX0521-092111,23,C11,prep,255,255,0,1150049.092,0.686,-0.675,0.196,0.187,0,0,0,0,0,0,0,0,0,0.000,0,0,0.735,0.016,0.700,0.040,-0.220,0.015,0.989,0.015,-0.004,-0.016,0.004,0.000,0.000,0.000,0.000,0,2,0,1,7,255,960,300,0,0,-89.351,0.878,-31.439
EX0521-092111,23,C11,prep,255,255,0,1150054.091,0.686,-0.675,0.196,0.187,0,0,0,0,0,0,0,0,0,0.000,0,0,0.642,0.016,0.640,0.040,-0.040,0.014,0.994,0.007,-0.004,-0.016,0.000,0.000,0.000,0.000,0.000,0,2,0,1,7,255,960,300,0,0,-89.354,0.878,-31.439
EX0521-092111,23,C11,prep,255,255,0,1150059.093,0.686,-0.675,0.196,0.187,0,0,0,0,0,0,0,0,0,0.000,0,0,1.023,0.010,-1.000,-0.080,0.200,0.015,0.997,0.011,0.008,0.006,0.000,0.000,0.000,0.000,0.000,0,2,0,1,7,255,960,300,0,0,-89.349,0.878,-31.439
EX0521-092111,23,C11,prep,255,255,0,1150064.092,0.686,-0.675,0.196,0.187,0,0,0,0,0,0,0,0,0,0.000,0,0,0.110,0.010,0.100,-0.020,-0.040,0.016,0.989,0.014,0.008,0.006,0.000,0.000,0.000,0.000,0.000,0,2,0,1,7,255,960,300,0,0,-89.349,0.878,-31.439
EX0521-092111,23,C11,prep,255,255,0,1150069.093,0.686,-0.675,0.196,0.187,0,0,0,0,0,0,0,0,0,0.000,0,0,0.841,0.010,0.820,0.100,-0.160,0.014,0.996,0.009,0.008,0.006,0.024,0.000,0.000,0.000,0.000,0,2,0,1,7,255,960,300,0,0,-89.353,0.878,-31.439
EX0521-092111,23,C11,prep,255,255,0,1150074.091,0.686,-0.675,0.196,0.187,0,0,0,0,0,0,0,0,0,0.000,0,0,0.718,0.023,-0.700,-0.080,0.140,0.015,0.994,0.009,0.012,0.020,0.000,0.000,0.000,0.000,0.000,0,2,0,1,7,255,960,300,0,0,-89.350,0.878,-31.439
EX0521-092111,23,C11,prep,272,272,0,1150079.092,0.686,-0.675,0.196,0.187,0,0,0,0,0,0,0,0,0,0.000,0,0,0.235,0.023,-0.220,-0.080,0.020,0.014,0.990,0.015,0.012,0.020,0.000,0.000,0.000,0.000,0.000,0,2,0,1,7,255,960,300,0,0,-89.350,0.878,-31.439
EX0521-092111,23,C11,prep,272,272,0,1150084.092,0.686,-0.675,0.196,0.187,0,0,0,0,0,0,0,0,0,0.000,0,0,1.025,0.007,1.000,0.040,-0.220,0.014,0.996,0.011,0.004,0.006,0.000,0.000,0.000,0.000,0.000,0,2,0,1,7,255,960,300,0,0,-89.355,0.878,-31.439
EX0521-092111,23,C11,prep,272,272,0,1150089.091,0.686,-0.675,0.196,0.187,0,0,0,0,0,0,0,0,0,0.000,0,0,0.487,0.007,-0.460,-0.080,0.140,0.014,0.996,0.008,0.004,0.006,0.018,0.000,0.000,0.000,0.000,0,2,0,1,7,255,960,300,0,0,-89.355,0.878,-31.439
EX0521-092111,23,C11,prep,272,272,0,1150094.091,0.686,-0.675,0.196,0.187,0,0,0,0,0,0,0,0,0,0.000,0,0,0.474,0.007,-0.460,-0.080,0.080,0.015,0.993,0.015,0.004,0.006,0.018,0.000,0.000,0.000,0.000,0,2,0,1,7,255,960,300,0,0,-89.355,0.878,-31.439
EX0521-092111,23,C11,prep,302,302,0,1150099.092,0.686,-0.675,0.196,0.187,0,0,0,0,0,0,0,0,0,0.000,0,0,0.855,0.013,0.820,0.100,-0.220,0.013,0.993,0.012,-0.012,0.004,-0.004,0.000,0.000,0.000,0.000,0,2,0,1,7,255,960,300,0,0,-89.359,0.878,-31.439
EX0521-092111,23,C11,prep,302,302,0,1150104.093,0.686,-0.675,0.196,0.187,0,0,0,0,0,0,0,0,0,0.000,0,0,0.130,0.013,-0.100,-0.020,0.080,0.013,0.995,0.008,-0.012,0.004,-0.004,0.000,0.000,0.000,0.000,0,2,0,1,7,255,960,300,0,0,-89.359,0.878,-31.439
EX0521-092111,23,C11,prep,303,303,0,1150109.091,0.686,-0.675,0.196,0.187,0,0,0,0,0,0,0,0,0,0.000,0,0,0.665,0.006,-0.640,-0.160,0.080,0.015,0.992,0.013,-0.004,0.004,-0.010,0.000,0.000,0.000,0.000,0,2,0,1,7,255,960,300,0,0,-89.356,0.878,-31.439
EX0521-092111,23,C11,prep,303,303,0,1150114.092,0.686,-0.675,0.196,0.187,0,0,0,0,0,0,0,0,0,0.000,0,0,0.603,0.016,0.580,0.040,-0.160,0.015,0.992,0.013,0.002,-0.016,-0.014,0.000,0.000,0.000,0.000,0,2,0,1,7,255,960,300,0,0,-89.358,0.878,-31.439
EX0521-092111,23,C11,prep,322,322,0,1150119.092,0.686,-0.675,0.196,0.187,0,0,0,0,0,0,0,0,0,0.000,0,0,0.284,0.016,0.280,-0.020,-0.040,0.013,0.994,0.007,0.002,-0.016,-0.014,0.000,0.000,0.000,0.000,0,2,0,1,7,255,960,300,0,0,-89.358,0.878,-31.439
EX0521-092111,23,C11,prep,322,322,0,1150124.091,0.686,-0.675,0.196,0.187,0,0,0,0,0,0,0,0,0,0.000,0,0,0.674,0.012,-0.640,-0.160,0.140,0.014,0.990,0.013,0.002,-0.012,-0.018,0.000,0.000,0.000,0.000,0,2,0,1,7,255,960,300,0,0,-89.355,0.878,-31.439
EX0521-092111,23,C11,prep,322,322,0,1150129.091,0.686,-0.675,0.196,0.187,0,0,0,0,0,0,0,0,0,0.000,0,0,0.431,0.012,0.400,-0.020,-0.160,0.015,0.994,0.013,-0.002,-0.012,0.004,0.000,0.000,0.000,0.000,0,2,0,1,7,255,960,300,0,0,-89.355,0.878,-31.439
EX0521-092111,23,C11,prep,322,322,0,1150134.092,0.686,-0.675,0.196,0.187,0,0,0,0,0,0,0,0,0,0.000,0,0,0.404,0.012,0.400,0.040,-0.040,0.014,0.999,0.009,-0.002,-0.012,0.006,0.000,0.000,0.000,0.000,0,2,0,1,7,255,960,300,0,0,-89.355,0.878,-31.439
EX0521-092111,23,C11,prep,322,322,0,1150139.092,0.686,-0.675,0.196,0.187,0,0,0,0,0,0,0,0,0,0.000,0,0,0.709,0.004,-0.700,-0.080,0.080,0.014,0.993,0.012,-0.002,-0.004,0.006,0.000,0.000,0.000,0.000,0,2,0,1,7,255,960,300,0,0,-89.352,0.878,-31.439
EX0521-092111,23,C11,prep,322,322,0,1150144.091,0.686,-0.675,0.196,0.187,0,0,0,0,0,0,0,0,0,0.000,0,0,0.130,0.009,0.100,-0.080,0.020,0.013,0.988,0.014,-0.008,-0.004,-0.006,0.000,0.000,0.000,0.000,0,2,0,1,7,255,960,300,0,0,-89.352,0.878,-31.439
EX0521-092111,23,C11,prep,351,351,0,1150149.092,0.686,-0.675,0.196,0.187,0,0,0,0,0,0,0,0,0,0.000,0,0,0.603,0.009,0.580,0.040,-0.160,0.015,0.994,0.010,-0.008,-0.004,-0.006,0.000,0.000,0.000,0.000,0,2,0,1,7,255,960,300,0,0,-89.355,0.879,-31.439
EX0521-092111,23,C11,prep,351,351,0,1150154.092,0.686,-0.675,0.196,0.187,0,0,0,0,0,0,0,0,0,0.000,0,0,0.467,0.013,-0.460,-0.020,0.080,0.014,1.000,0.009,0.008,0.010,0.000,0.000,0.000,0.000,0.000,0,2,0,1,7,255,960,300,0,0,-89.355,0.879,-31.439
EX0521-092111,23,C11,prep,351,351,0,1150159.094,0.686,-0.675,0.196,0.187,0,0,0,0,0,0,0,0,0,0.000,0,0,0.166,0.013,-0.160,-0.020,-0.040,0.014,0.987,0.014,0.008,0.010,0.000,0.000,0.000,0.000,0.000,0,2,0,1,7,255,960,300,0,0,-89.355,0.879,-31.439
EX0521-092111,23,C11,prep,351,351,0,1150164.091,0.686,-0.675,0.196,0.187,0,0,0,0,0,0,0,0,0,0.000,0,0,0.590,0.011,0.580,0.040,-0.100,0.013,0.997,0.011,-0.004,0.010,0.028,0.000,0.000,0.000,0.000,0,2,0,1,7,255,960,300,0,0,-89.358,0.879,-31.439
EX0521-092111,23,C11,prep,351,351,0,1150169.092,0.686,-0.675,0.196,0.187,0,0,0,0,0,0,0,0,0,0.000,0,0,0.281,0.011,-0.280,-0.020,0.020,0.014,0.993,0.010,-0.004,0.010,-0.004,0.000,0.000,0.000,0.000,0,2,0,1,7,255,960,300,0,0,-89.358,0.879,-31.439
EX0521-092111,23,C11,prep,351,351,0,1150174.092,0.686,-0.675,0.196,0.187,0,0,0,0,0,0,0,0,0,0.000,0,0,0.281,0.011,-0.280,-0.020,0.020,0.015,0.992,0.014,-0.004,0.010,-0.004,0.000,0.000,0.000,0.000,0,2,0,1,7,255,960,300,0,0,-89.358,0.879,-31.439
EX0521-092111,23,C11,prep,385,385,0,1150179.091,0.686,-0.675,0.196,0.187,0,0,0,0,0,0,0,0,0,0.000,0,0,0.472,0.003,0.460,0.100,-0.040,0.014,0.994,0.012,-0.002,-0.002,-0.004,0.000,0.000,0.000,0.000,0,2,0,1,7,255,960,300,0,0,-89.358,0.879,-31.439
EX0521-092111,23,C11,prep,385,385,0,1150184.091,0.686,-0.675,0.196,0.187,0,0,0,0,0,0,0,0,0,0.000,0,0,0.060,0.003,0.040,-0.020,-0.040,0.014,0.992,0.009,-0.002,-0.002,-0.014,0.000,0.000,0.000,0.000,0,2,0,1,7,255,960,300,0,0,-89.358,0.879,-31.439
EX0521-092111,23,C11,prep,385,385,0,1150189.092,0.686,-0.675,0.196,0.187,0,0,0,0,0,0,0,0,0,0.000,0,0,0.467,0.003,-0.460,-0.080,0.020,0.015,0.993,0.013,-0.002,-0.002,-0.008,0.000,0.000,0.000,0.000,0,2,0,1,7,255,960,300,0,0,-89.358,0.879,-31.439
EX0521-092111,23,C11,prep,385,385,0,1150194.091,0.686,-0.675,0.196,0.187,0,0,0,0,0,0,0,0,0,0.000,0,0,0.357,0.003,0.340,0.040,-0.100,0.014,0.992,0.011,0.002,0.002,-0.014,0.000,0.000,0.000,0.000,0,2,0,1,7,255,960,300,0,0,-89.358,0.879,-31.439
EX0521-092111,23,C11,prep,385,385,0,1150199.093,0.686,-0.675,0.196,0.187,0,0,0,0,0,0,0,0,0,0.000,0,0,0.166,0.003,0.160,-0.020,-0.040,0.014,0.997,0.009,0.002,0.002,-0.008,0.000,0.000,0.000,0.000,0,2,0,1,7,255,960,300,0,0,-89.358,0.879,-31.439
EX0521-092111,23,C11,prep,385,385,0,1150204.092,0.686,-0.675,0.196,0.187,0,0,0,0,0,0,0,0,0,0.000,0,0,0.467,0.004,-0.460,-0.020,0.080,0.014,0.993,0.011,0.002,0.004,-0.010,0.000,0.000,0.000,0.000,0,2,0,1,7,255,960,300,0,0,-89.358,0.879,-31.439
EX0521-092111,23,C11,prep,400,400,0,1150209.092,0.686,-0.675,0.196,0.187,0,0,0,0,0,0,0,0,0,0.000,0,0,0.190,0.004,0.160,-0.020,-0.100,0.014,0.991,0.012,-0.002,0.004,-0.010,0.000,0.000,0.000,0.000,0,2,0,1,7,255,960,300,0,0,-89.358,0.879,-31.439
EX0521-092111,23,C11,prep,400,400,0,1150214.091,0.686,-0.675,0.196,0.187,0,0,0,0,0,0,0,0,0,0.000,0,0,0.224,0.004,0.220,-0.020,-0.040,0.015,0.995,0.010,-0.002,0.004,-0.010,0.000,0.000,0.000,0.000,0,2,0,1,7,255,960,300,0,0,-89.358,0.879,-31.439
EX0521-092111,23,C11,prep,424,424,0,1150219.091,0.686,-0.675,0.196,0.187,0,0,0,0,0,0,0,0,0,0.000,0,0,0.292,0.003,-0.280,-0.080,0.020,0.014,0.996,0.012,-0.002,-0.002,0.010,0.000,0.000,0.000,0.000,0,2,0,1,7,255,960,300,0,0,-89.358,0.879,-31.439
EX0521-092111,23,C11,prep,424,424,0,1150224.092,0.686,-0.675,0.196,0.187,0,0,0,0,0,0,0,0,0,0.000,0,0,0.060,0.003,0.040,-0.020,-0.040,0.014,0.994,0.013,-0.002,-0.002,0.010,0.000,0.000,0.000,0.000,0,2,0,1,7,255,960,300,0,0,-89.358,0.879,-31.439
EX0521-092111,23,C11,prep,424,424,0,1150229.092,0.686,-0.675,0.196,0.187,0,0,0,0,0,0,0,0,0,0.000,0,0,0.357,0.006,0.340,0.040,-0.100,0.013,0.993,0.011,-0.006,-0.002,0.006,0.000,0.000,0.000,0.000,0,2,0,1,7,255,960,300,0,0,-89.358,0.879,-31.439
EX0521-092111,23,C11,prep,424,424,0,1150234.091,0.686,-0.675,0.196,0.187,0,0,0,0,0,0,0,0,0,0.000,0,0,0.222,0.008,-0.220,-0.020,0.020,0.014,0.995,0.010,-0.006,0.006,0.006,0.000,0.000,0.000,0.000,0,2,0,1,7,255,960,300,0,0,-89.358,0.879,-31.439
EX0521-092111,23,C11,prep,425,425,0,1150239.092,0.686,-0.675,0.196,0.187,0,0,0,0,0,0,0,0,0,0.000,0,0,0.162,0.006,-0.160,-0.020,0.020,0.015,0.993,0.012,0.002,0.006,-0.010,0.000,0.000,0.000,0.000,0,2,0,1,7,255,960,300,0,0,-89.358,0.879,-31.439
EX0521-092111,23,C11,prep,425,425,0,1150244.092,0.686,-0.675,0.196,0.187,0,0,0,0,0,0,0,0,0,0.000,0,0,0.286,0.003,0.280,0.040,-0.040,0.014,0.995,0.012,0.002,-0.002,0.010,0.000,0.000,0.000,0.000,0,2,0,1,7,255,960,300,0,0,-89.358,0.879,-31.439
EX0521-092111,23,C11,prep,463,463,0,1150249.091,0.686,-0.675,0.196,0.187,0,0,0,0,0,0,0,0,0,0.000,0,0,0.235,0.004,-0.220,-0.020,0.080,0.014,0.992,0.011,0.004,-0.002,-0.010,0.000,0.000,0.000,0.000,0,2,0,1,7,255,960,300,0,0,-89.358,0.879,-31.439
EX0521-092111,23,C11,prep,463,463,0,1150254.091,0.686,-0.675,0.196,0.187,0,0,0,0,0,0,0,0,0,0.000,0,0,0.166,0.004,-0.160,-0.020,-0.040,0.015,0.991,0.012,0.004,-0.002,-0.014,0.000,0.000,0.000,0.000,0,2,0,1,7,255,960,300,0,0,-89.358,0.879,-31.439
EX0521-092111,23,C11,prep,463,463,0,1150259.093,0.686,-0.675,0.196,0.187,0,0,0,0,0,0,0,0,0,0.000,0,0,0.298,0.004,0.280,-0.020,-0.100,0.014,0.994,0.012,0.004,0.000,-0.014,0.000,0.000,0.000,0.000,0,2,0,1,7,255,960,300,0,0,-89.358,0.879,-31.439
EX0521-092111,23,C11,prep,463,463,0,1150264.092,0.686,-0.675,0.196,0.187,0,0,0,0,0,0,0,0,0,0.000,0,0,0.060,0.004,0.040,-0.020,-0.040,0.013,0.996,0.011,-0.004,0.000,0.000,0.000,0.000,0.000,0.000,0,2,0,1,7,255,960,300,0,0,-89.358,0.879,-31.439
EX0521-092111,23,C11,prep,463,463,0,1150269.091,0.686,-0.675,0.196,0.187,0,0,0,0,0,0,0,0,0,0.000,0,0,0.235,0.006,-0.220,-0.020,0.080,0.014,0.993,0.013,-0.006,0.000,0.000,0.000,0.000,0.000,0.000,0,2,0,1,7,255,960,300,0,0,-89.358,0.879,-31.439
EX0521-092111,23,C11,prep,463,463,0,1150274.092,0.686,-0.675,0.196,0.187,0,0,0,0,0,0,0,0,0,0.000,0,0,0.166,0.008,0.160,-0.020,-0.040,0.013,0.992,0.011,-0.006,0.006,-0.008,0.000,0.000,0.000,0.000,0,2,0,1,7,255,960,300,0,0,-89.358,0.879,-31.439
EX0521-092111,23,C11,prep,484,484,0,1150279.092,0.686,-0.675,0.196,0.187,0,0,0,0,0,0,0,0,0,0.000,0,0,0.110,0.008,0.100,-0.020,-0.040,0.014,0.995,0.010,-0.006,0.006,-0.008,0.000,0.000,0.000,0.000,0,2,0,1,7,255,960,300,0,0,-89.358,0.879,-31.439
EX0521-092111,23,C11,prep,484,484,0,1150284.091,0.686,-0.675,0.196,0.187,0,0,0,0,0,0,0,0,0,0.000,0,0,0.292,0.008,-0.280,-0.080,0.020,0.014,0.992,0.012,-0.006,0.006,-0.018,0.000,0.000,0.000,0.000,0,2,0,1,7,255,960,300,0,0,-89.358,0.879,-31.439
EX0521-092111,23,C11,prep,484,484,0,1150289.091,0.686,-0.675,0.196,0.187,0,0,0,0,0,0,0,0,0,0.000,0,0,0.190,0.006,0.160,-0.020,-0.100,0.015,0.994,0.012,0.004,-0.004,0.000,0.000,0.000,0.000,0.000,0,2,0,1,7,255,960,300,0,0,-89.358,0.879,-31.439
EX0521-092111,23,C11,prep,484,484,0,1150294.092,0.686,-0.675,0.196,0.187,0,0,0,0,0,0,0,0,0,0.000,0,0,0.115,0.006,0.100,0.040,-0.040,0.014,0.991,0.010,0.004,-0.004,-0.018,0.000,0.000,0.000,0.000,0,2,0,1,7,255,960,300,0,0,-89.358,0.879,-31.439
EX0521-092111,23,C11,prep,484,484,0,1150299.093,0.686,-0.675,0.196,0.187,0,0,0,0,0,0,0,0,0,0.000,0,0,0.222,0.008,-0.220,-0.020,0.020,0.015,0.993,0.012,0.006,-0.006,-0.008,0.000,0.000,0.000,0.000,0,2,0,1,7,255,960,300,0,0,-89.358,0.879,-31.439
EX0521-092111,23,C11,prep,484,484,0,1150304.091,0.686,-0.675,0.196,0.187,0,0,0,0,0,0,0,0,0,0.000,0,0,0.060,0.010,0.040,-0.020,-0.040,0.016,0.993,0.013,0.006,-0.008,-0.008,0.000,0.000,0.000,0.000,0,2,0,1,7,255,960,300,0,0,-89.358,0.879,-31.439
EX0521-092111,23,C11,prep,495,495,0,1150309.092,0.686,-0.675,0.196,0.187,0,0,0,0,0,0,0,0,0,0.000,0,0,0.227,0.011,0.220,0.040,-0.040,0.015,0.994,0.011,0.008,-0.008,-0.004,0.000,0.000,0.000,0.000,0,2,0,1,7,255,960,300,0,0,-89.358,0.879,-31.439
EX0521-092111,23,C11,prep,495,495,0,1150314.092,0.686,-0.675,0.196,0.187,0,0,0,0,0,0,0,0,0,0.000,0,0,0.180,0.007,-0.160,-0.080,0.020,0.014,0.993,0.010,0.006,-0.004,-0.004,0.000,0.000,0.000,0.000,0,2,0,1,7,255,960,300,0,0,-89.358,0.879,-31.439
EX0521-092111,23,C11,prep,514,514,0,1150319.091,0.686,-0.675,0.196,0.187,0,0,0,0,0,0,0,0,0,0.000,0,0,0.104,0.007,-0.100,-0.020,0.020,0.015,0.992,0.013,0.006,-0.004,-0.004,0.000,0.000,0.000,0.000,0,2,0,1,7,255,960,300,0,0,-89.358,0.879,-31.439
EX0521-092111,23,C11,prep,514,514,0,1150324.091,0.686,-0.675,0.196,0.187,0,0,0,0,0,0,0,0,0,0.000,0,0,0.286,0.006,0.280,0.040,-0.040,0.015,0.994,0.011,0.006,0.000,-0.004,0.000,0.000,0.000,0.000,0,2,0,1,7,255,960,300,0,0,-89.358,0.879,-31.439
EX0521-092111,23,C11,prep,514,514,0,1150329.092,0.686,-0.675,0.196,0.187,0,0,0,0,0,0,0,0,0,0.000,0,0,0.049,0.002,-0.040,-0.020,0.020,0.014,0.995,0.011,0.002,0.000,0.006,0.000,0.000,0.000,0.000,0,2,0,1,7,255,960,300,0,0,-89.358,0.879,-31.439
EX0521-092111,23,C11,prep,514,514,0,1150334.092,0.686,-0.675,0.196,0.187,0,0,0,0,0,0,0,0,0,0.000,0,0,0.162,0.004,-0.160,-0.020,0.020,0.014,0.994,0.012,-0.004,0.000,0.006,0.000,0.000,0.000,0.000,0,2,0,1,7,255,960,300,0,0,-89.358,0.879,-31.439
EX0521-092111,23,C11,prep,527,527,0,1150339.091,0.686,-0.675,0.196,0.187,0,0,0,0,0,0,0,0,0,0.000,0,0,0.170,0.008,0.160,0.040,-0.040,0.013,0.993,0.012,-0.008,0.002,0.002,0.000,0.000,0.000,0.000,0,2,0,1,7,255,960,300,0,0,-89.358,0.879,-31.439
EX0521-092111,23,C11,prep,527,527,0,1150344.092,0.686,-0.675,0.196,0.187,0,0,0,0,0,0,0,0,0,0.000,0,0,0.049,0.008,0.040,-0.020,0.020,0.014,0.994,0.011,-0.008,0.002,0.002,0.000,0.000,0.000,0.000,0,2,0,1,7,255,960,300,0,0,-89.358,0.879,-31.439
EX0521-092111,23,C11,prep,554,554,0,1150349.092,0.686,-0.675,0.196,0.187,0,0,0,0,0,0,0,0,0,0.000,0,0,0.162,0.004,-0.160,-0.020,0.020,0.016,0.995,0.012,0.004,0.002,0.002,0.000,0.000,0.000,0.000,0,2,0,1,7,255,960,300,0,0,-89.358,0.879,-31.439
EX0521-092111,23,C11,prep,554,554,0,1150354.091,0.686,-0.675,0.196,0.187,0,0,0,0,0,0,0,0,0,0.000,0,0,0.166,0.007,0.160,-0.020,-0.040,0.013,0.992,0.011,0.004,0.006,0.002,0.000,0.000,0.000,0.000,0,2,0,1,7,255,960,300,0,0,-89.358,0.879,-31.439
EX0521-092111,23,C11,prep,555,555,0,1150359.094,0.686,-0.675,0.196,0.187,0,0,0,0,0,0,0,0,0,0.000,0,0,0.098,0.007,0.040,-0.080,-0.040,0.013,0.993,0.011,-0.004,0.006,-0.004,0.000,0.000,0.000,0.000,0,2,0,1,7,255,960,300,0,0,-89.358,0.879,-31.439
EX0521-092111,23,C11,prep,555,555,0,1150364.092,0.686,-0.675,0.196,0.187,0,0,0,0,0,0,0,0,0,0.000,0,0,0.104,0.007,-0.100,-0.020,0.020,0.015,0.993,0.012,-0.004,0.006,-0.008,0.000,0.000,0.000,0.000,0,2,0,1,7,255,960,300,0,0,-89.358,0.879,-31.439
EX0521-092111,23,C11,prep,555,555,0,1150369.092,0.686,-0.675,0.196,0.187,0,0,0,0,0,0,0,0,0,0.000,0,0,0.104,0.004,0.100,-0.020,0.020,0.014,0.996,0.012,-0.004,0.000,-0.004,0.000,0.000,0.000,0.000,0,2,0,1,7,255,960,300,0,0,-89.358,0.879,-31.439
EX0521-092111,23,C11,prep,555,555,0,1150374.091,0.686,-0.675,0.196,0.187,0,0,0,0,0,0,0,0,0,0.000,0,0,0.166,0.004,0.160,-0.020,-0.040,0.014,0.996,0.011,0.004,0.000,0.020,0.000,0.000,0.000,0.000,0,2,0,1,7,255,960,300,0,0,-89.358,0.879,-31.439
EX0521-092111,23,C11,prep,589,589,0,1150379.092,0.686,-0.675,0.196,0.187,0,0,0,0,0,0,0,0,0,0.000,0,0,0.104,0.002,-0.100,-0.020,0.020,0.014,0.993,0.012,-0.002,0.000,0.020,0.000,0.000,0.000,0.000,0,2,0,1,7,255,960,300,0,0,-89.358,0.879,-31.439
EX0521-092111,23,C11,prep,589,589,0,1150384.092,0.686,-0.675,0.196,0.187,0,0,0,0,0,0,0,0,0,0.000,0,0,0.049,0.002,0.040,-0.020,0.020,0.015,0.992,0.012,0.000,-0.002,-0.008,0.000,0.000,0.000,0.000,0,2,0,1,7,255,960,300,0,0,-89.358,0.879,-31.439
EX0521-092111,23,C11,prep,589,589,0,1150389.091,0.686,-0.675,0.196,0.187,0,0,0,0,0,0,0,0,0,0.000,0,0,0.166,0.002,0.160,-0.020,-0.040,0.014,0.993,0.011,0.000,-0.002,-0.008,0.000,0.000,0.000,0.000,0,2,0,1,7,255,960,300,0,0,-89.358,0.879,-31.439
EX0521-092111,23,C11,prep,589,589,0,1150394.091,0.686,-0.675,0.196,0.187,0,0,0,0,0,0,0,0,0,0.000,0,0,0.110,0.002,-0.100,-0.020,-0.040,0.014,0.993,0.011,0.000,0.002,-0.008,0.000,0.000,0.000,0.000,0,2,0,1,7,255,960,300,0,0,-89.358,0.879,-31.439
EX0521-092111,23,C11,prep,589,589,0,1150399.093,0.686,-0.675,0.196,0.187,0,0,0,0,0,0,0,0,0,0.000,0,0,0.060,0.003,-0.040,-0.020,-0.040,0.015,0.992,0.012,0.002,0.002,-0.008,0.000,0.000,0.000,0.000,0,2,0,1,7,255,960,300,0,0,-89.358,0.879,-31.439
EX0521-092111,23,C11,prep,589,589,0,1150404.092,0.686,-0.675,0.196,0.187,0,0,0,0,0,0,0,0,0,0.000,0,0,0.162,0.002,0.160,-0.020,0.020,0.013,0.990,0.012,0.000,0.002,-0.018,0.000,0.000,0.000,0.000,0,2,0,1,7,255,960,300,0,0,-89.358,0.879,-31.439
EX0521-092111,23,C11,prep,590,590,0,1150409.091,0.686,-0.675,0.196,0.187,0,0,0,0,0,0,0,0,0,0.000,0,0,0.092,0.004,-0.040,-0.080,0.020,0.013,0.991,0.011,-0.004,0.002,-0.026,0.000,0.000,0.000,0.000,0,2,0,1,7,255,960,300,0,0,-89.358,0.879,-31.439
EX0521-092111,23,C11,prep,590,590,0,1150414.092,0.686,-0.675,0.196,0.187,0,0,0,0,0,0,0,0,0,0.000,0,0,0.115,0.007,-0.100,0.040,-0.040,0.014,1.002,0.011,-0.004,0.006,-0.026,0.000,0.000,0.000,0.000,0,2,0,1,7,255,960,300,0,0,-89.358,0.879,-31.439
EX0521-092111,23,C11,prep,620,620,0,1150419.092,0.686,-0.675,0.196,0.187,0,0,0,0,0,0,0,0,0,0.000,0,0,0.110,0.007,0.100,-0.020,-0.040,0.013,0.993,0.011,-0.004,0.006,-0.008,0.000,0.000,0.000,0.000,0,2,0,1,7,255,960,300,0,0,-89.358,0.879,-31.439
EX0521-092111,23,C11,prep,620,620,0,1150424.092,0.686,-0.675,0.196,0.187,0,0,0,0,0,0,0,0,0,0.000,0,0,0.049,0.006,-0.040,-0.020,0.020,0.014,0.990,0.011,-0.002,0.006,-0.008,0.000,0.000,0.000,0.000,0,2,0,1,7,255,960,300,0,0,-89.358,0.879,-31.439
EX0521-092111,23,C11,prep,621,621,0,1150429.091,0.686,-0.675,0.196,0.187,0,0,0,0,0,0,0,0,0,0.000,0,0,0.104,0.004,-0.100,-0.020,0.020,0.014,0.989,0.012,-0.002,0.004,-0.032,0.000,0.000,0.000,0.000,0,2,0,1,7,255,960,300,0,0,-89.358,0.879,-31.439
EX0521-092111,23,C11,prep,622,622,0,1150434.092,0.686,-0.675,0.196,0.187,0,0,0,0,0,0,0,0,0,0.000,0,0,0.190,0.004,0.160,-0.020,-0.100,0.014,1.001,0.011,0.000,0.004,-0.032,0.000,0.000,0.000,0.000,0,2,0,1,7,255,960,300,0,0,-89.358,0.879,-31.439
EX0521-092111,23,C11,prep,622,622,0,1150439.092,0.686,-0.675,0.196,0.187,0,0,0,0,0,0,0,0,0,0.000,0,0,0.049,0.004,-0.040,-0.020,0.020,0.014,0.992,0.011,0.000,0.004,-0.018,0.000,0.000,0.000,0.000,0,2,0,1,7,255,960,300,0,0,-89.358,0.879,-31.439
EX0521-092111,23,C11,prep,622,622,0,1150444.091,0.686,-0.675,0.196,0.187,0,0,0,0,0,0,0,0,0,0.000,0,0,0.110,0.006,-0.100,-0.020,-0.040,0.013,0.994,0.011,0.000,0.006,0.006,0.000,0.000,0.000,0.000,0,2,0,1,7,255,960,300,0,0,-89.358,0.879,-31.439
EX0521-092111,23,C11,prep,657,657,0,1150449.091,0.686,-0.675,0.196,0.187,0,0,0,0,0,0,0,0,0,0.000,0,0,0.049,0.007,0.040,-0.020,0.020,0.014,0.993,0.012,-0.006,0.004,-0.004,0.000,0.000,0.000,0.000,0,2,0,1,7,255,960,300,0,0,-89.358,0.879,-31.439
EX0521-092111,23,C11,prep,657,657,0,1150454.092,0.686,-0.675,0.196,0.187,0,0,0,0,0,0,0,0,0,0.000,0,0,0.098,0.006,0.040,-0.080,-0.040,0.015,0.991,0.011,-0.006,0.000,-0.004,0.000,0.000,0.000,0.000,0,2,0,1,7,255,960,300,0,0,-89.358,0.879,-31.439
EX0521-092111,23,C11,prep,658,658,0,1150459.094,0.686,-0.675,0.196,0.187,0,0,0,0,0,0,0,0,0,0.000,0,0,0.110,0.006,-0.100,-0.020,-0.040,0.014,0.998,0.012,-0.006,0.000,-0.004,0.000,0.000,0.000,0.000,0,2,0,1,7,255,960,300,0,0,-89.358,0.879,-31.439
EX0521-092111,23,C11,prep,658,658,0,1150464.091,0.686,-0.675,0.196,0.187,0,0,0,0,0,0,0,0,0,0.000,0,0,0.049,0.006,-0.040,-0.020,0.020,0.013,0.991,0.012,-0.006,-0.002,-0.022,0.000,0.000,0.000,0.000,0,2,0,1,7,255,960,300,0,0,-89.358,0.879,-31.439
EX0521-092111,23,C11,prep,672,672,0,1150469.092,0.686,-0.675,0.196,0.187,0,0,0,0,0,0,0,0,0,0.000,0,0,0.060,0.006,0.020,0.040,-0.040,0.014,0.994,0.011,-0.006,0.000,0.002,0.000,0.000,0.000,0.000,0,2,0,1,7,255,960,300,0,0,-89.358,0.879,-31.439
EX0521-092111,23,C11,prep,672,672,0,1150474.092,0.686,-0.675,0.196,0.187,0,0,0,0,0,0,0,0,0,0.000,0,0,0.049,0.004,-0.040,-0.020,0.020,0.014,0.993,0.012,-0.004,0.000,-0.004,0.000,0.000,0.000,0.000,0,2,0,1,7,255,960,300,0,0,-89.358,0.879,-31.439
EX0521-092111,23,C11,prep,687,687,0,1150479.091,0.686,-0.675,0.196,0.187,0,0,0,0,0,0,0,0,0,0.000,0,0,0.060,0.000,-0.040,-0.020,-0.040,0.014,0.995,0.012,0.000,0.000,0.002,0.000,0.000,0.000,0.000,0,2,0,1,7,255,960,300,0,0,-89.358,0.879,-31.439
EX0521-092111,23,C11,prep,687,687,0,1150484.091,0.686,-0.675,0.196,0.187,0,0,0,0,0,0,0,0,0,0.000,0,0,0.049,0.000,0.020,-0.020,-0.040,0.014,0.994,0.011,0.000,0.000,0.002,0.000,0.000,0.000,0.000,0,2,0,1,7,255,960,300,0,0,-89.358,0.879,-31.439
EX0521-092111,23,C11,prep,687,687,0,1150489.092,0.686,-0.675,0.196,0.187,0,0,0,0,0,0,0,0,0,0.000,0,0,0.049,0.000,-0.040,-0.020,0.020,0.014,0.991,0.011,0.000,0.000,0.002,0.000,0.000,0.000,0.000,0,2,0,1,7,255,960,300,0,0,-89.358,0.879,-31.439
EX0521-092111,23,C11,prep,687,687,0,1150494.092,0.686,-0.675,0.196,0.187,0,0,0,0,0,0,0,0,0,0.000,0,0,0.049,0.000,-0.040,-0.020,0.020,0.014,0.994,0.012,0.000,0.000,0.002,0.000,0.000,0.000,0.000,0,2,0,1,7,255,960,300,0,0,-89.358,0.879,-31.439
EX0521-092111,23,C11,prep,687,687,0,1150499.092,0.686,-0.675,0.196,0.187,0,0,0,0,0,0,0,0,0,0.000,0,0,0.110,0.002,0.100,-0.020,-0.040,0.014,0.994,0.012,0.000,-0.002,0.002,0.000,0.000,0.000,0.000,0,2,0,1,7,255,960,300,0,0,-89.358,0.879,-31.439
EX0521-092111,23,C11,prep,687,687,0,1150504.092,0.686,-0.675,0.196,0.187,0,0,0,0,0,0,0,0,0,0.000,0,0,0.060,0.002,-0.040,-0.020,-0.040,0.015,0.995,0.011,0.000,-0.002,0.006,0.000,0.000,0.000,0.000,0,2,0,1,7,255,960,300,0,0,-89.358,0.879,-31.439
EX0521-092111,23,C11,prep,703,703,0,1150509.092,0.686,-0.675,0.196,0.187,0,0,0,0,0,0,0,0,0,0.000,0,0,0.115,0.002,-0.100,0.040,-0.040,0.015,0.991,0.013,0.000,-0.002,0.002,0.000,0.000,0.000,0.000,0,2,0,1,7,255,960,300,0,0,-89.358,0.879,-31.439
EX0521-092111,23,C11,prep,703,703,0,1150514.091,0.686,-0.675,0.196,0.187,0,0,0,0,0,0,0,0,0,0.000,0,0,0.060,0.002,0.040,-0.020,-0.040,0.014,0.994,0.012,0.000,-0.002,0.002,0.000,0.000,0.000,0.000,0,2,0,1,7,255,960,300,0,0,-89.358,0.879,-31.439
EX0521-092111,23,C11,prep,703,703,0,1150519.091,0.686,-0.675,0.196,0.187,0,0,0,0,0,0,0,0,0,0.000,0,0,0.060,0.002,0.040,-0.020,-0.040,0.014,0.994,0.010,0.000,-0.002,0.002,0.000,0.000,0.000,0.000,0,2,0,1,7,255,960,300,0,0,-89.358,0.879,-31.439
EX0521-092111,23,C11,prep,703,703,0,1150524.092,0.686,-0.675,0.196,0.187,0,0,0,0,0,0,0,0,0,0.000,0,0,0.060,0.002,-0.040,-0.020,-0.040,0.013,0.998,0.012,0.000,-0.002,0.006,0.000,0.000,0.000,0.000,0,2,0,1,7,255,960,300,0,0,-89.358,0.879,-31.439
EX0521-092111,23,C11,prep,720,720,0,1150529.092,0.686,-0.675,0.196,0.187,0,0,0,0,0,0,0,0,0,0.000,0,0,0.060,0.006,0.040,-0.020,-0.040,0.015,0.992,0.011,0.006,-0.002,0.006,0.000,0.000,0.000,0.000,0,2,0,1,7,255,960,300,0,0,-89.358,0.879,-31.439
EX0521-092111,23,C11,prep,720,720,0,1150534.091,0.686,-0.675,0.196,0.187,0,0,0,0,0,0,0,0,0,0.000,0,0,0.069,0.006,0.040,0.040,-0.040,0.015,0.989,0.011,0.006,-0.002,-0.018,0.000,0.000,0.000,0.000,0,2,0,1,7,255,960,300,0,0,-89.358,0.879,-31.439
EX0521-092111,23,C11,prep,735,735,0,1150539.092,0.686,-0.675,0.196,0.187,0,0,0,0,0,0,0,0,0,0.000,0,0,0.049,0.008,-0.040,-0.020,0.020,0.015,0.994,0.011,0.008,-0.002,-0.018,0.000,0.000,0.000,0.000,0,2,0,1,7,255,960,300,0,0,-89.358,0.879,-31.439
EX0521-092111,23,C11,prep,735,735,0,1150544.092,0.686,-0.675,0.196,0.187,0,0,0,0,0,0,0,0,0,0.000,0,0,0.049,0.008,0.040,-0.020,0.020,0.014,0.997,0.011,0.008,0.002,0.002,0.000,0.000,0.000,0.000,0,2,0,1,7,255,960,300,0,0,-89.358,0.879,-31.439
EX0521-092111,23,C11,prep,756,756,0,1150549.092,0.686,-0.675,0.196,0.187,0,0,0,0,0,0,0,0,0,0.000,0,0,0.104,0.004,0.100,-0.020,0.020,0.014,0.995,0.011,-0.002,0.004,0.016,0.000,0.000,0.000,0.000,0,2,0,1,7,255,960,300,0,0,-89.358,0.879,-31.439
EX0521-092111,23,C11,prep,756,756,0,1150554.091,0.686,-0.675,0.196,0.187,0,0,0,0,0,0,0,0,0,0.000,0,0,0.060,0.004,-0.040,-0.020,-0.040,0.014,0.991,0.012,-0.002,0.004,0.016,0.000,0.000,0.000,0.000,0,2,0,1,7,255,960,300,0,0,-89.358,0.879,-31.439
EX0521-092111,23,C11,prep,757,757,0,1150559.094,0.686,-0.675,0.196,0.187,0,0,0,0,0,0,0,0,0,0.000,0,0,0.060,0.004,-0.040,-0.020,-0.040,0.015,0.996,0.012,-0.002,-0.004,0.016,0.000,0.000,0.000,0.000,0,2,0,1,7,255,960,300,0,0,-89.358,0.879,-31.439
EX0521-092111,23,C11,prep,757,757,0,1150564.092,0.686,-0.675,0.196,0.187,0,0,0,0,0,0,0,0,0,0.000,0,0,0.049,0.008,0.020,0.040,0.020,0.015,0.992,0.012,0.002,-0.008,-0.012,0.000,0.000,0.000,0.000,0,2,0,1,7,255,960,300,0,0,-89.358,0.879,-31.439
EX0521-092111,23,C11,prep,758,758,0,1150569.091,0.686,-0.675,0.196,0.187,0,0,0,0,0,0,0,0,0,0.000,0,0,0.049,0.009,-0.040,-0.020,0.020,0.014,0.995,0.009,0.008,-0.004,0.010,0.000,0.000,0.000,0.000,0,2,0,1,7,255,960,300,0,0,-89.358,0.879,-31.439
EX0521-092111,23,C11,prep,758,758,0,1150574.092,0.686,-0.675,0.196,0.187,0,0,0,0,0,0,0,0,0,0.000,0,0,0.110,0.009,-0.040,-0.100,0.020,0.014,0.992,0.012,0.008,-0.004,-0.012,0.000,0.000,0.000,0.000,0,2,0,1,7,255,960,300,0,0,-89.358,0.879,-31.439
EX0521-092111,23,C11,prep,788,788,0,1150579.092,0.686,-0.675,0.196,0.187,0,0,0,0,0,0,0,0,0,0.000,0,0,0.035,0.004,0.020,-0.020,0.020,0.014,0.991,0.012,-0.002,-0.004,-0.018,0.000,0.000,0.000,0.000,0,2,0,1,7,255,960,300,0,0,-89.358,0.879,-31.439
EX0521-092111,23,C11,prep,788,788,0,1150584.091,0.686,-0.675,0.196,0.187,0,0,0,0,0,0,0,0,0,0.000,0,0,0.110,0.004,-0.040,-0.020,-0.100,0.014,0.995,0.012,-0.002,-0.004,-0.018,0.000,0.000,0.000,0.000,0,2,0,1,7,255,960,300,0,0,-89.358,0.879,-31.439
EX0521-092111,23,C11,prep,788,788,0,1150589.091,0.686,-0.675,0.196,0.187,0,0,0,0,0,0,0,0,0,0.000,0,0,0.115,0.003,-0.040,-0.100,-0.040,0.014,0.993,0.011,-0.002,-0.002,-0.004,0.000,0.000,0.000,0.000,0,2,0,1,7,255,960,300,0,0,-89.358,0.879,-31.439
EX0521-092111,23,C11,prep,788,788,0,1150594.092,0.686,-0.675,0.196,0.187,0,0,0,0,0,0,0,0,0,0.000,0,0,0.085,0.007,0.080,-0.020,0.020,0.014,0.994,0.010,0.004,0.006,0.006,0.000,0.000,0.000,0.000,0,2,0,1,7,255,960,300,0,0,-89.358,0.879,-31.439
EX0521-092111,23,C11,prep,801,801,0,1150599.092,0.686,-0.675,0.196,0.187,0,0,0,0,0,0,0,0,0,0.000,0,0,0.049,0.011,0.020,-0.020,-0.040,0.013,0.991,0.010,0.004,0.010,-0.004,0.000,0.000,0.000,0.000,0,2,0,1,7,255,960,300,0,0,-89.358,0.879,-31.439
EX0521-092111,23,C11,prep,801,801,0,1150604.091,0.686,-0.675,0.196,0.187,0,0,0,0,0,0,0,0,0,0.000,0,0,0.060,0.012,-0.040,-0.020,-0.040,0.015,0.994,0.011,0.006,0.010,0.006,0.000,0.000,0.000,0.000,0,2,0,1,7,255,960,300,0,0,-89.358,0.879,-31.439
EX0521-092111,23,C11,prep,801,801,0,1150609.092,0.686,-0.675,0.196,0.187,0,0,0,0,0,0,0,0,0,0.000,0,0,0.049,0.003,0.020,-0.020,-0.040,0.014,0.994,0.012,-0.002,-0.002,0.002,0.000,0.000,0.000,0.000,0,2,0,1,7,255,960,300,0,0,-89.358,0.879,-31.439
EX0521-092111,23,C11,prep,801,801,0,1150614.092,0.686,-0.675,0.196,0.187,0,0,0,0,0,0,0,0,0,0.000,0,0,0.104,0.003,0.100,-0.020,0.020,0.014,0.994,0.012,-0.002,-0.002,0.002,0.000,0.000,0.000,0.000,0,2,0,1,7,255,960,300,0,0,-89.358,0.879,-31.439
EX0521-092111,23,C11,prep,801,801,0,1150619.091,0.686,-0.675,0.196,0.187,0,0,0,0,0,0,0,0,0,0.000,0,0,0.049,0.003,-0.040,-0.020,0.020,0.014,0.993,0.011,-0.002,-0.002,0.002,0.000,0.000,0.000,0.000,0,2,0,1,7,255,960,300,0,0,-89.358,0.879,-31.439
EX0521-092111,23,C11,prep,801,801,0,1150624.091,0.686,-0.675,0.196,0.187,0,0,0,0,0,0,0,0,0,0.000,0,0,0.110,0.004,0.020,-0.100,-0.040,0.015,0.991,0.012,0.004,-0.002,-0.008,0.000,0.000,0.000,0.000,0,2,0,1,7,255,960,300,0,0,-89.358,0.879,-31.439
EX0521-092111,23,C11,prep,815,815,0,1150629.092,0.686,-0.675,0.196,0.187,0,0,0,0,0,0,0,0,0,0.000,0,0,0.049,0.004,0.020,-0.020,-0.040,0.014,0.994,0.012,0.004,-0.002,-0.008,0.000,0.000,0.000,0.000,0,2,0,1,7,255,960,300,0,0,-89.358,0.879,-31.439
EX0521-092111,23,C11,prep,815,815,0,1150634.092,0.686,-0.675,0.196,0.187,0,0,0,0,0,0,0,0,0,0.000,0,0,0.049,0.007,-0.040,-0.020,0.020,0.016,0.993,0.012,0.004,-0.006,-0.002,0.000,0.000,0.000,0.000,0,2,0,1,7,255,960,300,0,0,-89.358,0.879,-31.439
EX0521-092111,23,C11,prep,831,831,0,1150639.091,0.686,-0.675,0.196,0.187,0,0,0,0,0,0,0,0,0,0.000,0,0,0.060,0.003,-0.040,-0.020,-0.040,0.014,0.993,0.011,-0.002,-0.002,-0.002,0.000,0.000,0.000,0.000,0,2,0,1,7,255,960,300,0,0,-89.358,0.879,-31.439
EX0521-092111,23,C11,prep,831,831,0,1150644.092,0.686,-0.675,0.196,0.187,0,0,0,0,0,0,0,0,0,0.000,0,0,0.110,0.006,0.100,-0.020,-0.040,0.014,0.992,0.011,0.004,0.004,-0.008,0.000,0.000,0.000,0.000,0,2,0,1,7,255,960,300,0,0,-89.358,0.879,-31.439
EX0521-092111,23,C11,prep,863,863,0,1150649.092,0.686,-0.675,0.196,0.187,0,0,0,0,0,0,0,0,0,0.000,0,0,0.049,0.004,-0.040,-0.020,0.020,0.013,0.993,0.012,-0.002,0.004,-0.008,0.000,0.000,0.000,0.000,0,2,0,1,7,255,960,300,0,0,-89.358,0.879,-31.439
EX0521-092111,23,C11,prep,863,863,0,1150654.091,0.686,-0.675,0.196,0.187,0,0,0,0,0,0,0,0,0,0.000,0,0,0.060,0.004,-0.040,-0.020,-0.040,0.014,0.994,0.011,-0.002,0.004,-0.002,0.000,0.000,0.000,0.000,0,2,0,1,7,255,960,300,0,0,-89.358,0.879,-31.439
EX0521-092111,23,C11,prep,863,863,0,1150659.094,0.686,-0.675,0.196,0.187,0,0,0,0,0,0,0,0,0,0.000,0,0,0.098,0.004,0.040,-0.080,-0.040,0.014,0.994,0.011,-0.002,0.004,0.002,0.000,0.000,0.000,0.000,0,2,0,1,7,255,960,300,0,0,-89.358,0.879,-31.439
EX0521-092111,23,C11,prep,863,863,0,1150664.092,0.686,-0.675,0.196,0.187,0,0,0,0,0,0,0,0,0,0.000,0,0,0.098,0.008,0.040,-0.080,-0.040,0.013,0.994,0.010,-0.002,0.008,0.002,0.000,0.000,0.000,0.000,0,2,0,1,7,255,960,300,0,0,-89.358,0.879,-31.439
EX0521-092111,23,C11,prep,863,863,0,1150669.092,0.686,-0.675,0.196,0.187,0,0,0,0,0,0,0,0,0,0.000,0,0,0.060,0.008,-0.040,-0.020,-0.040,0.015,0.994,0.012,0.000,0.008,0.002,0.000,0.000,0.000,0.000,0,2,0,1,7,255,960,300,0,0,-89.358,0.879,-31.439
EX0521-092111,23,C11,prep,863,863,0,1150674.091,0.686,-0.675,0.196,0.187,0,0,0,0,0,0,0,0,0,0.000,0,0,0.069,0.004,0.040,0.040,-0.040,0.014,0.993,0.011,0.002,0.004,0.002,0.000,0.000,0.000,0.000,0,2,0,1,7,255,960,300,0,0,-89.358,0.879,-31.439
EX0521-092111,23,C11,prep,884,884,0,1150679.092,0.686,-0.675,0.196,0.187,0,0,0,0,0,0,0,0,0,0.000,0,0,0.049,0.004,-0.040,-0.020,0.020,0.013,0.995,0.011,0.002,0.004,0.002,0.000,0.000,0.000,0.000,0,2,0,1,7,255,960,300,0,0,-89.358,0.879,-31.439
EX0521-092111,23,C11,prep,884,884,0,1150684.092,0.686,-0.675,0.196,0.187,0,0,0,0,0,0,0,0,0,0.000,0,0,0.060,0.006,-0.040,0.040,0.020,0.014,0.994,0.011,0.004,0.004,0.002,0.000,0.000,0.000,0.000,0,2,0,1,7,255,960,300,0,0,-89.358,0.879,-31.439
EX0521-092111,23,C11,prep,884,884,0,1150689.091,0.686,-0.675,0.196,0.187,0,0,0,0,0,0,0,0,0,0.000,0,0,0.049,0.006,-0.040,-0.020,0.020,0.015,0.993,0.012,0.004,0.004,0.002,0.000,0.000,0.000,0.000,0,2,0,1,7,255,960,300,0,0,-89.358,0.879,-31.439
EX0521-092111,23,C11,prep,884,884,0,1150694.091,0.686,-0.675,0.196,0.187,0,0,0,0,0,0,0,0,0,0.000,0,0,0.049,0.006,0.040,-0.020,0.020,0.014,0.994,0.011,0.004,0.004,0.002,0.000,0.000,0.000,0.000,0,2,0,1,7,255,960,300,0,0,-89.358,0.879,-31.439
EX0521-092111,23,C11,prep,884,884,0,1150699.093,0.686,-0.675,0.196,0.187,0,0,0,0,0,0,0,0,0,0.000,0,0,0.060,0.002,0.040,-0.020,-0.040,0.014,0.993,0.011,0.002,0.000,-0.008,0.000,0.000,0.000,0.000,0,2,0,1,7,255,960,300,0,0,-89.358,0.879,-31.439
EX0521-092111,23,C11,prep,884,884,0,1150704.092,0.686,-0.675,0.196,0.187,0,0,0,0,0,0,0,0,0,0.000,0,0,0.060,0.002,-0.040,-0.020,-0.040,0.015,0.993,0.012,0.002,0.000,-0.008,0.000,0.000,0.000,0.000,0,2,0,1,7,255,960,300,0,0,-89.358,0.879,-31.439
EX0521-092111,23,C11,prep,895,895,0,1150709.091,0.686,-0.675,0.196,0.187,0,0,0,0,0,0,0,0,0,0.000,0,0,0.060,0.006,0.020,0.040,-0.040,0.015,0.995,0.012,0.002,-0.006,-0.008,0.000,0.000,0.000,0.000,0,2,0,1,7,255,960,300,0,0,-89.358,0.879,-31.439
EX0521-092111,23,C11,prep,895,895,0,1150714.092,0.686,-0.675,0.196,0.187,0,0,0,0,0,0,0,0,0,0.000,0,0,0.049,0.006,0.020,-0.020,-0.040,0.014,0.993,0.011,0.002,-0.006,-0.002,0.000,0.000,0.000,0.000,0,2,0,1,7,255,960,300,0,0,-89.358,0.879,-31.439
EX0521-092111,23,C11,prep,922,922,0,1150719.092,0.686,-0.675,0.196,0.187,0,0,0,0,0,0,0,0,0,0.000,0,0,0.049,0.002,0.020,0.040,0.020,0.015,0.994,0.011,0.002,0.000,0.006,0.000,0.000,0.000,0.000,0,2,0,1,7,255,960,300,0,0,-89.358,0.879,-31.439
EX0521-092111,23,C11,prep,922,922,0,1150724.091,0.686,-0.675,0.196,0.187,0,0,0,0,0,0,0,0,0,0.000,0,0,0.049,0.006,0.020,-0.020,-0.040,0.015,0.993,0.012,0.006,0.000,-0.002,0.000,0.000,0.000,0.000,0,2,0,1,7,255,960,300,0,0,-89.358,0.879,-31.439
EX0521-092111,23,C11,prep,922,922,0,1150729.091,0.686,-0.675,0.196,0.187,0,0,0,0,0,0,0,0,0,0.000,0,0,0.060,0.006,-0.040,-0.020,-0.040,0.014,0.993,0.011,0.006,0.000,-0.008,0.000,0.000,0.000,0.000,0,2,0,1,7,255,960,300,0,0,-89.358,0.879,-31.439
EX0521-092111,23,C11,prep,922,922,0,1150734.092,0.686,-0.675,0.196,0.187,0,0,0,0,0,0,0,0,0,0.000,0,0,0.060,0.008,-0.040,-0.020,-0.040,0.015,0.992,0.012,0.002,-0.008,-0.008,0.000,0.000,0.000,0.000,0,2,0,1,7,255,960,300,0,0,-89.358,0.879,-31.439
EX0521-092111,23,C11,prep,923,923,0,1150739.092,0.686,-0.675,0.196,0.187,0,0,0,0,0,0,0,0,0,0.000,0,0,0.049,0.000,0.020,-0.020,-0.040,0.013,0.993,0.011,0.000,0.000,-0.008,0.000,0.000,0.000,0.000,0,2,0,1,7,255,960,300,0,0,-89.358,0.879,-31.439
EX0521-092111,23,C11,prep,923,923,0,1150744.091,0.686,-0.675,0.196,0.187,0,0,0,0,0,0,0,0,0,0.000,0,0,0.049,0.006,0.020,-0.020,-0.040,0.014,0.993,0.011,0.000,0.006,-0.008,0.000,0.000,0.000,0.000,0,2,0,1,7,255,960,300,0,0,-89.358,0.879,-31.439
EX0521-092111,23,C11,prep,954,954,0,1150749.092,0.686,-0.675,0.196,0.187,0,0,0,0,0,0,0,0,0,0.000,0,0,0.060,0.008,-0.040,-0.020,-0.040,0.014,0.993,0.012,-0.006,0.006,-0.008,0.000,0.000,0.000,0.000,0,2,0,1,7,255,960,300,0,0,-89.358,0.879,-31.439
EX0521-092111,23,C11,prep,954,954,0,1150754.092,0.686,-0.675,0.196,0.187,0,0,0,0,0,0,0,0,0,0.000,0,0,0.104,0.008,0.020,-0.100,0.020,0.014,0.992,0.010,0.000,0.008,-0.008,0.000,0.000,0.000,0.000,0,2,0,1,7,255,960,300,0,0,-89.358,0.879,-31.439
EX0521-092111,23,C11,prep,955,955,0,1150759.094,0.686,-0.675,0.196,0.187,0,0,0,0,0,0,0,0,0,0.000,0,0,0.110,0.002,0.040,-0.020,-0.100,0.014,0.992,0.012,-0.002,0.000,-0.012,0.000,0.000,0.000,0.000,0,2,0,1,7,255,960,300,0,0,-89.358,0.879,-31.439
EX0521-092111,23,C11,prep,955,955,0,1150764.091,0.686,-0.675,0.196,0.187,0,0,0,0,0,0,0,0,0,0.000,0,0,0.049,0.003,0.040,-0.020,0.020,0.015,0.993,0.011,0.002,-0.002,-0.012,0.000,0.000,0.000,0.000,0,2,0,1,7,255,960,300,0,0,-89.358,0.879,-31.439
EX0521-092111,23,C11,prep,955,955,0,1150769.092,0.686,-0.675,0.196,0.187,0,0,0,0,0,0,0,0,0,0.000,0,0,0.069,0.006,0.040,0.040,-0.040,0.015,0.994,0.011,0.006,-0.002,-0.002,0.000,0.000,0.000,0.000,0,2,0,1,7,255,960,300,0,0,-89.358,0.879,-31.439
EX0521-092111,23,C11,prep,955,955,0,1150774.092,0.686,-0.675,0.196,0.187,0,0,0,0,0,0,0,0,0,0.000,0,0,0.069,0.006,0.040,0.040,-0.040,0.014,0.993,0.011,0.006,-0.002,-0.002,0.000,0.000,0.000,0.000,0,2,0,1,7,255,960,300,0,0,-89.358,0.879,-31.439
EX0521-092111,23,C11,prep,988,988,0,1150779.091,0.686,-0.675,0.196,0.187,0,0,0,0,0,0,0,0,0,0.000,0,0,0.049,0.004,-0.040,-0.020,0.020,0.014,0.992,0.011,0.000,0.004,-0.002,0.000,0.000,0.000,0.000,0,2,0,1,7,255,960,300,0,0,-89.358,0.879,-31.439
EX0521-092111,23,C11,prep,988,988,0,1150784.091,0.686,-0.675,0.196,0.187,0,0,0,0,0,0,0,0,0,0.000,0,0,0.049,0.004,-0.040,-0.020,0.020,0.015,0.993,0.011,0.000,0.004,-0.006,0.000,0.000,0.000,0.000,0,2,0,1,7,255,960,300,0,0,-89.358,0.879,-31.439
EX0521-092111,23,C11,prep,988,988,0,1150789.092,0.686,-0.675,0.196,0.187,0,0,0,0,0,0,0,0,0,0.000,0,0,0.060,0.002,-0.040,0.040,0.020,0.015,0.993,0.012,0.002,0.000,-0.006,0.000,0.000,0.000,0.000,0,2,0,1,7,255,960,300,0,0,-89.358,0.879,-31.439
EX0521-092111,23,C11,prep,988,988,0,1150794.091,0.686,-0.675,0.196,0.187,0,0,0,0,0,0,0,0,0,0.000,0,0,0.060,0.002,0.040,-0.020,-0.040,0.014,0.994,0.012,0.002,0.000,-0.002,0.000,0.000,0.000,0.000,0,2,0,1,7,255,960,300,0,0,-89.358,0.879,-31.439
EX0521-092111,23,C11,prep,989,989,0,1150799.092,0.686,-0.675,0.196,0.187,0,0,0,0,0,0,0,0,0,0.000,0,0,0.060,0.004,0.040,-0.020,-0.040,0.014,0.994,0.011,-0.004,0.000,0.002,0.000,0.000,0.000,0.000,0,2,0,1,7,255,960,300,0,0,-89.358,0.879,-31.439
EX0521-092111,23,C11,prep,989,989,0,1150804.092,0.686,-0.675,0.196,0.187,0,0,0,0,0,0,0,0,0,0.000,0,0,0.092,0.004,0.040,-0.020,0.080,0.015,0.993,0.011,-0.004,0.000,0.002,0.000,0.000,0.000,0.000,0,2,0,1,7,255,960,300,0,0,-89.358,0.879,-31.439
EX0521-092111,23,C11,prep,1024,1024,0,1150809.092,0.686,-0.675,0.196,0.187,0,0,0,0,0,0,0,0,0,0.000,0,0,0.049,0.004,0.020,-0.020,-0.040,0.014,0.992,0.012,-0.004,-0.002,-0.002,0.000,0.000,0.000,0.000,0,2,0,1,7,255,960,300,0,0,-89.358,0.879,-31.439
EX0521-092111,23,C11,prep,1024,1024,0,1150814.091,0.686,-0.675,0.196,0.187,0,0,0,0,0,0,0,0,0,0.000,0,0,0.035,0.009,0.020,-0.020,0.020,0.014,0.993,0.012,-0.008,-0.004,-0.002,0.000,0.000,0.000,0.000,0,2,0,1,7,255,960,300,0,0,-89.358,0.879,-31.439
EX0521-092111,23,C11,prep,1024,1024,0,1150819.092,0.686,-0.675,0.196,0.187,0,0,0,0,0,0,0,0,0,0.000,0,0,0.049,0.009,0.020,-0.020,-0.040,0.015,0.993,0.011,-0.008,-0.004,-0.006,0.000,0.000,0.000,0.000,0,2,0,1,7,255,960,300,0,0,-89.358,0.879,-31.439
EX0521-092111,23,C11,prep,1024,1024,0,1150824.092,0.686,-0.675,0.196,0.187,0,0,0,0,0,0,0,0,0,0.000,0,0,0.110,0.004,-0.040,-0.100,0.020,0.015,0.993,0.012,0.002,-0.004,-0.006,0.000,0.000,0.000,0.000,0,2,0,1,7,255,960,300,0,0,-89.358,0.879,-31.439
EX0521-092111,23,C11,prep,1025,1025,0,1150829.092,0.686,-0.675,0.196,0.187,0,0,0,0,0,0,0,0,0,0.000,0,0,0.049,0.003,-0.040,-0.020,0.020,0.014,0.993,0.011,0.002,-0.002,-0.006,0.000,0.000,0.000,0.000,0,2,0,1,7,255,960,300,0,0,-89.358,0.879,-31.439
EX0521-092111,23,C11,prep,1025,1025,0,1150834.091,0.686,-0.675,0.196,0.187,0,0,0,0,0,0,0,0,0,0.000,0,0,0.049,0.004,0.020,-0.020,-0.040,0.014,0.994,0.011,0.000,0.004,-0.006,0.000,0.000,0.000,0.000,0,2,0,1,7,255,960,300,0,0,-89.358,0.879,-31.439
EX0521-092111,23,C11,prep,1025,1025,0,1150839.092,0.686,-0.675,0.196,0.187,0,0,0,0,0,0,0,0,0,0.000,0,0,0.035,0.006,0.020,-0.020,0.020,0.014,0.993,0.012,-0.004,0.004,-0.002,0.000,0.000,0.000,0.000,0,2,0,1,7,255,960,300,0,0,-89.358,0.879,-31.439
EX0521-092111,23,C11,prep,1025,1025,0,1150844.092,0.686,-0.675,0.196,0.187,0,0,0,0,0,0,0,0,0,0.000,0,0,0.049,0.006,-0.040,-0.020,0.020,0.014,0.993,0.010,-0.004,0.004,-0.002,0.000,0.000,0.000,0.000,0,2,0,1,7,255,960,300,0,0,-89.358,0.879,-31.439
EX0521-092111,23,C11,prep,1056,1056,0,1150849.091,0.686,-0.675,0.196,0.187,0,0,0,0,0,0,0,0,0,0.000,0,0,0.104,0.006,0.100,-0.020,0.020,0.015,0.994,0.011,0.006,0.002,-0.002,0.000,0.000,0.000,0.000,0,2,0,1,7,255,960,300,0,0,-89.358,0.879,-31.439
EX0521-092111,23,C11,prep,1056,1056,0,1150854.091,0.686,-0.675,0.196,0.187,0,0,0,0,0,0,0,0,0,0.000,0,0,0.049,0.010,0.020,-0.020,-0.040,0.013,0.994,0.011,0.006,0.008,0.002,0.000,0.000,0.000,0.000,0,2,0,1,7,255,960,300,0,0,-89.358,0.879,-31.439
EX0521-092111,23,C11,prep,1056,1056,0,1150859.093,0.686,-0.675,0.196,0.187,0,0,0,0,0,0,0,0,0,0.000,0,0,0.049,0.004,-0.040,-0.020,0.020,0.014,0.993,0.012,-0.004,0.002,0.002,0.000,0.000,0.000,0.000,0,2,0,1,7,255,960,300,0,0,-89.358,0.879,-31.439
EX0521-092111,23,C11,prep,1056,1056,0,1150864.091,0.686,-0.675,0.196,0.187,0,0,0,0,0,0,0,0,0,0.000,0,0,0.049,0.004,0.040,-0.020,0.020,0.014,0.994,0.012,-0.004,0.000,0.002,0.000,0.000,0.000,0.000,0,2,0,1,7,255,960,300,0,0,-89.358,0.879,-31.439
EX0521-092111,23,C11,prep,1056,1056,0,1150869.091,0.686,-0.675,0.196,0.187,0,0,0,0,0,0,0,0,0,0.000,0,0,0.060,0.006,0.040,-0.020,-0.040,0.014,0.992,0.012,-0.006,-0.002,-0.002,0.000,0.000,0.000,0.000,0,2,0,1,7,255,960,300,0,0,-89.358,0.880,-31.439
EX0521-092111,23,C11,prep,1056,1056,0,1150874.092,0.686,-0.675,0.196,0.187,0,0,0,0,0,0,0,0,0,0.000,0,0,0.069,0.003,-0.040,0.040,-0.040,0.014,0.993,0.011,-0.002,-0.002,-0.002,0.000,0.000,0.000,0.000,0,2,0,1,7,255,960,300,0,0,-89.358,0.880,-31.439
EX0521-092111,23,C11,prep,1072,1072,0,1150879.092,0.686,-0.675,0.196,0.187,0,0,0,0,0,0,0,0,0,0.000,0,0,0.060,0.006,0.040,-0.020,-0.040,0.013,0.994,0.012,-0.006,0.000,-0.002,0.000,0.000,0.000,0.000,0,2,0,1,7,255,960,300,0,0,-89.358,0.880,-31.439
EX0521-092111,23,C11,prep,1072,1072,0,1150884.091,0.686,-0.675,0.196,0.187,0,0,0,0,0,0,0,0,0,0.000,0,0,0.049,0.003,0.040,-0.020,0.020,0.015,0.994,0.011,0.002,0.002,0.004,0.000,0.000,0.000,0.000,0,2,0,1,7,255,960,300,0,0,-89.358,0.880,-31.439
EX0521-092111,23,C11,prep,1072,1072,0,1150889.091,0.686,-0.675,0.196,0.187,0,0,0,0,0,0,0,0,0,0.000,0,0,0.060,0.003,0.040,-0.020,-0.040,0.014,0.994,0.012,-0.002,0.002,0.004,0.000,0.000,0.000,0.000,0,2,0,1,7,255,960,300,0,0,-89.358,0.880,-31.439
EX0521-092111,23,C11,prep,1072,1072,0,1150894.092,0.686,-0.675,0.196,0.187,0,0,0,0,0,0,0,0,0,0.000,0,0,0.060,0.004,-0.040,0.040,0.020,0.014,0.993,0.013,-0.002,-0.004,0.004,0.000,0.000,0.000,0.000,0,2,0,1,7,255,960,300,0,0,-89.358,0.880,-31.439
EX0521-092111,23,C11,prep,1088,1088,0,1150899.093,0.686,-0.675,0.196,0.187,0,0,0,0,0,0,0,0,0,0.000,0,0,0.104,0.007,0.100,-0.020,0.020,0.014,0.993,0.012,-0.006,-0.004,-0.002,0.000,0.000,0.000,0.000,0,2,0,1,7,255,960,300,0,0,-89.358,0.880,-31.439
EX0521-092111,23,C11,prep,1088,1088,0,1150904.091,0.686,-0.675,0.196,0.187,0,0,0,0,0,0,0,0,0,0.000,0,0,0.060,0.006,0.040,-0.020,-0.040,0.014,0.993,0.011,-0.006,0.000,-0.002,0.000,0.000,0.000,0.000,0,2,0,1,7,255,960,300,0,0,-89.358,0.880,-31.439
EX0521-092111,23,C11,prep,1103,1103,0,1150909.092,0.686,-0.675,0.196,0.187,0,0,0,0,0,0,0,0,0,0.000,0,0,0.060,0.004,-0.040,-0.020,-0.040,0.014,0.994,0.011,-0.002,0.004,-0.002,0.000,0.000,0.000,0.000,0,2,0,1,7,255,960,300,0,0,-89.358,0.880,-31.439
EX0521-092111,23,C11,prep,1103,1103,0,1150914.092,0.686,-0.675,0.196,0.187,0,0,0,0,0,0,0,0,0,0.000,0,0,0.060,0.008,0.040,-0.020,-0.040,0.013,0.993,0.010,-0.002,0.008,-0.002,0.000,0.000,0.000,0.000,0,2,0,1,7,255,960,300,0,0,-89.358,0.880,-31.439
EX0521-092111,23,C11,prep,1103,1103,0,1150919.091,0.686,-0.675,0.196,0.187,0,0,0,0,0,0,0,0,0,0.000,0,0,0.049,0.004,-0.040,-0.020,0.020,0.014,0.994,0.011,-0.002,0.004,0.004,0.000,0.000,0.000,0.000,0,2,0,1,7,255,960,300,0,0,-89.358,0.880,-31.439
EX0521-092111,23,C11,prep,1103,1103,0,1150924.091,0.686,-0.675,0.196,0.187,0,0,0,0,0,0,0,0,0,0.000,0,0,0.060,0.004,-0.040,0.040,0.020,0.015,0.994,0.012,-0.002,0.004,0.004,0.000,0.000,0.000,0.000,0,2,0,1,7,255,960,300,0,0,-89.358,0.880,-31.439
EX0521-092111,23,C11,prep,1119,1119,0,1150929.092,0.686,-0.675,0.196,0.187,0,0,0,0,0,0,0,0,0,0.000,0,0,0.060,0.003,-0.040,-0.020,-0.040,0.015,0.992,0.011,0.002,-0.002,0.004,0.000,0.000,0.000,0.000,0,2,0,1,7,255,960,300,0,0,-89.358,0.880,-31.439
EX0521-092111,23,C11,prep,1119,1119,0,1150934.092,0.686,-0.675,0.196,0.187,0,0,0,0,0,0,0,0,0,0.000,0,0,0.060,0.006,0.040,-0.020,-0.040,0.014,0.992,0.012,0.002,-0.006,-0.010,0.000,0.000,0.000,0.000,0,2,0,1,7,255,960,300,0,0,-89.358,0.880,-31.439
EX0521-092111,23,C11,prep,1135,1135,0,1150939.091,0.686,-0.675,0.196,0.187,0,0,0,0,0,0,0,0,0,0.000,0,0,0.060,0.004,0.040,-0.020,-0.040,0.014,0.994,0.012,-0.002,-0.004,-0.010,0.000,0.000,0.000,0.000,0,2,0,1,7,255,960,300,0,0,-89.358,0.880,-31.439
EX0521-092111,23,C11,prep,1135,1135,0,1150944.092,0.686,-0.675,0.196,0.187,0,0,0,0,0,0,0,0,0,0.000,0,0,0.069,0.006,0.040,0.040,-0.040,0.014,0.994,0.012,-0.004,-0.004,0.004,0.000,0.000,0.000,0.000,0,2,0,1,7,255,960,300,0,0,-89.358,0.880,-31.439
EX0521-092111,23,C11,prep,1154,1154,0,1150949.092,0.686,-0.675,0.196,0.187,0,0,0,0,0,0,0,0,0,0.000,0,0,0.060,0.002,0.040,-0.020,-0.040,0.014,0.993,0.011,-0.002,0.000,0.004,0.000,0.000,0.000,0.000,0,2,0,1,7,255,960,300,0,0,-89.358,0.880,-31.439
EX0521-092111,23,C11,prep,1154,1154,0,1150954.091,0.686,-0.675,0.196,0.187,0,0,0,0,0,0,0,0,0,0.000,0,0,0.060,0.002,0.040,-0.020,-0.040,0.014,0.993,0.012,-0.002,0.000,-0.006,0.000,0.000,0.000,0.000,0,2,0,1,7,255,960,300,0,0,-89.358,0.880,-31.439
EX0521-092111,23,C11,prep,1155,1155,0,1150959.094,0.686,-0.675,0.196,0.187,0,0,0,0,0,0,0,0,0,0.000,0,0,0.049,0.004,0.040,-0.020,0.020,0.014,0.993,0.011,-0.002,0.004,-0.006,0.000,0.000,0.000,0.000,0,2,0,1,7,255,960,300,0,0,-89.358,0.880,-31.439
EX0521-092111,23,C11,prep,1155,1155,0,1150964.092,0.686,-0.675,0.196,0.187,0,0,0,0,0,0,0,0,0,0.000,0,0,0.060,0.004,-0.040,-0.020,-0.040,0.013,0.993,0.011,-0.002,0.004,-0.006,0.000,0.000,0.000,0.000,0,2,0,1,7,255,960,300,0,0,-89.358,0.880,-31.439
EX0521-092111,23,C11,prep,1156,1156,0,1150969.093,0.686,-0.675,0.196,0.187,0,0,0,0,0,0,0,0,0,0.000,0,0,0.049,0.004,-0.040,-0.020,0.020,0.014,0.993,0.011,-0.002,0.004,-0.006,0.000,0.000,0.000,0.000,0,2,0,1,7,255,960,300,0,0,-89.358,0.880,-31.439
EX0521-092111,23,C11,prep,1156,1156,0,1150974.091,0.686,-0.675,0.196,0.187,0,0,0,0,0,0,0,0,0,0.000,0,0,0.060,0.004,-0.040,-0.020,-0.040,0.014,0.993,0.011,-0.002,0.004,-0.006,0.000,0.000,0.000,0.000,0,2,0,1,7,255,960,300,0,0,-89.358,0.880,-31.439
EX0521-092111,23,C11,prep,1167,1167,0,1150979.092,0.686,-0.675,0.196,0.187,0,0,0,0,0,0,0,0,0,0.000,0,0,0.060,0.004,0.040,-0.020,-0.040,0.013,0.993,0.012,-0.002,0.004,-0.002,0.000,0.000,0.000,0.000,0,2,0,1,7,255,960,300,0,0,-89.358,0.880,-31.439
EX0521-092111,23,C11,prep,1167,1167,0,1150984.092,0.686,-0.675,0.196,0.187,0,0,0,0,0,0,0,0,0,0.000,0,0,0.060,0.006,-0.040,-0.020,-0.040,0.014,0.994,0.012,-0.006,0.000,-0.002,0.000,0.000,0.000,0.000,0,2,0,1,7,255,960,300,0,0,-89.358,0.880,-31.439
EX0521-092111,23,C11,prep,1187,1187,0,1150989.091,0.686,-0.675,0.196,0.187,0,0,0,0,0,0,0,0,0,0.000,0,0,0.060,0.006,-0.040,-0.020,-0.040,0.014,0.993,0.012,-0.006,-0.002,-0.002,0.000,0.000,0.000,0.000,0,2,0,1,7,255,960,300,0,0,-89.358,0.880,-31.439
EX0521-092111,23,C11,prep,1187,1187,0,1150994.091,0.686,-0.675,0.196,0.187,0,0,0,0,0,0,0,0,0,0.000,0,0,0.104,0.006,0.100,-0.020,0.020,0.013,0.993,0.012,-0.006,0.000,-0.002,0.000,0.000,0.000,0.000,0,2,0,1,7,255,960,300,0,0,-89.358,0.880,-31.439
EX0521-092111,23,C11,prep,1187,1187,0,1150999.092,0.686,-0.675,0.196,0.187,0,0,0,0,0,0,0,0,0,0.000,0,0,0.060,0.000,0.040,-0.020,-0.040,0.014,0.993,0.011,0.000,0.000,-0.002,0.000,0.000,0.000,0.000,0,2,0,1,7,255,960,300,0,0,-89.358,0.880,-31.439
EX0521-092111,23,C11,prep,1187,1187,0,1151004.092,0.686,-0.675,0.196,0.187,0,0,0,0,0,0,0,0,0,0.000,0,0,0.049,0.002,-0.040,-0.020,0.020,0.015,0.993,0.010,0.002,0.000,-0.002,0.000,0.000,0.000,0.000,0,2,0,1,7,255,960,300,0,0,-89.358,0.880,-31.439
EX0521-092111,23,C11,prep,1199,1199,0,1151009.091,0.686,-0.675,0.196,0.187,0,0,0,0,0,0,0,0,0,0.000,0,0,0.049,0.002,0.020,-0.020,-0.040,0.014,0.993,0.011,0.002,0.000,-0.002,0.000,0.000,0.000,0.000,0,2,0,1,7,255,960,300,0,0,-89.358,0.880,-31.439
EX0521-092111,23,C11,prep,1199,1199,0,1151014.092,0.686,-0.675,0.196,0.187,0,0,0,0,0,0,0,0,0,0.000,0,0,0.085,0.006,0.080,-0.020,0.020,0.014,0.992,0.011,0.004,0.004,-0.006,0.000,0.000,0.000,0.000,0,2,0,1,7,255,960,300,0,0,-89.358,0.880,-31.439
EX0521-092111,23,C11,prep,1221,1221,0,1151019.092,0.686,-0.675,0.196,0.187,0,0,0,0,0,0,0,0,0,0.000,0,0,0.035,0.002,0.020,-0.020,0.020,0.014,0.994,0.011,0.002,0.000,-0.006,0.000,0.000,0.000,0.000,0,2,0,1,7,255,960,300,0,0,-89.358,0.880,-31.439
EX0521-092111,23,C11,prep,1221,1221,0,1151024.091,0.686,-0.675,0.196,0.187,0,0,0,0,0,0,0,0,0,0.000,0,0,0.035,0.006,0.020,-0.020,0.020,0.014,0.993,0.011,0.004,0.004,-0.006,0.000,0.000,0.000,0.000,0,2,0,1,7,255,960,300,0,0,-89.358,0.880,-31.439
EX0521-092111,23,C11,prep,1221,1221,0,1151029.091,0.686,-0.675,0.196,0.187,0,0,0,0,0,0,0,0,0,0.000,0,0,0.049,0.006,0.020,-0.020,-0.040,0.014,0.993,0.011,0.004,0.004,0.000,0.000,0.000,0.000,0.000,0,2,0,1,7,255,960,300,0,0,-89.358,0.880,-31.439
EX0521-092111,23,C11,prep,1221,1221,0,1151034.092,0.686,-0.675,0.196,0.187,0,0,0,0,0,0,0,0,0,0.000,0,0,0.049,0.006,0.020,-0.020,-0.040,0.015,0.993,0.012,0.004,0.004,-0.006,0.000,0.000,0.000,0.000,0,2,0,1,7,255,960,300,0,0,-89.358,0.880,-31.439
EX0521-092111,23,C11,prep,1222,1222,0,1151039.092,0.686,-0.675,0.196,0.187,0,0,0,0,0,0,0,0,0,0.000,0,0,0.060,0.004,-0.040,-0.020,-0.040,0.015,0.993,0.011,0.004,0.002,0.000,0.000,0.000,0.000,0.000,0,2,0,1,7,255,960,300,0,0,-89.358,0.880,-31.439
EX0521-092111,23,C11,prep,1222,1222,0,1151044.091,0.686,-0.675,0.196,0.187,0,0,0,0,0,0,0,0,0,0.000,0,0,0.035,0.008,0.020,-0.020,0.020,0.015,0.992,0.011,0.008,0.002,-0.006,0.000,0.000,0.000,0.000,0,2,0,1,7,255,960,300,0,0,-89.358,0.880,-31.439
EX0521-092111,23,C11,prep,1263,1263,0,1151049.092,0.686,-0.675,0.196,0.187,0,0,0,0,0,0,0,0,0,0.000,0,0,0.060,0.008,-0.040,-0.020,-0.040,0.015,0.993,0.011,0.008,0.002,0.000,0.000,0.000,0.000,0.000,0,2,0,1,7,255,960,300,0,0,-89.358,0.880,-31.439
EX0521-092111,23,C11,prep,1263,1263,0,1151054.092,0.686,-0.675,0.196,0.187,0,0,0,0,0,0,0,0,0,0.000,0,0,0.035,0.008,0.020,-0.020,0.020,0.013,0.994,0.011,0.008,0.002,0.000,0.000,0.000,0.000,0.000,0,2,0,1,7,255,960,300,0,0,-89.358,0.880,-31.439
EX0521-092111,23,C11,prep,1263,1263,0,1151059.092,0.686,-0.675,0.196,0.187,0,0,0,0,0,0,0,0,0,0.000,0,0,0.060,0.008,0.020,0.040,-0.040,0.014,0.993,0.012,-0.008,0.000,0.000,0.000,0.000,0.000,0.000,0,2,0,1,7,255,960,300,0,0,-89.358,0.880,-31.439
EX0521-092111,23,C11,prep,1263,1263,0,1151064.093,0.686,-0.675,0.196,0.187,0,0,0,0,0,0,0,0,0,0.000,0,0,0.035,0.010,0.020,-0.020,0.020,0.013,0.994,0.011,-0.008,0.006,0.004,0.000,0.000,0.000,0.000,0,2,0,1,7,255,960,300,0,0,-89.358,0.880,-31.439
EX0521-092111,23,C11,prep,1263,1263,0,1151069.092,0.686,-0.675,0.196,0.187,0,0,0,0,0,0,0,0,0,0.000,0,0,0.035,0.010,0.020,-0.020,0.020,0.014,0.993,0.011,-0.008,0.006,0.000,0.000,0.000,0.000,0.000,0,2,0,1,7,255,960,300,0,0,-89.358,0.880,-31.439
EX0521-092111,23,C11,prep,1263,1263,0,1151074.092,0.686,-0.675,0.196,0.187,0,0,0,0,0,0,0,0,0,0.000,0,0,0.049,0.008,0.020,-0.020,-0.040,0.014,0.994,0.012,-0.006,0.006,0.008,0.000,0.000,0.000,0.000,0,2,0,1,7,255,960,300,0,0,-89.358,0.880,-31.439
EX0521-092111,23,C11,prep,1296,1296,0,1151079.091,0.686,-0.675,0.196,0.187,0,0,0,0,0,0,0,0,0,0.000,0,0,0.035,0.002,0.020,-0.020,0.020,0.015,0.993,0.011,0.000,-0.002,0.000,0.000,0.000,0.000,0.000,0,2,0,1,7,255,960,300,0,0,-89.358,0.880,-31.439
EX0521-092111,23,C11,prep,1296,1296,0,1151084.092,0.686,-0.675,0.196,0.187,0,0,0,0,0,0,0,0,0,0.000,0,0,0.049,0.003,0.020,-0.020,-0.040,0.014,0.993,0.011,0.002,-0.002,-0.006,0.000,0.000,0.000,0.000,0,2,0,1,7,255,960,300,0,0,-89.358,0.880,-31.439
EX0521-092111,23,C11,prep,1298,1298,0,1151089.092,0.686,-0.675,0.196,0.187,0,0,0,0,0,0,0,0,0,0.000,0,0,0.049,0.004,0.020,-0.020,-0.040,0.014,0.992,0.011,0.004,0.000,-0.006,0.000,0.000,0.000,0.000,0,2,0,1,7,255,960,300,0,0,-89.358,0.880,-31.439
EX0521-092111,23,C11,prep,1298,1298,0,1151094.091,0.686,-0.675,0.196,0.187,0,0,0,0,0,0,0,0,0,0.000,0,0,0.098,0.006,-0.040,-0.080,-0.040,0.014,0.994,0.011,0.004,0.004,-0.006,0.000,0.000,0.000,0.000,0,2,0,1,7,255,960,300,0,0,-89.358,0.880,-31.439
EX0521-092111,23,C11,prep,1300,1300,0,1151099.092,0.686,-0.675,0.196,0.187,0,0,0,0,0,0,0,0,0,0.000,0,0,0.049,0.006,0.020,-0.020,-0.040,0.014,0.993,0.012,0.004,0.004,-0.006,0.000,0.000,0.000,0.000,0,2,0,1,7,255,960,300,0,0,-89.358,0.880,-31.439
EX0521-092111,23,C11,prep,1300,1300,0,1151104.092,0.686,-0.675,0.196,0.187,0,0,0,0,0,0,0,0,0,0.000,0,0,0.035,0.006,0.020,-0.020,0.020,0.014,0.993,0.012,-0.006,-0.002,-0.006,0.000,0.000,0.000,0.000,0,2,0,1,7,255,960,300,0,0,-89.358,0.880,-31.439
EX0521-092111,23,C11,prep,1300,1300,0,1151109.092,0.686,-0.675,0.196,0.187,0,0,0,0,0,0,0,0,0,0.000,0,0,0.060,0.006,-0.040,-0.020,-0.040,0.014,0.993,0.011,-0.006,-0.002,-0.006,0.000,0.000,0.000,0.000,0,2,0,1,7,255,960,300,0,0,-89.358,0.880,-31.439
EX0521-092111,23,C11,prep,1300,1300,0,1151114.091,0.686,-0.675,0.196,0.187,0,0,0,0,0,0,0,0,0,0.000,0,0,0.049,0.003,0.020,-0.020,-0.040,0.014,0.991,0.012,-0.002,-0.002,-0.006,0.000,0.000,0.000,0.000,0,2,0,1,7,255,960,300,0,0,-89.358,0.880,-31.439
EX0521-092111,23,C11,prep,1317,1317,0,1151119.092,0.686,-0.675,0.196,0.187,0,0,0,0,0,0,0,0,0,0.000,0,0,0.035,0.003,0.020,-0.020,0.020,0.015,0.994,0.011,0.002,-0.002,-0.006,0.000,0.000,0.000,0.000,0,2,0,1,7,255,960,300,0,0,-89.358,0.880,-31.439
EX0521-092111,23,C11,prep,1317,1317,0,1151124.092,0.686,-0.675,0.196,0.187,0,0,0,0,0,0,0,0,0,0.000,0,0,0.060,0.006,-0.040,-0.020,-0.040,0.015,0.995,0.011,0.006,-0.002,0.010,0.000,0.000,0.000,0.000,0,2,0,1,7,255,960,300,0,0,-89.358,0.880,-31.439
EX0521-092111,23,C11,prep,1317,1317,0,1151129.091,0.686,-0.675,0.196,0.187,0,0,0,0,0,0,0,0,0,0.000,0,0,0.049,0.006,0.020,-0.020,-0.040,0.014,0.993,0.012,0.006,-0.002,0.010,0.000,0.000,0.000,0.000,0,2,0,1,7,255,960,300,0,0,-89.358,0.880,-31.439
EX0521-092111,23,C11,prep,1317,1317,0,1151134.091,0.686,-0.675,0.196,0.187,0,0,0,0,0,0,0,0,0,0.000,0,0,0.085,0.004,0.080,-0.020,0.020,0.014,0.992,0.012,-0.002,-0.004,0.000,0.000,0.000,0.000,0.000,0,2,0,1,7,255,960,300,0,0,-89.358,0.880,-31.439
EX0521-092111,23,C11,prep,1327,1327,0,1151139.092,0.686,-0.675,0.196,0.187,0,0,0,0,0,0,0,0,0,0.000,0,0,0.049,0.004,0.020,-0.020,-0.040,0.014,0.993,0.012,-0.002,-0.004,0.000,0.000,0.000,0.000,0.000,0,2,0,1,7,255,960,300,0,0,-89.358,0.880,-31.439
EX0521-092111,23,C11,prep,1327,1327,0,1151144.092,0.686,-0.675,0.196,0.187,0,0,0,0,0,0,0,0,0,0.000,0,0,0.060,0.004,0.020,0.040,-0.040,0.014,0.993,0.012,-0.002,-0.004,0.000,0.000,0.000,0.000,0.000,0,2,0,1,7,255,960,300,0,0,-89.358,0.880,-31.439
EX0521-092111,23,C11,prep,1359,1359,0,1151149.091,0.686,-0.675,0.196,0.187,0,0,0,0,0,0,0,0,0,0.000,0,0,0.049,0.006,-0.040,-0.020,0.020,0.015,0.991,0.012,-0.002,-0.006,0.000,0.000,0.000,0.000,0.000,0,2,0,1,7,255,960,300,0,0,-89.358,0.880,-31.439
EX0521-092111,23,C11,prep,1359,1359,0,1151154.092,0.686,-0.675,0.196,0.187,0,0,0,0,0,0,0,0,0,0.000,0,0,0.060,0.007,0.020,0.040,-0.040,0.013,0.994,0.012,-0.004,-0.006,0.000,0.000,0.000,0.000,0.000,0,2,0,1,7,255,960,300,0,0,-89.358,0.880,-31.439
EX0521-092111,23,C11,prep,1359,1359,0,1151159.094,0.686,-0.675,0.196,0.187,0,0,0,0,0,0,0,0,0,0.000,0,0,0.060,0.004,-0.040,-0.020,-0.040,0.014,0.994,0.011,0.004,0.002,0.004,0.000,0.000,0.000,0.000,0,2,0,1,7,255,960,300,0,0,-89.358,0.880,-31.439
EX0521-092111,23,C11,prep,1359,1359,0,1151164.091,0.686,-0.675,0.196,0.187,0,0,0,0,0,0,0,0,0,0.000,0,0,0.049,0.006,0.020,-0.020,-0.040,0.014,0.993,0.012,-0.006,0.002,0.004,0.000,0.000,0.000,0.000,0,2,0,1,7,255,960,300,0,0,-89.358,0.880,-31.439
EX0521-092111,23,C11,prep,1359,1359,0,1151169.091,0.686,-0.675,0.196,0.187,0,0,0,0,0,0,0,0,0,0.000,0,0,0.049,0.003,-0.040,-0.020,0.020,0.015,0.993,0.012,0.002,-0.002,0.000,0.000,0.000,0.000,0.000,0,2,0,1,7,255,960,300,0,0,-89.358,0.880,-31.439
EX0521-092111,23,C11,prep,1359,1359,0,1151174.092,0.686,-0.675,0.196,0.187,0,0,0,0,0,0,0,0,0,0.000,0,0,0.035,0.003,0.020,-0.020,0.020,0.014,0.992,0.011,-0.002,-0.002,-0.006,0.000,0.000,0.000,0.000,0,2,0,1,7,255,960,300,0,0,-89.358,0.880,-31.439
EX0521-092111,23,C11,prep,1387,1387,0,1151179.092,0.686,-0.675,0.196,0.187,0,0,0,0,0,0,0,0,0,0.000,0,0,0.060,0.004,0.020,0.040,-0.040,0.014,0.998,0.012,-0.002,-0.004,0.000,0.000,0.000,0.000,0.000,0,2,0,1,7,255,960,300,0,0,-89.358,0.880,-31.439
EX0521-092111,23,C11,prep,1387,1387,0,1151184.091,0.686,-0.675,0.196,0.187,0,0,0,0,0,0,0,0,0,0.000,0,0,0.049,0.002,-0.040,-0.020,0.020,0.014,0.993,0.011,-0.002,0.000,-0.006,0.000,0.000,0.000,0.000,0,2,0,1,7,255,960,300,0,0,-89.358,0.880,-31.439
EX0521-092111,23,C11,prep,1387,1387,0,1151189.092,0.686,-0.675,0.196,0.187,0,0,0,0,0,0,0,0,0,0.000,0,0,0.035,0.006,0.020,-0.020,0.020,0.014,0.993,0.012,-0.004,-0.004,-0.006,0.000,0.000,0.000,0.000,0,2,0,1,7,255,960,300,0,0,-89.358,0.880,-31.439
EX0521-092111,23,C11,prep,1387,1387,0,1151194.092,0.686,-0.675,0.196,0.187,0,0,0,0,0,0,0,0,0,0.000,0,0,0.049,0.004,-0.040,-0.020,0.020,0.014,0.991,0.012,0.000,-0.004,-0.006,0.000,0.000,0.000,0.000,0,2,0,1,7,255,960,300,0,0,-89.358,0.880,-31.439
EX0521-092111,23,C11,prep,1387,1387,0,1151199.092,0.686,-0.675,0.196,0.187,0,0,0,0,0,0,0,0,0,0.000,0,0,0.049,0.004,0.020,-0.020,-0.040,0.014,0.994,0.012,-0.002,-0.004,-0.006,0.000,0.000,0.000,0.000,0,2,0,1,7,255,960,300,0,0,-89.358,0.880,-31.439
EX0521-092111,23,C11,prep,1387,1387,0,1151204.091,0.686,-0.675,0.196,0.187,0,0,0,0,0,0,0,0,0,0.000,0,0,0.049,0.004,-0.040,-0.020,0.020,0.014,0.992,0.012,-0.002,-0.004,-0.010,0.000,0.000,0.000,0.000,0,2,0,1,7,255,960,300,0,0,-89.358,0.880,-31.439
EX0521-092111,23,C11,prep,1392,1392,0,1151209.092,0.686,-0.675,0.196,0.187,0,0,0,0,0,0,0,0,0,0.000,0,0,0.110,0.003,0.100,-0.020,-0.040,0.015,0.992,0.011,-0.002,-0.002,-0.010,0.000,0.000,0.000,0.000,0,2,0,1,7,255,960,300,0,0,-89.358,0.880,-31.439
EX0521-092111,23,C11,prep,1392,1392,0,1151214.092,0.686,-0.675,0.196,0.187,0,0,0,0,0,0,0,0,0,0.000,0,0,0.060,0.006,0.020,0.040,-0.040,0.015,0.997,0.011,0.006,0.000,-0.010,0.000,0.000,0.000,0.000,0,2,0,1,7,255,960,300,0,0,-89.358,0.880,-31.439
EX0521-092111,23,C11,prep,1420,1420,0,1151219.091,0.686,-0.675,0.196,0.187,0,0,0,0,0,0,0,0,0,0.000,0,0,0.085,0.006,0.020,-0.080,0.020,0.014,0.991,0.011,0.006,0.000,-0.014,0.000,0.000,0.000,0.000,0,2,0,1,7,255,960,300,0,0,-89.358,0.880,-31.439
EX0521-092111,23,C11,prep,1420,1420,0,1151224.091,0.686,-0.675,0.196,0.187,0,0,0,0,0,0,0,0,0,0.000,0,0,0.069,0.008,-0.040,0.040,-0.040,0.015,0.992,0.011,0.008,0.000,-0.010,0.000,0.000,0.000,0.000,0,2,0,1,7,255,960,300,0,0,-89.358,0.880,-31.439
EX0521-092111,23,C11,prep,1420,1420,0,1151229.092,0.686,-0.675,0.196,0.187,0,0,0,0,0,0,0,0,0,0.000,0,0,0.049,0.006,-0.040,-0.020,0.020,0.014,0.994,0.010,0.006,0.000,-0.010,0.000,0.000,0.000,0.000,0,2,0,1,7,255,960,300,0,0,-89.358,0.880,-31.439
EX0521-092111,23,C11,prep,1420,1420,0,1151234.091,0.686,-0.675,0.196,0.187,0,0,0,0,0,0,0,0,0,0.000,0,0,0.049,0.010,0.020,0.040,0.020,0.015,0.992,0.011,0.010,0.000,-0.010,0.000,0.000,0.000,0.000,0,2,0,1,7,255,960,300,0,0,-89.358,0.880,-31.439
EX0521-092111,23,C11,prep,1423,1423,0,1151239.091,0.686,-0.675,0.196,0.187,0,0,0,0,0,0,0,0,0,0.000,0,0,0.035,0.006,0.020,-0.020,0.020,0.015,0.995,0.012,0.006,0.000,0.004,0.000,0.000,0.000,0.000,0,2,0,1,7,255,960,300,0,0,-89.358,0.880,-31.439
EX0521-092111,23,C11,prep,1423,1423,0,1151244.092,0.686,-0.675,0.196,0.187,0,0,0,0,0,0,0,0,0,0.000,0,0,0.049,0.009,0.020,-0.020,-0.040,0.015,0.996,0.011,0.008,-0.004,0.014,0.000,0.000,0.000,0.000,0,2,0,1,7,255,960,300,0,0,-89.358,0.880,-31.439
EX0521-092111,23,C11,prep,1457,1457,0,1151249.092,0.686,-0.675,0.196,0.187,0,0,0,0,0,0,0,0,0,0.000,0,0,0.060,0.010,-0.040,-0.020,-0.040,0.015,0.992,0.012,0.006,-0.008,0.014,0.000,0.000,0.000,0.000,0,2,0,1,7,255,960,300,0,0,-89.358,0.880,-31.439
EX0521-092111,23,C11,prep,1457,1457,0,1151254.091,0.686,-0.675,0.196,0.187,0,0,0,0,0,0,0,0,0,0.000,0,0,0.060,0.007,0.020,0.040,-0.040,0.014,0.989,0.012,0.006,-0.004,-0.010,0.000,0.000,0.000,0.000,0,2,0,1,7,255,960,300,0,0,-89.358,0.880,-31.439
EX0521-092111,23,C11,prep,1457,1457,0,1151259.094,0.686,-0.675,0.196,0.187,0,0,0,0,0,0,0,0,0,0.000,0,0,0.092,0.009,0.080,-0.020,-0.040,0.014,0.992,0.012,-0.004,-0.008,-0.014,0.000,0.000,0.000,0.000,0,2,0,1,7,255,960,300,0,0,-89.358,0.880,-31.439
EX0521-092111,23,C11,prep,1457,1457,0,1151264.092,0.686,-0.675,0.196,0.187,0,0,0,0,0,0,0,0,0,0.000,0,0,0.110,0.006,-0.040,-0.020,-0.100,0.015,0.995,0.011,-0.004,-0.004,-0.014,0.000,0.000,0.000,0.000,0,2,0,1,7,255,960,300,0,0,-89.358,0.880,-31.439
EX0521-092111,23,C11,prep,1457,1457,0,1151269.091,0.686,-0.675,0.196,0.187,0,0,0,0,0,0,0,0,0,0.000,0,0,0.115,0.006,-0.100,0.040,-0.040,0.014,0.996,0.011,-0.004,-0.004,0.020,0.000,0.000,0.000,0.000,0,2,0,1,7,255,960,300,0,0,-89.358,0.880,-31.439
EX0521-092111,23,C11,prep,1457,1457,0,1151274.091,0.686,-0.675,0.196,0.187,0,0,0,0,0,0,0,0,0,0.000,0,0,0.049,0.004,0.020,-0.020,-0.040,0.013,0.990,0.012,-0.004,-0.002,0.020,0.000,0.000,0.000,0.000,0,2,0,1,7,255,960,300,0,0,-89.358,0.880,-31.439
EX0521-092111,23,C11,prep,1479,1479,0,1151279.092,0.686,-0.675,0.196,0.187,0,0,0,0,0,0,0,0,0,0.000,0,0,0.085,0.010,0.080,-0.020,0.020,0.013,0.993,0.012,-0.010,0.002,-0.004,0.000,0.000,0.000,0.000,0,2,0,1,7,255,960,300,0,0,-89.358,0.880,-31.439
EX0521-092111,23,C11,prep,1479,1479,0,1151284.092,0.686,-0.675,0.196,0.187,0,0,0,0,0,0,0,0,0,0.000,0,0,0.049,0.010,0.020,-0.020,-0.040,0.014,0.991,0.011,-0.010,0.002,-0.018,0.000,0.000,0.000,0.000,0,2,0,1,7,255,960,300,0,0,-89.358,0.880,-31.439
EX0521-092111,23,C11,prep,1479,1479,0,1151289.091,0.686,-0.675,0.196,0.187,0,0,0,0,0,0,0,0,0,0.000,0,0,0.085,0.003,0.020,-0.080,0.020,0.014,0.994,0.011,0.002,0.002,-0.004,0.000,0.000,0.000,0.000,0,2,0,1,7,255,960,300,0,0,-89.358,0.880,-31.439
EX0521-092111,23,C11,prep,1479,1479,0,1151294.091,0.686,-0.675,0.196,0.187,0,0,0,0,0,0,0,0,0,0.000,0,0,0.049,0.003,-0.040,-0.020,0.020,0.014,0.993,0.012,0.002,0.002,0.000,0.000,0.000,0.000,0.000,0,2,0,1,7,255,960,300,0,0,-89.358,0.880,-31.439
EX0521-092111,23,C11,prep,1487,1487,0,1151299.092,0.686,-0.675,0.196,0.187,0,0,0,0,0,0,0,0,0,0.000,0,0,0.049,0.004,0.020,-0.020,-0.040,0.014,0.993,0.013,-0.002,-0.004,0.000,0.000,0.000,0.000,0.000,0,2,0,1,7,255,960,300,0,0,-89.358,0.880,-31.439
EX0521-092111,23,C11,prep,1487,1487,0,1151304.092,0.686,-0.675,0.196,0.187,0,0,0,0,0,0,0,0,0,0.000,0,0,0.060,0.011,-0.040,-0.020,-0.040,0.013,0.994,0.012,-0.010,-0.004,0.000,0.000,0.000,0.000,0.000,0,2,0,1,7,255,960,300,0,0,-89.358,0.880,-31.439
EX0521-092111,23,C11,prep,1503,1503,0,1151309.092,0.686,-0.675,0.196,0.187,0,0,0,0,0,0,0,0,0,0.000,0,0,0.035,0.010,0.020,-0.020,0.020,0.015,0.993,0.011,-0.010,0.000,0.000,0.000,0.000,0.000,0.000,0,2,0,1,7,255,960,300,0,0,-89.358,0.880,-31.439
EX0521-092111,23,C11,prep,1503,1503,0,1151314.092,0.686,-0.675,0.196,0.187,0,0,0,0,0,0,0,0,0,0.000,0,0,0.049,0.004,0.020,-0.020,-0.040,0.014,0.993,0.012,-0.004,0.000,0.000,0.000,0.000,0.000,0.000,0,2,0,1,7,255,960,300,0,0,-89.358,0.880,-31.439
EX0521-092111,23,C11,prep,1503,1503,0,1151319.092,0.686,-0.675,0.196,0.187,0,0,0,0,0,0,0,0,0,0.000,0,0,0.049,0.004,0.020,-0.020,-0.040,0.013,0.992,0.011,-0.004,0.000,0.000,0.000,0.000,0.000,0.000,0,2,0,1,7,255,960,300,0,0,-89.358,0.880,-31.439
EX0521-092111,23,C11,prep,1503,1503,0,1151324.091,0.686,-0.675,0.196,0.187,0,0,0,0,0,0,0,0,0,0.000,0,0,0.092,0.007,0.020,-0.080,-0.040,0.014,0.994,0.012,-0.004,-0.006,0.000,0.000,0.000,0.000,0.000,0,2,0,1,7,255,960,300,0,0,-89.358,0.880,-31.439
EX0521-092111,23,C11,prep,1519,1519,0,1151329.091,0.686,-0.675,0.196,0.187,0,0,0,0,0,0,0,0,0,0.000,0,0,0.060,0.007,-0.040,-0.020,-0.040,0.013,0.994,0.010,-0.004,0.006,0.004,0.000,0.000,0.000,0.000,0,2,0,1,7,255,960,300,0,0,-89.358,0.880,-31.439
EX0521-092111,23,C11,prep,1519,1519,0,1151334.092,0.686,-0.675,0.196,0.187,0,0,0,0,0,0,0,0,0,0.000,0,0,0.049,0.004,0.020,-0.020,-0.040,0.014,0.992,0.012,-0.004,0.000,0.004,0.000,0.000,0.000,0.000,0,2,0,1,7,255,960,300,0,0,-89.358,0.880,-31.439
EX0521-092111,23,C11,prep,1519,1519,0,1151339.092,0.686,-0.675,0.196,0.187,0,0,0,0,0,0,0,0,0,0.000,0,0,0.049,0.003,0.020,-0.020,-0.040,0.014,0.994,0.011,-0.002,0.002,0.004,0.000,0.000,0.000,0.000,0,2,0,1,7,255,960,300,0,0,-89.358,0.880,-31.439
EX0521-092111,23,C11,prep,1519,1519,0,1151344.091,0.686,-0.675,0.196,0.187,0,0,0,0,0,0,0,0,0,0.000,0,0,0.060,0.002,-0.040,-0.020,-0.040,0.015,0.993,0.011,0.002,0.000,-0.004,0.000,0.000,0.000,0.000,0,2,0,1,7,255,960,300,0,0,-89.358,0.880,-31.439
EX0521-092111,23,C11,prep,1554,1554,0,1151349.092,0.686,-0.675,0.196,0.187,0,0,0,0,0,0,0,0,0,0.000,0,0,0.049,0.008,0.020,-0.020,-0.040,0.015,0.994,0.011,0.008,0.002,0.006,0.000,0.000,0.000,0.000,0,2,0,1,7,255,960,300,0,0,-89.358,0.880,-31.439
EX0521-092111,23,C11,prep,1554,1554,0,1151354.092,0.686,-0.675,0.196,0.187,0,0,0,0,0,0,0,0,0,0.000,0,0,0.049,0.008,0.020,0.040,0.020,0.014,0.993,0.011,0.008,0.002,-0.004,0.000,0.000,0.000,0.000,0,2,0,1,7,255,960,300,0,0,-89.358,0.880,-31.439
EX0521-092111,23,C11,prep,1555,1555,0,1151359.095,0.686,-0.675,0.196,0.187,0,0,0,0,0,0,0,0,0,0.000,0,0,0.049,0.003,0.020,-0.020,-0.040,0.014,0.994,0.012,-0.002,0.002,0.006,0.000,0.000,0.000,0.000,0,2,0,1,7,255,960,300,0,0,-89.358,0.880,-31.439
EX0521-092111,23,C11,prep,1555,1555,0,1151364.091,0.686,-0.675,0.196,0.187,0,0,0,0,0,0,0,0,0,0.000,0,0,0.049,0.004,0.020,-0.020,-0.040,0.015,0.993,0.010,-0.002,0.004,0.000,0.000,0.000,0.000,0.000,0,2,0,1,7,255,960,300,0,0,-89.358,0.880,-31.439
EX0521-092111,23,C11,prep,1556,1556,0,1151369.092,0.686,-0.675,0.196,0.187,0,0,0,0,0,0,0,0,0,0.000,0,0,0.049,0.007,0.020,-0.020,-0.040,0.014,0.993,0.010,0.006,0.004,0.000,0.000,0.000,0.000,0.000,0,2,0,1,7,255,960,300,0,0,-89.358,0.880,-31.439
EX0521-092111,23,C11,prep,1556,1556,0,1151374.092,0.686,-0.675,0.196,0.187,0,0,0,0,0,0,0,0,0,0.000,0,0,0.069,0.007,-0.040,0.040,-0.040,0.014,0.993,0.012,0.006,0.004,-0.004,0.000,0.000,0.000,0.000,0,2,0,1,7,255,960,300,0,0,-89.358,0.880,-31.439
EX0521-092111,23,C11,prep,1599,1599,0,1151379.091,0.686,-0.675,0.196,0.187,0,0,0,0,0,0,0,0,0,0.000,0,0,0.049,0.006,0.020,-0.020,-0.040,0.015,0.993,0.011,0.006,0.002,-0.004,0.000,0.000,0.000,0.000,0,2,0,1,7,255,960,300,0,0,-89.358,0.880,-31.439
EX0521-092111,23,C11,prep,1599,1599,0,1151384.092,0.686,-0.675,0.196,0.187,0,0,0,0,0,0,0,0,0,0.000,0,0,0.049,0.002,-0.040,-0.020,0.020,0.014,0.994,0.011,0.000,0.002,-0.004,0.000,0.000,0.000,0.000,0,2,0,1,7,255,960,300,0,0,-89.358,0.880,-31.439
EX0521-092111,23,C11,prep,1599,1599,0,1151389.092,0.686,-0.675,0.196,0.187,0,0,0,0,0,0,0,0,0,0.000,0,0,0.060,0.008,0.020,0.040,-0.040,0.015,0.994,0.010,0.008,0.002,0.010,0.000,0.000,0.000,0.000,0,2,0,1,7,255,960,300,0,0,-89.358,0.880,-31.439
EX0521-092111,23,C11,prep,1599,1599,0,1151394.091,0.686,-0.675,0.196,0.187,0,0,0,0,0,0,0,0,0,0.000,0,0,0.035,0.010,0.020,-0.020,0.020,0.015,0.992,0.011,0.010,0.002,0.010,0.000,0.000,0.000,0.000,0,2,0,1,7,255,960,300,0,0,-89.358,0.880,-31.439
EX0521-092111,23,C11,prep,1599,1599,0,1151399.092,0.686,-0.675,0.196,0.187,0,0,0,0,0,0,0,0,0,0.000,0,0,0.049,0.013,0.020,-0.020,-0.040,0.014,0.992,0.010,0.010,0.008,-0.010,0.000,0.000,0.000,0.000,0,2,0,1,7,255,960,300,0,0,-89.358,0.880,-31.439
EX0521-092111,23,C11,prep,1599,1599,0,1151404.092,0.686,-0.675,0.196,0.187,0,0,0,0,0,0,0,0,0,0.000,0,0,0.049,0.010,0.020,-0.020,-0.040,0.015,0.993,0.011,0.010,0.000,-0.010,0.000,0.000,0.000,0.000,0,2,0,1,7,255,960,300,0,0,-89.358,0.880,-31.439
EX0521-092111,23,C11,prep,1599,1599,0,1151409.092,0.686,-0.675,0.196,0.187,0,0,0,0,0,0,0,0,0,0.000,0,0,0.049,0.003,0.020,-0.020,-0.040,0.013,0.993,0.012,0.002,0.002,-0.004,0.000,0.000,0.000,0.000,0,2,0,1,7,255,960,300,0,0,-89.358,0.880,-31.439
EX0521-092111,23,C11,prep,1599,1599,0,1151414.091,0.686,-0.675,0.196,0.187,0,0,0,0,0,0,0,0,0,0.000,0,0,0.049,0.006,-0.040,-0.020,0.020,0.014,0.993,0.012,-0.006,0.000,-0.004,0.000,0.000,0.000,0.000,0,2,0,1,7,255,960,300,0,0,-89.358,0.880,-31.439
EX0521-092111,23,C11,prep,1620,1620,0,1151419.091,0.686,-0.675,0.196,0.187,0,0,0,0,0,0,0,0,0,0.000,0,0,0.060,0.006,-0.040,-0.020,-0.040,0.015,0.993,0.011,-0.006,0.000,-0.004,0.000,0.000,0.000,0.000,0,2,0,1,7,255,960,300,0,0,-89.358,0.880,-31.439
EX0521-092111,23,C11,prep,1620,1620,0,1151424.092,0.686,-0.675,0.196,0.187,0,0,0,0,0,0,0,0,0,0.000,0,0,0.049,0.000,0.020,-0.020,-0.040,0.014,0.993,0.011,0.000,0.000,0.000,0.000,0.000,0.000,0.000,0,2,0,1,7,255,960,300,0,0,-89.358,0.880,-31.439
EX0521-092111,23,C11,prep,1621,1621,0,1151429.092,0.686,-0.675,0.196,0.187,0,0,0,0,0,0,0,0,0,0.000,0,0,0.060,0.004,-0.040,-0.020,-0.040,0.014,0.994,0.012,0.000,-0.004,0.000,0.000,0.000,0.000,0.000,0,2,0,1,7,255,960,300,0,0,-89.358,0.880,-31.439
EX0521-092111,23,C11,prep,1621,1621,0,1151434.091,0.686,-0.675,0.196,0.187,0,0,0,0,0,0,0,0,0,0.000,0,0,0.049,0.004,0.020,-0.020,-0.040,0.014,0.990,0.012,-0.002,-0.004,0.000,0.000,0.000,0.000,0.000,0,2,0,1,7,255,960,300,0,0,-89.358,0.880,-31.439
EX0521-092111,23,C11,prep,1631,1631,0,1151439.092,0.686,-0.675,0.196,0.187,0,0,0,0,0,0,0,0,0,0.000,0,0,0.130,0.004,0.080,-0.020,-0.100,0.014,0.999,0.011,-0.002,-0.004,0.006,0.000,0.000,0.000,0.000,0,2,0,1,7,255,960,300,0,0,-89.358,0.880,-31.439
EX0521-092111,23,C11,prep,1631,1631,0,1151444.092,0.686,-0.675,0.196,0.187,0,0,0,0,0,0,0,0,0,0.000,0,0,0.049,0.006,0.020,-0.020,-0.040,0.014,0.997,0.011,0.002,0.006,0.034,0.000,0.000,0.000,0.000,0,2,0,1,7,255,960,300,0,0,-89.358,0.880,-31.439
EX0521-092111,23,C11,prep,1663,1663,0,1151449.091,0.686,-0.675,0.196,0.187,0,0,0,0,0,0,0,0,0,0.000,0,0,0.060,0.006,-0.040,-0.020,-0.040,0.014,0.993,0.012,0.002,0.006,0.034,0.000,0.000,0.000,0.000,0,2,0,1,7,255,960,300,0,0,-89.358,0.880,-31.439
EX0521-092111,23,C11,prep,1663,1663,0,1151454.091,0.686,-0.675,0.196,0.187,0,0,0,0,0,0,0,0,0,0.000,0,0,0.092,0.004,0.020,-0.080,-0.040,0.016,0.988,0.013,0.002,-0.004,-0.004,0.000,0.000,0.000,0.000,0,2,0,1,7,255,960,300,0,0,-89.358,0.880,-31.439
EX0521-092111,23,C11,prep,1663,1663,0,1151459.094,0.686,-0.675,0.196,0.187,0,0,0,0,0,0,0,0,0,0.000,0,0,0.049,0.008,0.020,-0.020,-0.040,0.015,0.997,0.012,0.000,-0.008,-0.004,0.000,0.000,0.000,0.000,0,2,0,1,7,255,960,300,0,0,-89.358,0.880,-31.439
EX0521-092111,23,C11,prep,1663,1663,0,1151464.091,0.686,-0.675,0.196,0.187,0,0,0,0,0,0,0,0,0,0.000,0,0,0.092,0.009,-0.040,-0.080,0.020,0.014,0.995,0.011,0.004,-0.008,0.018,0.000,0.000,0.000,0.000,0,2,0,1,7,255,960,300,0,0,-89.358,0.880,-31.439
EX0521-092111,23,C11,prep,1686,1686,0,1151469.091,0.686,-0.675,0.196,0.187,0,0,0,0,0,0,0,0,0,0.000,0,0,0.049,0.002,0.020,-0.020,-0.040,0.014,0.989,0.011,0.000,0.002,0.018,0.000,0.000,0.000,0.000,0,2,0,1,7,255,960,300,0,0,-89.358,0.880,-31.439
EX0521-092111,23,C11,prep,1686,1686,0,1151474.092,0.686,-0.675,0.196,0.187,0,0,0,0,0,0,0,0,0,0.000,0,0,0.049,0.002,0.020,-0.020,-0.040,0.014,0.996,0.011,0.000,0.002,0.018,0.000,0.000,0.000,0.000,0,2,0,1,7,255,960,300,0,0,-89.358,0.880,-31.439
EX0521-092111,23,C11,prep,1686,1686,0,1151479.092,0.686,-0.675,0.196,0.187,0,0,0,0,0,0,0,0,0,0.000,0,0,0.035,0.004,0.020,-0.020,0.020,0.014,0.991,0.013,-0.004,0.002,-0.024,0.000,0.000,0.000,0.000,0,2,0,1,7,255,960,300,0,0,-89.358,0.880,-31.439
EX0521-092111,23,C11,prep,1686,1686,0,1151484.091,0.686,-0.675,0.196,0.187,0,0,0,0,0,0,0,0,0,0.000,0,0,0.049,0.002,0.020,-0.020,-0.040,0.016,0.993,0.010,0.000,0.002,0.000,0.000,0.000,0.000,0.000,0,2,0,1,7,255,960,300,0,0,-89.358,0.880,-31.439
EX0521-092111,23,C11,prep,1686,1686,0,1151489.091,0.686,-0.675,0.196,0.187,0,0,0,0,0,0,0,0,0,0.000,0,0,0.104,0.003,0.100,-0.020,0.020,0.014,0.994,0.011,-0.002,0.002,0.000,0.000,0.000,0.000,0.000,0,2,0,1,7,255,960,300,0,0,-89.358,0.880,-31.439
EX0521-092111,23,C11,prep,1686,1686,0,1151494.092,0.686,-0.675,0.196,0.187,0,0,0,0,0,0,0,0,0,0.000,0,0,0.049,0.006,0.020,-0.020,-0.040,0.014,0.992,0.011,0.004,0.004,0.000,0.000,0.000,0.000,0.000,0,2,0,1,7,255,960,300,0,0,-89.358,0.880,-31.439
EX0521-092111,23,C11,prep,1686,1686,0,1151499.092,0.686,-0.675,0.196,0.187,0,0,0,0,0,0,0,0,0,0.000,0,0,0.049,0.007,0.020,-0.020,-0.040,0.015,0.994,0.010,0.004,0.006,0.010,0.000,0.000,0.000,0.000,0,2,0,1,7,255,960,300,0,0,-89.358,0.880,-31.439
EX0521-092111,23,C11,prep,1686,1686,0,1151504.091,0.686,-0.675,0.196,0.187,0,0,0,0,0,0,0,0,0,0.000,0,0,0.035,0.009,0.020,-0.020,0.020,0.015,0.992,0.011,0.008,0.004,-0.014,0.000,0.000,0.000,0.000,0,2,0,1,7,255,960,300,0,0,-89.358,0.880,-31.439
EX0521-092111,23,C11,prep,1695,1695,0,1151509.092,0.686,-0.675,0.196,0.187,0,0,0,0,0,0,0,0,0,0.000,0,0,0.035,0.009,0.020,-0.020,0.020,0.014,0.995,0.011,0.008,0.004,0.010,0.000,0.000,0.000,0.000,0,2,0,1,7,255,960,300,0,0,-89.358,0.880,-31.439
EX0521-092111,23,C11,prep,1695,1695,0,1151514.092,0.686,-0.675,0.196,0.187,0,0,0,0,0,0,0,0,0,0.000,0,0,0.049,0.003,-0.040,-0.020,0.020,0.015,0.992,0.012,0.002,0.002,-0.014,0.000,0.000,0.000,0.000,0,2,0,1,7,255,960,300,0,0,-89.358,0.880,-31.439
EX0521-092111,23,C11,prep,1711,1711,0,1151519.091,0.686,-0.675,0.196,0.187,0,0,0,0,0,0,0,0,0,0.000,0,0,0.049,0.006,0.020,-0.020,-0.040,0.013,0.991,0.011,-0.004,0.004,-0.014,0.000,0.000,0.000,0.000,0,2,0,1,7,255,960,300,0,0,-89.358,0.880,-31.439
EX0521-092111,23,C11,prep,1711,1711,0,1151524.091,0.686,-0.675,0.196,0.187,0,0,0,0,0,0,0,0,0,0.000,0,0,0.049,0.003,0.020,-0.020,-0.040,0.015,0.993,0.011,0.002,0.002,-0.014,0.000,0.000,0.000,0.000,0,2,0,1,7,255,960,300,0,0,-89.358,0.880,-31.439
EX0521-092111,23,C11,prep,1727,1727,0,1151529.092,0.686,-0.675,0.196,0.187,0,0,0,0,0,0,0,0,0,0.000,0,0,0.049,0.006,-0.040,-0.020,0.020,0.014,0.995,0.012,-0.006,0.002,0.000,0.000,0.000,0.000,0.000,0,2,0,1,7,255,960,300,0,0,-89.358,0.880,-31.439
EX0521-092111,23,C11,prep,1727,1727,0,1151534.092,0.686,-0.675,0.196,0.187,0,0,0,0,0,0,0,0,0,0.000,0,0,0.049,0.004,0.020,-0.020,-0.040,0.014,0.995,0.012,-0.004,0.000,0.014,0.000,0.000,0.000,0.000,0,2,0,1,7,255,960,300,0,0,-89.358,0.880,-31.439
EX0521-092111,23,C11,prep,1727,1727,0,1151539.091,0.686,-0.675,0.196,0.187,0,0,0,0,0,0,0,0,0,0.000,0,0,0.092,0.004,-0.040,-0.020,0.080,0.015,0.992,0.011,-0.004,0.000,0.014,0.000,0.000,0.000,0.000,0,2,0,1,7,255,960,300,0,0,-89.358,0.880,-31.439
EX0521-092111,23,C11,prep,1727,1727,0,1151544.092,0.686,-0.675,0.196,0.187,0,0,0,0,0,0,0,0,0,0.000,0,0,0.049,0.000,0.020,-0.020,-0.040,0.014,0.989,0.011,0.000,0.000,-0.014,0.000,0.000,0.000,0.000,0,2,0,1,7,255,960,300,0,0,-89.358,0.880,-31.439
EX0521-092111,23,C11,prep,1754,1754,0,1151549.092,0.686,-0.675,0.196,0.187,0,0,0,0,0,0,0,0,0,0.000,0,0,0.035,0.000,0.020,-0.020,0.020,0.014,0.992,0.012,0.000,0.000,-0.014,0.000,0.000,0.000,0.000,0,2,0,1,7,255,960,300,0,0,-89.358,0.880,-31.439
EX0521-092111,23,C11,prep,1754,1754,0,1151554.091,0.686,-0.675,0.196,0.187,0,0,0,0,0,0,0,0,0,0.000,0,0,0.049,0.002,0.020,-0.020,-0.040,0.016,0.996,0.011,0.000,-0.002,-0.008,0.000,0.000,0.000,0.000,0,2,0,1,7,255,960,300,0,0,-89.358,0.880,-31.439
EX0521-092111,23,C11,prep,1755,1755,0,1151559.095,0.686,-0.675,0.196,0.187,0,0,0,0,0,0,0,0,0,0.000,0,0,0.092,0.004,0.020,0.040,0.080,0.014,0.994,0.013,-0.002,-0.004,0.006,0.000,0.000,0.000,0.000,0,2,0,1,7,255,960,300,0,0,-89.358,0.880,-31.439
EX0521-092111,23,C11,prep,1755,1755,0,1151564.092,0.686,-0.675,0.196,0.187,0,0,0,0,0,0,0,0,0,0.000,0,0,0.049,0.004,-0.040,-0.020,0.020,0.014,0.991,0.011,0.004,-0.002,0.006,0.000,0.000,0.000,0.000,0,2,0,1,7,255,960,300,0,0,-89.358,0.880,-31.439
EX0521-092111,23,C11,prep,1756,1756,0,1151569.092,0.686,-0.675,0.196,0.187,0,0,0,0,0,0,0,0,0,0.000,0,0,0.035,0.002,0.020,-0.020,0.020,0.014,0.996,0.011,0.000,0.002,0.006,0.000,0.000,0.000,0.000,0,2,0,1,7,255,960,300,0,0,-89.358,0.880,-31.439
EX0521-092111,23,C11,prep,1756,1756,0,1151574.091,0.686,-0.675,0.196,0.187,0,0,0,0,0,0,0,0,0,0.000,0,0,0.049,0.004,-0.040,-0.020,0.020,0.015,0.993,0.011,0.004,0.002,-0.004,0.000,0.000,0.000,0.000,0,2,0,1,7,255,960,300,0,0,-89.358,0.880,-31.439
EX0521-092111,23,C11,prep,1786,1786,0,1151579.092,0.686,-0.675,0.196,0.187,0,0,0,0,0,0,0,0,0,0.000,0,0,0.049,0.002,0.020,-0.020,-0.040,0.014,0.994,0.012,0.000,-0.002,0.006,0.000,0.000,0.000,0.000,0,2,0,1,7,255,960,300,0,0,-89.358,0.880,-31.439
EX0521-092111,23,C11,prep,1786,1786,0,1151584.092,0.686,-0.675,0.196,0.187,0,0,0,0,0,0,0,0,0,0.000,0,0,0.060,0.003,-0.040,-0.020,-0.040,0.014,0.993,0.011,-0.002,-0.002,-0.004,0.000,0.000,0.000,0.000,0,2,0,1,7,255,960,300,0,0,-89.358,0.881,-31.439
EX0521-092111,23,C11,prep,1786,1786,0,1151589.092,0.686,-0.675,0.196,0.187,0,0,0,0,0,0,0,0,0,0.000,0,0,0.060,0.003,-0.040,-0.020,-0.040,0.014,0.992,0.012,-0.002,-0.002,-0.004,0.000,0.000,0.000,0.000,0,2,0,1,7,255,960,300,0,0,-89.358,0.881,-31.439
EX0521-092111,23,C11,prep,1786,1786,0,1151594.091,0.686,-0.675,0.196,0.187,0,0,0,0,0,0,0,0,0,0.000,0,0,0.049,0.003,0.020,-0.020,-0.040,0.014,0.995,0.011,-0.002,0.002,-0.004,0.000,0.000,0.000,0.000,0,2,0,1,7,255,960,300,0,0,-89.358,0.881,-31.439
EX0521-092111,23,C11,prep,1797,1797,0,1151599.092,0.686,-0.675,0.196,0.187,0,0,0,0,0,0,0,0,0,0.000,0,0,0.060,0.000,-0.040,-0.020,-0.040,0.015,0.993,0.011,0.000,0.000,-0.004,0.000,0.000,0.000,0.000,0,2,0,1,7,255,960,300,0,0,-89.358,0.881,-31.439
EX0521-092111,23,C11,prep,1797,1797,0,1151604.092,0.686,-0.675,0.196,0.187,0,0,0,0,0,0,0,0,0,0.000,0,0,0.049,0.000,-0.040,-0.020,0.020,0.013,0.993,0.012,0.000,0.000,0.000,0.000,0.000,0.000,0.000,0,2,0,1,7,255,960,300,0,0,-89.358,0.881,-31.439
EX0521-092111,23,C11,prep,1798,1798,0,1151609.091,0.686,-0.675,0.196,0.187,0,0,0,0,0,0,0,0,0,0.000,0,0,0.060,0.003,-0.040,0.040,0.020,0.014,0.991,0.012,-0.002,-0.002,-0.004,0.000,0.000,0.000,0.000,0,2,0,1,7,255,960,300,0,0,-89.358,0.881,-31.439
EX0521-092111,23,C11,prep,1798,1798,0,1151614.091,0.686,-0.675,0.196,0.187,0,0,0,0,0,0,0,0,0,0.000,0,0,0.049,0.006,0.020,0.040,0.020,0.014,0.994,0.012,-0.006,-0.002,0.000,0.000,0.000,0.000,0.000,0,2,0,1,7,255,960,300,0,0,-89.358,0.881,-31.439
EX0521-092111,23,C11,prep,1820,1820,0,1151619.092,0.686,-0.675,0.196,0.187,0,0,0,0,0,0,0,0,0,0.000,0,0,0.049,0.006,0.020,-0.020,-0.040,0.013,0.994,0.012,-0.006,0.000,0.006,0.000,0.000,0.000,0.000,0,2,0,1,7,255,960,300,0,0,-89.358,0.881,-31.439
EX0521-092111,23,C11,prep,1820,1820,0,1151624.091,0.686,-0.675,0.196,0.187,0,0,0,0,0,0,0,0,0,0.000,0,0,0.060,0.006,-0.040,-0.020,-0.040,0.014,0.993,0.012,-0.006,0.000,0.006,0.000,0.000,0.000,0.000,0,2,0,1,7,255,960,300,0,0,-89.358,0.881,-31.439
EX0521-092111,23,C11,prep,1823,1823,0,1151629.091,0.686,-0.675,0.196,0.187,0,0,0,0,0,0,0,0,0,0.000,0,0,0.060,0.006,0.020,0.040,-0.040,0.014,0.992,0.012,-0.006,0.000,0.000,0.000,0.000,0.000,0.000,0,2,0,1,7,255,960,300,0,0,-89.358,0.881,-31.439
EX0521-092111,23,C11,prep,1823,1823,0,1151634.092,0.686,-0.675,0.196,0.187,0,0,0,0,0,0,0,0,0,0.000,0,0,0.092,0.004,0.080,-0.020,-0.040,0.014,0.992,0.012,-0.002,-0.004,-0.008,0.000,0.000,0.000,0.000,0,2,0,1,7,255,960,300,0,0,-89.358,0.881,-31.439
EX0521-092111,23,C11,prep,1823,1823,0,1151639.092,0.686,-0.675,0.196,0.187,0,0,0,0,0,0,0,0,0,0.000,0,0,0.049,0.004,0.020,-0.020,-0.040,0.014,0.993,0.011,-0.002,-0.004,-0.008,0.000,0.000,0.000,0.000,0,2,0,1,7,255,960,300,0,0,-89.358,0.881,-31.439
EX0521-092111,23,C11,prep,1823,1823,0,1151644.091,0.686,-0.675,0.196,0.187,0,0,0,0,0,0,0,0,0,0.000,0,0,0.049,0.004,-0.040,-0.020,0.020,0.016,0.994,0.012,0.000,-0.004,-0.004,0.000,0.000,0.000,0.000,0,2,0,1,7,255,960,300,0,0,-89.358,0.881,-31.439
EX0521-092111,23,C11,prep,1855,1855,0,1151649.091,0.686,-0.675,0.196,0.187,0,0,0,0,0,0,0,0,0,0.000,0,0,0.060,0.008,0.020,0.040,-0.040,0.015,0.993,0.011,0.008,0.002,-0.004,0.000,0.000,0.000,0.000,0,2,0,1,7,255,960,300,0,0,-89.358,0.881,-31.439
EX0521-092111,23,C11,prep,1855,1855,0,1151654.092,0.686,-0.675,0.196,0.187,0,0,0,0,0,0,0,0,0,0.000,0,0,0.085,0.008,0.080,-0.020,0.020,0.014,0.993,0.012,0.008,0.000,-0.004,0.000,0.000,0.000,0.000,0,2,0,1,7,255,960,300,0,0,-89.358,0.881,-31.439
EX0521-092111,23,C11,prep,1855,1855,0,1151659.094,0.686,-0.675,0.196,0.187,0,0,0,0,0,0,0,0,0,0.000,0,0,0.035,0.004,0.020,-0.020,0.020,0.014,0.993,0.011,-0.004,0.002,-0.004,0.000,0.000,0.000,0.000,0,2,0,1,7,255,960,300,0,0,-89.358,0.881,-31.439
EX0521-092111,23,C11,prep,1855,1855,0,1151664.091,0.686,-0.675,0.196,0.187,0,0,0,0,0,0,0,0,0,0.000,0,0,0.092,0.004,0.080,-0.020,-0.040,0.014,0.994,0.012,-0.004,0.000,0.000,0.000,0.000,0.000,0.000,0,2,0,1,7,255,960,300,0,0,-89.358,0.881,-31.439
EX0521-092111,23,C11,prep,1855,1855,0,1151669.092,0.686,-0.675,0.196,0.187,0,0,0,0,0,0,0,0,0,0.000,0,0,0.130,0.004,0.020,-0.080,-0.100,0.014,0.994,0.011,-0.004,0.002,0.006,0.000,0.000,0.000,0.000,0,2,0,1,7,255,960,300,0,0,-89.358,0.881,-31.439
EX0521-092111,23,C11,prep,1855,1855,0,1151674.092,0.686,-0.675,0.196,0.187,0,0,0,0,0,0,0,0,0,0.000,0,0,0.049,0.002,-0.040,-0.020,0.020,0.014,0.993,0.011,0.000,0.002,0.006,0.000,0.000,0.000,0.000,0,2,0,1,7,255,960,300,0,0,-89.358,0.881,-31.439
EX0521-092111,23,C11,prep,1887,1887,0,1151679.091,0.686,-0.675,0.196,0.187,0,0,0,0,0,0,0,0,0,0.000,0,0,0.049,0.002,-0.040,-0.020,0.020,0.014,0.993,0.012,0.000,0.002,-0.004,0.000,0.000,0.000,0.000,0,2,0,1,7,255,960,300,0,0,-89.358,0.881,-31.439
EX0521-092111,23,C11,prep,1887,1887,0,1151684.091,0.686,-0.675,0.196,0.187,0,0,0,0,0,0,0,0,0,0.000,0,0,0.085,0.002,0.080,-0.020,0.020,0.015,0.993,0.012,0.000,-0.002,-0.004,0.000,0.000,0.000,0.000,0,2,0,1,7,255,960,300,0,0,-89.358,0.881,-31.439
EX0521-092111,23,C11,prep,1888,1888,0,1151689.092,0.686,-0.675,0.196,0.187,0,0,0,0,0,0,0,0,0,0.000,0,0,0.049,0.004,0.020,-0.020,-0.040,0.014,0.993,0.012,-0.002,-0.004,-0.004,0.000,0.000,0.000,0.000,0,2,0,1,7,255,960,300,0,0,-89.358,0.881,-31.439
EX0521-092111,23,C11,prep,1888,1888,0,1151694.092,0.686,-0.675,0.196,0.187,0,0,0,0,0,0,0,0,0,0.000,0,0,0.049,0.004,0.020,-0.020,-0.040,0.014,0.995,0.012,-0.002,-0.004,0.000,0.000,0.000,0.000,0.000,0,2,0,1,7,255,960,300,0,0,-89.358,0.881,-31.439
EX0521-092111,23,C11,prep,1889,1889,0,1151699.092,0.686,-0.675,0.196,0.187,0,0,0,0,0,0,0,0,0,0.000,0,0,0.035,0.004,0.020,-0.020,0.020,0.015,0.994,0.011,-0.002,-0.004,0.006,0.000,0.000,0.000,0.000,0,2,0,1,7,255,960,300,0,0,-89.358,0.881,-31.439
EX0521-092111,23,C11,prep,1889,1889,0,1151704.092,0.686,-0.675,0.196,0.187,0,0,0,0,0,0,0,0,0,0.000,0,0,0.035,0.009,0.020,-0.020,0.020,0.016,0.994,0.011,0.008,-0.004,0.010,0.000,0.000,0.000,0.000,0,2,0,1,7,255,960,300,0,0,-89.358,0.881,-31.439
EX0521-092111,23,C11,prep,1903,1903,0,1151709.092,0.686,-0.675,0.196,0.187,0,0,0,0,0,0,0,0,0,0.000,0,0,0.049,0.009,-0.040,-0.020,0.020,0.014,0.993,0.012,0.008,-0.004,0.006,0.000,0.000,0.000,0.000,0,2,0,1,7,255,960,300,0,0,-89.358,0.881,-31.439
EX0521-092111,23,C11,prep,1903,1903,0,1151714.091,0.686,-0.675,0.196,0.187,0,0,0,0,0,0,0,0,0,0.000,0,0,0.092,0.007,0.080,-0.020,-0.040,0.014,0.993,0.012,-0.004,-0.006,0.000,0.000,0.000,0.000,0.000,0,2,0,1,7,255,960,300,0,0,-89.358,0.881,-31.439
EX0521-092111,23,C11,prep,1903,1903,0,1151719.091,0.686,-0.675,0.196,0.187,0,0,0,0,0,0,0,0,0,0.000,0,0,0.060,0.007,-0.040,-0.020,-0.040,0.015,0.994,0.012,-0.004,-0.006,0.000,0.000,0.000,0.000,0.000,0,2,0,1,7,255,960,300,0,0,-89.358,0.881,-31.439
EX0521-092111,23,C11,prep,1903,1903,0,1151724.092,0.686,-0.675,0.196,0.187,0,0,0,0,0,0,0,0,0,0.000,0,0,0.049,0.007,0.020,-0.020,-0.040,0.014,0.993,0.011,-0.004,-0.006,0.000,0.000,0.000,0.000,0.000,0,2,0,1,7,255,960,300,0,0,-89.358,0.881,-31.439
EX0521-092111,23,C11,prep,1919,1919,0,1151729.092,0.686,-0.675,0.196,0.187,0,0,0,0,0,0,0,0,0,0.000,0,0,0.069,0.006,-0.040,0.040,-0.040,0.013,0.993,0.011,-0.004,0.004,-0.004,0.000,0.000,0.000,0.000,0,2,0,1,7,255,960,300,0,0,-89.358,0.881,-31.439
EX0521-092111,23,C11,prep,1919,1919,0,1151734.091,0.686,-0.675,0.196,0.187,0,0,0,0,0,0,0,0,0,0.000,0,0,0.049,0.011,-0.040,-0.020,0.020,0.013,0.993,0.012,-0.010,0.004,-0.004,0.000,0.000,0.000,0.000,0,2,0,1,7,255,960,300,0,0,-89.358,0.881,-31.439
EX0521-092111,23,C11,prep,1935,1935,0,1151739.092,0.686,-0.675,0.196,0.187,0,0,0,0,0,0,0,0,0,0.000,0,0,0.035,0.012,0.020,-0.020,0.020,0.013,0.993,0.012,-0.012,0.002,-0.004,0.000,0.000,0.000,0.000,0,2,0,1,7,255,960,300,0,0,-89.358,0.881,-31.439
EX0521-092111,23,C11,prep,1935,1935,0,1151744.092,0.686,-0.675,0.196,0.187,0,0,0,0,0,0,0,0,0,0.000,0,0,0.060,0.010,-0.040,-0.020,-0.040,0.015,0.992,0.011,-0.010,-0.002,-0.004,0.000,0.000,0.000,0.000,0,2,0,1,7,255,960,300,0,0,-89.358,0.881,-31.439
EX0521-092111,23,C11,prep,1967,1967,0,1151749.092,0.686,-0.675,0.196,0.187,0,0,0,0,0,0,0,0,0,0.000,0,0,0.049,0.006,-0.040,-0.020,0.020,0.015,0.993,0.011,0.006,-0.002,-0.004,0.000,0.000,0.000,0.000,0,2,0,1,7,255,960,300,0,0,-89.358,0.881,-31.439
EX0521-092111,23,C11,prep,1967,1967,0,1151754.091,0.686,-0.675,0.196,0.187,0,0,0,0,0,0,0,0,0,0.000,0,0,0.049,0.007,0.020,-0.020,-0.040,0.015,0.993,0.012,0.006,-0.004,-0.004,0.000,0.000,0.000,0.000,0,2,0,1,7,255,960,300,0,0,-89.358,0.881,-31.439
EX0521-092111,23,C11,prep,1967,1967,0,1151759.095,0.686,-0.675,0.196,0.187,0,0,0,0,0,0,0,0,0,0.000,0,0,0.049,0.004,0.020,-0.020,-0.040,0.014,0.993,0.011,0.002,-0.004,0.000,0.000,0.000,0.000,0.000,0,2,0,1,7,255,960,300,0,0,-89.358,0.881,-31.439
EX0521-092111,23,C11,prep,1967,1967,0,1151764.092,0.686,-0.675,0.196,0.187,0,0,0,0,0,0,0,0,0,0.000,0,0,0.049,0.002,0.020,0.040,0.020,0.014,0.991,0.012,0.000,-0.002,-0.004,0.000,0.000,0.000,0.000,0,2,0,1,7,255,960,300,0,0,-89.358,0.881,-31.439
EX0521-092111,23,C11,prep,1967,1967,0,1151769.091,0.686,-0.675,0.196,0.187,0,0,0,0,0,0,0,0,0,0.000,0,0,0.092,0.003,0.020,-0.080,-0.040,0.013,0.992,0.011,-0.002,0.002,-0.014,0.000,0.000,0.000,0.000,0,2,0,1,7,255,960,300,0,0,-89.358,0.881,-31.439
EX0521-092111,23,C11,prep,1967,1967,0,1151774.091,0.686,-0.675,0.196,0.187,0,0,0,0,0,0,0,0,0,0.000,0,0,0.035,0.008,0.020,-0.020,0.020,0.013,0.994,0.012,-0.008,0.002,-0.014,0.000,0.000,0.000,0.000,0,2,0,1,7,255,960,300,0,0,-89.358,0.881,-31.439
EX0521-092111,23,C11,prep,1983,1983,0,1151779.092,0.686,-0.675,0.196,0.187,0,0,0,0,0,0,0,0,0,0.000,0,0,0.035,0.010,0.020,-0.020,0.020,0.013,0.993,0.011,-0.008,0.006,-0.004,0.000,0.000,0.000,0.000,0,2,0,1,7,255,960,300,0,0,-89.358,0.881,-31.439
EX0521-092111,23,C11,prep,1983,1983,0,1151784.092,0.686,-0.675,0.196,0.187,0,0,0,0,0,0,0,0,0,0.000,0,0,0.060,0.004,-0.040,-0.020,-0.040,0.014,0.991,0.012,-0.004,0.002,-0.004,0.000,0.000,0.000,0.000,0,2,0,1,7,255,960,300,0,0,-89.358,0.881,-31.439
EX0521-092111,23,C11,prep,1983,1983,0,1151789.091,0.686,-0.675,0.196,0.187,0,0,0,0,0,0,0,0,0,0.000,0,0,0.049,0.004,0.020,-0.020,-0.040,0.014,0.992,0.012,-0.004,-0.002,-0.008,0.000,0.000,0.000,0.000,0,2,0,1,7,255,960,300,0,0,-89.358,0.881,-31.439
EX0521-092111,23,C11,prep,1983,1983,0,1151794.092,0.686,-0.675,0.196,0.187,0,0,0,0,0,0,0,0,0,0.000,0,0,0.049,0.004,0.020,-0.020,-0.040,0.014,0.993,0.011,-0.004,-0.002,-0.008,0.000,0.000,0.000,0.000,0,2,0,1,7,255,960,300,0,0,-89.358,0.881,-31.439
EX0521-092111,23,C11,prep,1983,1983,0,1151799.092,0.686,-0.675,0.196,0.187,0,0,0,0,0,0,0,0,0,0.000,0,0,0.035,0.002,0.020,-0.020,0.020,0.015,0.994,0.011,-0.002,0.000,-0.004,0.000,0.000,0.000,0.000,0,2,0,1,7,255,960,300,0,0,-89.358,0.881,-31.439
EX0521-092111,23,C11,prep,1983,1983,0,1151804.091,0.686,-0.675,0.196,0.187,0,0,0,0,0,0,0,0,0,0.000,0,0,0.035,0.000,0.020,-0.020,0.020,0.015,0.993,0.012,0.000,0.000,0.002,0.000,0.000,0.000,0.000,0,2,0,1,7,255,960,300,0,0,-89.358,0.881,-31.439
EX0521-092111,23,C11,prep,1999,1999,0,1151809.091,0.686,-0.675,0.196,0.187,0,0,0,0,0,0,0,0,0,0.000,0,0,0.049,0.000,-0.040,-0.020,0.020,0.014,0.993,0.011,0.000,0.000,0.002,0.000,0.000,0.000,0.000,0,2,0,1,7,255,960,300,0,0,-89.358,0.881,-31.439
EX0521-092111,23,C11,prep,1999,1999,0,1151814.092,0.686,-0.675,0.196,0.187,0,0,0,0,0,0,0,0,0,0.000,0,0,0.035,0.010,0.020,-0.020,0.020,0.015,0.992,0.012,0.000,-0.010,0.002,0.000,0.000,0.000,0.000,0,2,0,1,7,255,960,300,0,0,-89.358,0.881,-31.439
EX0521-092111,23,C11,prep,1999,1999,0,1151819.092,0.686,-0.675,0.196,0.187,0,0,0,0,0,0,0,0,0,0.000,0,0,0.060,0.004,-0.040,-0.020,-0.040,0.014,0.992,0.011,0.004,0.002,-0.008,0.000,0.000,0.000,0.000,0,2,0,1,7,255,960,300,0,0,-89.358,0.881,-31.439
EX0521-092111,23,C11,prep,1999,1999,0,1151824.091,0.686,-0.675,0.196,0.187,0,0,0,0,0,0,0,0,0,0.000,0,0,0.049,0.007,0.020,-0.020,-0.040,0.014,0.993,0.011,0.004,0.006,-0.008,0.000,0.000,0.000,0.000,0,2,0,1,7,255,960,300,0,0,-89.358,0.881,-31.439
EX0521-092111,23,C11,prep,2021,2021,0,1151829.092,0.686,-0.675,0.196,0.187,0,0,0,0,0,0,0,0,0,0.000,0,0,0.060,0.006,0.020,0.040,-0.040,0.014,0.993,0.011,0.000,0.006,0.002,0.000,0.000,0.000,0.000,0,2,0,1,7,255,960,300,0,0,-89.358,0.881,-31.439
EX0521-092111,23,C11,prep,2021,2021,0,1151834.092,0.686,-0.675,0.196,0.187,0,0,0,0,0,0,0,0,0,0.000,0,0,0.049,0.002,0.020,-0.020,-0.040,0.014,0.993,0.012,0.000,0.002,0.002,0.000,0.000,0.000,0.000,0,2,0,1,7,255,960,300,0,0,-89.358,0.881,-31.439
EX0521-092111,23,C11,prep,2022,2022,0,1151839.091,0.686,-0.675,0.196,0.187,0,0,0,0,0,0,0,0,0,0.000,0,0,0.035,0.004,0.020,-0.020,0.020,0.014,0.993,0.012,-0.004,0.000,-0.004,0.000,0.000,0.000,0.000,0,2,0,1,7,255,960,300,0,0,-89.358,0.881,-31.439
EX0521-092111,23,C11,prep,2022,2022,0,1151844.091,0.686,-0.675,0.196,0.187,0,0,0,0,0,0,0,0,0,0.000,0,0,0.092,0.004,-0.040,-0.080,0.020,0.014,0.993,0.011,-0.004,0.000,-0.004,0.000,0.000,0.000,0.000,0,2,0,1,7,255,960,300,0,0,-89.358,0.881,-31.439
EX0521-092111,23,C11,prep,2053,2053,0,1151849.092,0.686,-0.675,0.196,0.187,0,0,0,0,0,0,0,0,0,0.000,0,0,0.049,0.002,0.020,-0.020,-0.040,0.014,0.993,0.011,0.000,0.002,-0.004,0.000,0.000,0.000,0.000,0,2,0,1,7,255,960,300,0,0,-89.358,0.881,-31.439
EX0521-092111,23,C11,prep,2053,2053,0,1151854.092,0.686,-0.675,0.196,0.187,0,0,0,0,0,0,0,0,0,0.000,0,0,0.049,0.006,0.020,-0.020,-0.040,0.014,0.994,0.011,0.000,0.006,0.002,0.000,0.000,0.000,0.000,0,2,0,1,7,255,960,300,0,0,-89.358,0.881,-31.439
EX0521-092111,23,C11,prep,2055,2055,0,1151859.095,0.686,-0.675,0.196,0.187,0,0,0,0,0,0,0,0,0,0.000,0,0,0.049,0.002,0.020,-0.020,-0.040,0.014,0.993,0.012,0.000,0.002,0.002,0.000,0.000,0.000,0.000,0,2,0,1,7,255,960,300,0,0,-89.358,0.881,-31.439
EX0521-092111,23,C11,prep,2055,2055,0,1151864.092,0.686,-0.675,0.196,0.187,0,0,0,0,0,0,0,0,0,0.000,0,0,0.092,0.003,0.020,-0.080,-0.040,0.015,0.993,0.013,-0.002,-0.002,0.002,0.000,0.000,0.000,0.000,0,2,0,1,7,255,960,300,0,0,-89.358,0.881,-31.439
EX0521-092111,23,C11,prep,2056,2056,0,1151869.092,0.686,-0.675,0.196,0.187,0,0,0,0,0,0,0,0,0,0.000,0,0,0.085,0.003,0.020,-0.080,0.020,0.014,0.993,0.011,-0.002,-0.002,0.002,0.000,0.000,0.000,0.000,0,2,0,1,7,255,960,300,0,0,-89.358,0.881,-31.439
EX0521-092111,23,C11,prep,2056,2056,0,1151874.091,0.686,-0.675,0.196,0.187,0,0,0,0,0,0,0,0,0,0.000,0,0,0.060,0.003,-0.040,-0.020,-0.040,0.015,0.992,0.010,0.002,0.002,-0.004,0.000,0.000,0.000,0.000,0,2,0,1,7,255,960,300,0,0,-89.358,0.881,-31.439
EX0521-092111,23,C11,prep,2087,2087,0,1151879.091,0.686,-0.675,0.196,0.187,0,0,0,0,0,0,0,0,0,0.000,0,0,0.060,0.004,-0.040,-0.020,-0.040,0.013,0.993,0.011,0.002,0.004,-0.004,0.000,0.000,0.000,0.000,0,2,0,1,7,255,960,300,0,0,-89.358,0.881,-31.439
EX0521-092111,23,C11,prep,2087,2087,0,1151884.092,0.686,-0.675,0.196,0.187,0,0,0,0,0,0,0,0,0,0.000,0,0,0.060,0.007,-0.040,-0.020,-0.040,0.014,0.993,0.011,0.004,0.006,-0.004,0.000,0.000,0.000,0.000,0,2,0,1,7,255,960,300,0,0,-89.358,0.881,-31.439
EX0521-092111,23,C11,prep,2087,2087,0,1151889.092,0.686,-0.675,0.196,0.187,0,0,0,0,0,0,0,0,0,0.000,0,0,0.049,0.007,0.020,-0.020,-0.040,0.015,0.992,0.011,0.004,0.006,-0.004,0.000,0.000,0.000,0.000,0,2,0,1,7,255,960,300,0,0,-89.358,0.881,-31.439
EX0521-092111,23,C11,prep,2087,2087,0,1151894.091,0.686,-0.675,0.196,0.187,0,0,0,0,0,0,0,0,0,0.000,0,0,0.060,0.004,0.020,0.040,-0.040,0.015,0.994,0.012,0.004,-0.002,-0.004,0.000,0.000,0.000,0.000,0,2,0,1,7,255,960,300,0,0,-89.358,0.881,-31.439
EX0521-092111,23,C11,prep,2087,2087,0,1151899.092,0.686,-0.675,0.196,0.187,0,0,0,0,0,0,0,0,0,0.000,0,0,0.115,0.004,0.080,-0.080,0.020,0.014,0.993,0.011,0.004,-0.002,-0.004,0.000,0.000,0.000,0.000,0,2,0,1,7,255,960,300,0,0,-89.358,0.881,-31.439
EX0521-092111,23,C11,prep,2087,2087,0,1151904.092,0.686,-0.675,0.196,0.187,0,0,0,0,0,0,0,0,0,0.000,0,0,0.035,0.006,0.020,-0.020,0.020,0.014,0.993,0.011,0.000,0.006,-0.004,0.000,0.000,0.000,0.000,0,2,0,1,7,255,960,300,0,0,-89.358,0.881,-31.439
EX0521-092111,23,C11,prep,2095,2095,0,1151909.092,0.686,-0.675,0.196,0.187,0,0,0,0,0,0,0,0,0,0.000,0,0,0.110,0.008,-0.040,-0.020,-0.100,0.013,0.992,0.011,0.000,0.008,-0.004,0.000,0.000,0.000,0.000,0,2,0,1,7,255,960,300,0,0,-89.358,0.881,-31.439
EX0521-092111,23,C11,prep,2095,2095,0,1151914.091,0.686,-0.675,0.196,0.187,0,0,0,0,0,0,0,0,0,0.000,0,0,0.035,0.010,0.020,-0.020,0.020,0.014,0.993,0.013,-0.006,0.008,-0.004,0.000,0.000,0.000,0.000,0,2,0,1,7,255,960,300,0,0,-89.358,0.881,-31.439
EX0521-092111,23,C11,prep,2127,2127,0,1151919.092,0.686,-0.675,0.196,0.187,0,0,0,0,0,0,0,0,0,0.000,0,0,0.060,0.006,0.020,0.040,-0.040,0.014,0.993,0.012,-0.006,0.000,-0.002,0.000,0.000,0.000,0.000,0,2,0,1,7,255,960,300,0,0,-89.358,0.881,-31.439
EX0521-092111,23,C11,prep,2127,2127,0,1151924.092,0.686,-0.675,0.196,0.187,0,0,0,0,0,0,0,0,0,0.000,0,0,0.049,0.006,-0.040,-0.020,0.020,0.013,0.992,0.011,-0.006,0.000,-0.002,0.000,0.000,0.000,0.000,0,2,0,1,7,255,960,300,0,0,-89.358,0.881,-31.439
EX0521-092111,23,C11,prep,2127,2127,0,1151929.091,0.686,-0.675,0.196,0.187,0,0,0,0,0,0,0,0,0,0.000,0,0,0.060,0.006,-0.040,0.040,0.020,0.013,0.993,0.012,-0.006,0.002,-0.002,0.000,0.000,0.000,0.000,0,2,0,1,7,255,960,300,0,0,-89.358,0.881,-31.439
EX0521-092111,23,C11,prep,2127,2127,0,1151934.091,0.686,-0.675,0.196,0.187,0,0,0,0,0,0,0,0,0,0.000,0,0,0.049,0.006,0.020,-0.020,-0.040,0.015,0.994,0.012,-0.006,0.002,-0.002,0.000,0.000,0.000,0.000,0,2,0,1,7,255,960,300,0,0,-89.358,0.881,-31.439
EX0521-092111,23,C11,prep,2127,2127,0,1151939.092,0.686,-0.675,0.196,0.187,0,0,0,0,0,0,0,0,0,0.000,0,0,0.049,0.010,0.020,-0.020,-0.040,0.013,0.993,0.012,-0.010,0.000,0.002,0.000,0.000,0.000,0.000,0,2,0,1,7,255,960,300,0,0,-89.358,0.881,-31.439
EX0521-092111,23,C11,prep,2127,2127,0,1151944.092,0.686,-0.675,0.196,0.187,0,0,0,0,0,0,0,0,0,0.000,0,0,0.049,0.013,0.020,-0.020,-0.040,0.014,0.993,0.013,-0.012,-0.006,0.002,0.000,0.000,0.000,0.000,0,2,0,1,7,255,960,300,0,0,-89.358,0.881,-31.439
EX0521-092111,23,C11,prep,2152,2152,0,1151949.091,0.686,-0.675,0.196,0.187,0,0,0,0,0,0,0,0,0,0.000,0,0,0.035,0.012,0.020,-0.020,0.020,0.014,0.994,0.010,-0.012,0.000,0.002,0.000,0.000,0.000,0.000,0,2,0,1,7,255,960,300,0,0,-89.358,0.881,-31.439
EX0521-092111,23,C11,prep,2152,2152,0,1151954.092,0.686,-0.675,0.196,0.187,0,0,0,0,0,0,0,0,0,0.000,0,0,0.035,0.003,0.020,-0.020,0.020,0.014,0.992,0.011,0.002,0.002,0.002,0.000,0.000,0.000,0.000,0,2,0,1,7,255,960,300,0,0,-89.358,0.881,-31.439
EX0521-092111,23,C11,prep,2153,2153,0,1151959.094,0.686,-0.675,0.196,0.187,0,0,0,0,0,0,0,0,0,0.000,0,0,0.060,0.008,-0.040,-0.020,-0.040,0.013,0.993,0.011,0.002,0.008,-0.004,0.000,0.000,0.000,0.000,0,2,0,1,7,255,960,300,0,0,-89.358,0.881,-31.439
EX0521-092111,23,C11,prep,2153,2153,0,1151964.091,0.686,-0.675,0.196,0.187,0,0,0,0,0,0,0,0,0,0.000,0,0,0.049,0.003,0.020,-0.020,-0.040,0.015,0.993,0.012,0.002,0.002,-0.004,0.000,0.000,0.000,0.000,0,2,0,1,7,255,960,300,0,0,-89.358,0.881,-31.439
EX0521-092111,23,C11,prep,2154,2154,0,1151969.091,0.686,-0.675,0.196,0.187,0,0,0,0,0,0,0,0,0,0.000,0,0,0.049,0.007,0.020,-0.020,-0.040,0.014,0.993,0.012,-0.004,-0.006,-0.002,0.000,0.000,0.000,0.000,0,2,0,1,7,255,960,300,0,0,-89.358,0.881,-31.439
EX0521-092111,23,C11,prep,2154,2154,0,1151974.092,0.686,-0.675,0.196,0.187,0,0,0,0,0,0,0,0,0,0.000,0,0,0.049,0.007,0.020,-0.020,-0.040,0.015,0.995,0.011,0.004,-0.006,-0.002,0.000,0.000,0.000,0.000,0,2,0,1,7,255,960,300,0,0,-89.358,0.881,-31.439
EX0521-092111,23,C11,prep,2187,2187,0,1151979.092,0.686,-0.675,0.196,0.187,0,0,0,0,0,0,0,0,0,0.000,0,0,0.060,0.006,-0.040,-0.020,-0.040,0.015,0.993,0.010,0.006,0.000,-0.002,0.000,0.000,0.000,0.000,0,2,0,1,7,255,960,300,0,0,-89.358,0.881,-31.439
EX0521-092111,23,C11,prep,2187,2187,0,1151984.091,0.686,-0.675,0.196,0.187,0,0,0,0,0,0,0,0,0,0.000,0,0,0.092,0.012,0.080,-0.020,-0.040,0.015,0.993,0.010,0.010,0.006,0.002,0.000,0.000,0.000,0.000,0,2,0,1,7,255,960,300,0,0,-89.358,0.881,-31.439
EX0521-092111,23,C11,prep,2188,2188,0,1151989.091,0.686,-0.675,0.196,0.187,0,0,0,0,0,0,0,0,0,0.000,0,0,0.060,0.012,-0.040,0.040,0.020,0.013,0.993,0.011,0.010,0.006,-0.004,0.000,0.000,0.000,0.000,0,2,0,1,7,255,960,300,0,0,-89.358,0.881,-31.439
EX0521-092111,23,C11,prep,2188,2188,0,1151994.092,0.686,-0.675,0.196,0.187,0,0,0,0,0,0,0,0,0,0.000,0,0,0.049,0.006,0.020,-0.020,-0.040,0.014,0.992,0.011,0.002,0.006,-0.004,0.000,0.000,0.000,0.000,0,2,0,1,7,255,960,300,0,0,-89.358,0.881,-31.439
EX0521-092111,23,C11,prep,2189,2189,0,1151999.092,0.686,-0.675,0.196,0.187,0,0,0,0,0,0,0,0,0,0.000,0,0,0.060,0.004,0.020,0.040,-0.040,0.014,0.993,0.012,-0.004,0.000,-0.004,0.000,0.000,0.000,0.000,0,2,0,1,7,255,960,300,0,0,-89.358,0.881,-31.439
EX0521-092111,23,C11,prep,2189,2189,0,1152004.091,0.686,-0.675,0.196,0.187,0,0,0,0,0,0,0,0,0,0.000,0,0,0.049,0.002,0.020,-0.020,-0.040,0.015,0.994,0.012,0.002,0.000,-0.002,0.000,0.000,0.000,0.000,0,2,0,1,7,255,960,300,0,0,-89.358,0.881,-31.439
EX0521-092111,23,C11,prep,2217,2217,0,1152009.092,0.686,-0.675,0.196,0.187,0,0,0,0,0,0,0,0,0,0.000,0,0,0.060,0.006,0.040,-0.020,-0.040,0.015,0.993,0.012,0.002,-0.006,0.002,0.000,0.000,0.000,0.000,0,2,0,1,7,255,960,300,0,0,-89.358,0.881,-31.439
EX0521-092111,23,C11,prep,2217,2217,0,1152014.092,0.686,-0.675,0.196,0.187,0,0,0,0,0,0,0,0,0,0.000,0,0,0.069,0.006,-0.040,0.040,-0.040,0.015,0.993,0.011,0.002,-0.006,0.002,0.000,0.000,0.000,0.000,0,2,0,1,7,255,960,300,0,0,-89.358,0.881,-31.439
EX0521-092111,23,C11,prep,2217,2217,0,1152019.091,0.686,-0.675,0.196,0.187,0,0,0,0,0,0,0,0,0,0.000,0,0,0.060,0.008,0.040,-0.020,-0.040,0.015,0.992,0.011,0.008,0.000,-0.002,0.000,0.000,0.000,0.000,0,2,0,1,7,255,960,300,0,0,-89.358,0.881,-31.439
EX0521-092111,23,C11,prep,2217,2217,0,1152024.091,0.686,-0.675,0.196,0.187,0,0,0,0,0,0,0,0,0,0.000,0,0,0.104,0.008,0.100,-0.020,0.020,0.014,0.993,0.012,0.008,0.000,-0.002,0.000,0.000,0.000,0.000,0,2,0,1,7,255,960,300,0,0,-89.358,0.881,-31.439
EX0521-092111,23,C11,prep,2217,2217,0,1152029.092,0.686,-0.675,0.196,0.187,0,0,0,0,0,0,0,0,0,0.000,0,0,0.060,0.003,0.040,-0.020,-0.040,0.013,0.992,0.011,-0.002,0.002,-0.008,0.000,0.000,0.000,0.000,0,2,0,1,7,255,960,300,0,0,-89.358,0.881,-31.439
EX0521-092111,23,C11,prep,2217,2217,0,1152034.092,0.686,-0.675,0.196,0.187,0,0,0,0,0,0,0,0,0,0.000,0,0,0.060,0.006,0.040,-0.020,-0.040,0.014,0.993,0.011,-0.002,0.006,-0.002,0.000,0.000,0.000,0.000,0,2,0,1,7,255,960,300,0,0,-89.358,0.881,-31.439
EX0521-092111,23,C11,prep,2224,2224,0,1152039.091,0.686,-0.675,0.196,0.187,0,0,0,0,0,0,0,0,0,0.000,0,0,0.049,0.006,-0.040,-0.020,0.020,0.014,0.992,0.011,0.000,0.006,-0.008,0.000,0.000,0.000,0.000,0,2,0,1,7,255,960,300,0,0,-89.358,0.881,-31.439
EX0521-092111,23,C11,prep,2224,2224,0,1152044.092,0.686,-0.675,0.196,0.187,0,0,0,0,0,0,0,0,0,0.000,0,0,0.049,0.004,0.040,-0.020,0.020,0.015,0.993,0.012,0.000,0.004,-0.002,0.000,0.000,0.000,0.000,0,2,0,1,7,255,960,300,0,0,-89.358,0.881,-31.439
EX0521-092111,23,C11,prep,2256,2256,0,1152049.092,0.686,-0.675,0.196,0.187,0,0,0,0,0,0,0,0,0,0.000,0,0,0.049,0.004,0.040,-0.020,0.020,0.015,0.992,0.011,0.004,0.002,-0.008,0.000,0.000,0.000,0.000,0,2,0,1,7,255,960,300,0,0,-89.358,0.881,-31.439
EX0521-092111,23,C11,prep,2256,2256,0,1152054.091,0.686,-0.675,0.196,0.187,0,0,0,0,0,0,0,0,0,0.000,0,0,0.049,0.006,-0.040,-0.020,0.020,0.015,0.992,0.012,0.002,-0.006,-0.008,0.000,0.000,0.000,0.000,0,2,0,1,7,255,960,300,0,0,-89.358,0.881,-31.439
EX0521-092111,23,C11,prep,2256,2256,0,1152059.095,0.686,-0.675,0.196,0.187,0,0,0,0,0,0,0,0,0,0.000,0,0,0.110,0.003,0.100,-0.020,-0.040,0.014,0.993,0.011,0.002,0.002,-0.008,0.000,0.000,0.000,0.000,0,2,0,1,7,255,960,300,0,0,-89.358,0.881,-31.439
EX0521-092111,23,C11,prep,2256,2256,0,1152064.093,0.686,-0.675,0.196,0.187,0,0,0,0,0,0,0,0,0,0.000,0,0,0.060,0.008,-0.040,-0.020,-0.040,0.014,0.993,0.010,0.002,0.008,-0.002,0.000,0.000,0.000,0.000,0,2,0,1,7,255,960,300,0,0,-89.358,0.881,-31.439
EX0521-092111,23,C11,prep,2257,2257,0,1152069.092,0.686,-0.675,0.196,0.187,0,0,0,0,0,0,0,0,0,0.000,0,0,0.049,0.008,-0.040,-0.020,0.020,0.014,0.994,0.011,0.000,0.008,0.002,0.000,0.000,0.000,0.000,0,2,0,1,7,255,960,300,0,0,-89.358,0.881,-31.439
EX0521-092111,23,C11,prep,2257,2257,0,1152074.091,0.686,-0.675,0.196,0.187,0,0,0,0,0,0,0,0,0,0.000,0,0,0.049,0.006,0.020,-0.020,-0.040,0.014,0.993,0.013,-0.004,0.004,0.002,0.000,0.000,0.000,0.000,0,2,0,1,7,255,960,300,0,0,-89.358,0.881,-31.439
EX0521-092111,23,C11,prep,2285,2285,0,1152079.091,0.686,-0.675,0.196,0.187,0,0,0,0,0,0,0,0,0,0.000,0,0,0.049,0.009,-0.040,-0.020,0.020,0.015,0.993,0.012,-0.004,-0.008,0.002,0.000,0.000,0.000,0.000,0,2,0,1,7,255,960,300,0,0,-89.358,0.881,-31.439
EX0521-092111,23,C11,prep,2285,2285,0,1152084.092,0.686,-0.675,0.196,0.187,0,0,0,0,0,0,0,0,0,0.000,0,0,0.060,0.010,0.020,0.040,-0.040,0.014,0.994,0.010,0.006,-0.008,0.002,0.000,0.000,0.000,0.000,0,2,0,1,7,255,960,300,0,0,-89.358,0.881,-31.439
EX0521-092111,23,C11,prep,2296,2296,0,1152089.092,0.686,-0.675,0.196,0.187,0,0,0,0,0,0,0,0,0,0.000,0,0,0.049,0.006,0.020,-0.020,-0.040,0.014,0.993,0.011,0.006,0.000,0.002,0.000,0.000,0.000,0.000,0,2,0,1,7,255,960,300,0,0,-89.358,0.881,-31.439
EX0521-092111,23,C11,prep,2296,2296,0,1152094.091,0.686,-0.675,0.196,0.187,0,0,0,0,0,0,0,0,0,0.000,0,0,0.069,0.000,-0.040,0.040,-0.040,0.014,0.993,0.011,0.000,0.000,-0.002,0.000,0.000,0.000,0.000,0,2,0,1,7,255,960,300,0,0,-89.358,0.881,-31.439
EX0521-092111,23,C11,prep,2299,2299,0,1152099.092,0.686,-0.675,0.196,0.187,0,0,0,0,0,0,0,0,0,0.000,0,0,0.049,0.000,0.020,-0.020,-0.040,0.015,0.993,0.012,0.000,0.000,-0.002,0.000,0.000,0.000,0.000,0,2,0,1,7,255,960,300,0,0,-89.358,0.881,-31.439
EX0521-092111,23,C11,prep,2299,2299,0,1152104.092,0.686,-0.675,0.196,0.187,0,0,0,0,0,0,0,0,0,0.000,0,0,0.035,0.006,0.020,-0.020,0.020,0.015,0.992,0.012,0.000,-0.006,-0.002,0.000,0.000,0.000,0.000,0,2,0,1,7,255,960,300,0,0,-89.358,0.881,-31.439
EX0521-092111,23,C11,prep,2300,2300,0,1152109.091,0.686,-0.675,0.196,0.187,0,0,0,0,0,0,0,0,0,0.000,0,0,0.060,0.006,0.020,0.040,-0.040,0.015,0.991,0.012,0.002,-0.006,-0.008,0.000,0.000,0.000,0.000,0,2,0,1,7,255,960,300,0,0,-89.358,0.881,-31.439
EX0521-092111,23,C11,prep,2300,2300,0,1152114.091,0.686,-0.675,0.196,0.187,0,0,0,0,0,0,0,0,0,0.000,0,0,0.049,0.006,0.020,-0.020,-0.040,0.016,0.993,0.011,0.002,-0.006,-0.008,0.000,0.000,0.000,0.000,0,2,0,1,7,255,960,300,0,0,-89.358,0.881,-31.439
EX0521-092111,23,C11,prep,2301,2301,0,1152119.092,0.686,-0.675,0.196,0.187,0,0,0,0,0,0,0,0,0,0.000,0,0,0.060,0.006,0.020,0.040,-0.040,0.014,0.992,0.012,0.002,-0.006,-0.012,0.000,0.000,0.000,0.000,0,2,0,1,7,255,960,300,0,0,-89.358,0.881,-31.439
EX0521-092111,23,C11,prep,2301,2301,0,1152124.092,0.686,-0.675,0.196,0.187,0,0,0,0,0,0,0,0,0,0.000,0,0,0.060,0.004,0.020,0.040,-0.040,0.014,0.994,0.012,-0.002,-0.004,0.002,0.000,0.000,0.000,0.000,0,2,0,1,7,255,960,300,0,0,-89.358,0.881,-31.439
EX0521-092111,23,C11,prep,2319,2319,0,1152129.091,0.686,-0.675,0.196,0.187,0,0,0,0,0,0,0,0,0,0.000,0,0,0.035,0.003,0.020,-0.020,0.020,0.014,0.993,0.012,-0.002,-0.002,0.002,0.000,0.000,0.000,0.000,0,2,0,1,7,255,960,300,0,0,-89.358,0.881,-31.439
EX0521-092111,23,C11,prep,2319,2319,0,1152134.091,0.686,-0.675,0.196,0.187,0,0,0,0,0,0,0,0,0,0.000,0,0,0.060,0.003,-0.040,-0.020,-0.040,0.013,0.993,0.012,-0.002,-0.002,0.002,0.000,0.000,0.000,0.000,0,2,0,1,7,255,960,300,0,0,-89.358,0.881,-31.439
EX0521-092111,23,C11,prep,2335,2335,0,1152139.092,0.686,-0.675,0.196,0.187,0,0,0,0,0,0,0,0,0,0.000,0,0,0.049,0.003,0.020,-0.020,-0.040,0.015,0.993,0.011,-0.002,-0.002,0.002,0.000,0.000,0.000,0.000,0,2,0,1,7,255,960,300,0,0,-89.358,0.881,-31.439
EX0521-092111,23,C11,prep,2335,2335,0,1152144.091,0.686,-0.675,0.196,0.187,0,0,0,0,0,0,0,0,0,0.000,0,0,0.060,0.004,0.020,0.040,-0.040,0.015,0.993,0.011,0.004,-0.002,-0.002,0.000,0.000,0.000,0.000,0,2,0,1,7,255,960,300,0,0,-89.358,0.881,-31.439
EX0521-092111,23,C11,prep,2352,2352,0,1152149.091,0.686,-0.675,0.196,0.187,0,0,0,0,0,0,0,0,0,0.000,0,0,0.069,0.004,-0.040,0.040,-0.040,0.014,0.993,0.011,0.004,-0.002,0.002,0.000,0.000,0.000,0.000,0,2,0,1,7,255,960,300,0,0,-89.358,0.881,-31.439
EX0521-092111,23,C11,prep,2352,2352,0,1152154.092,0.686,-0.675,0.196,0.187,0,0,0,0,0,0,0,0,0,0.000,0,0,0.049,0.004,0.020,-0.020,-0.040,0.015,0.993,0.011,0.004,-0.002,-0.002,0.000,0.000,0.000,0.000,0,2,0,1,7,255,960,300,0,0,-89.358,0.881,-31.439
EX0521-092111,23,C11,prep,2367,2367,0,1152159.093,0.686,-0.675,0.196,0.187,0,0,0,0,0,0,0,0,0,0.000,0,0,0.049,0.004,0.020,-0.020,-0.040,0.014,0.994,0.011,0.000,0.004,0.002,0.000,0.000,0.000,0.000,0,2,0,1,7,255,960,300,0,0,-89.358,0.881,-31.439
EX0521-092111,23,C11,prep,2367,2367,0,1152164.093,0.686,-0.675,0.196,0.187,0,0,0,0,0,0,0,0,0,0.000,0,0,0.060,0.004,-0.040,-0.020,-0.040,0.014,0.993,0.011,0.000,0.004,0.002,0.000,0.000,0.000,0.000,0,2,0,1,7,255,960,300,0,0,-89.358,0.881,-31.439
EX0521-092111,23,C11,prep,2367,2367,0,1152169.091,0.686,-0.675,0.196,0.187,0,0,0,0,0,0,0,0,0,0.000,0,0,0.060,0.004,-0.040,-0.020,-0.040,0.015,0.993,0.011,0.000,0.004,0.002,0.000,0.000,0.000,0.000,0,2,0,1,7,255,960,300,0,0,-89.358,0.881,-31.439
EX0521-092111,23,C11,prep,2367,2367,0,1152174.092,0.686,-0.675,0.196,0.187,0,0,0,0,0,0,0,0,0,0.000,0,0,0.060,0.006,-0.040,-0.020,-0.040,0.014,0.991,0.011,-0.004,0.004,-0.002,0.000,0.000,0.000,0.000,0,2,0,1,7,255,960,300,0,0,-89.358,0.881,-31.439
EX0521-092111,23,C11,prep,2388,2388,0,1152179.092,0.686,-0.675,0.196,0.187,0,0,0,0,0,0,0,0,0,0.000,0,0,0.060,0.003,-0.040,-0.020,-0.040,0.014,0.992,0.012,-0.002,0.002,-0.012,0.000,0.000,0.000,0.000,0,2,0,1,7,255,960,300,0,0,-89.358,0.881,-31.439
EX0521-092111,23,C11,prep,2388,2388,0,1152184.091,0.686,-0.675,0.196,0.187,0,0,0,0,0,0,0,0,0,0.000,0,0,0.060,0.004,-0.040,-0.020,-0.040,0.013,0.993,0.012,-0.004,-0.002,-0.012,0.000,0.000,0.000,0.000,0,2,0,1,7,255,960,300,0,0,-89.358,0.881,-31.439
EX0521-092111,23,C11,prep,2389,2389,0,1152189.092,0.686,-0.675,0.196,0.187,0,0,0,0,0,0,0,0,0,0.000,0,0,0.049,0.004,-0.040,-0.020,0.020,0.014,0.993,0.011,-0.004,-0.002,0.002,0.000,0.000,0.000,0.000,0,2,0,1,7,255,960,300,0,0,-89.358,0.881,-31.439
EX0521-092111,23,C11,prep,2389,2389,0,1152194.092,0.686,-0.675,0.196,0.187,0,0,0,0,0,0,0,0,0,0.000,0,0,0.069,0.006,-0.040,0.040,-0.040,0.014,0.992,0.010,-0.004,0.004,0.002,0.000,0.000,0.000,0.000,0,2,0,1,7,255,960,300,0,0,-89.358,0.881,-31.439
EX0521-092111,23,C11,prep,2389,2389,0,1152199.092,0.686,-0.675,0.196,0.187,0,0,0,0,0,0,0,0,0,0.000,0,0,0.049,0.004,0.020,-0.020,-0.040,0.015,0.992,0.011,0.002,0.004,-0.006,0.000,0.000,0.000,0.000,0,2,0,1,7,255,960,300,0,0,-89.358,0.881,-31.439
EX0521-092111,23,C11,prep,2389,2389,0,1152204.091,0.686,-0.675,0.196,0.187,0,0,0,0,0,0,0,0,0,0.000,0,0,0.049,0.002,0.020,-0.020,-0.040,0.014,0.993,0.012,0.002,0.000,-0.006,0.000,0.000,0.000,0.000,0,2,0,1,7,255,960,300,0,0,-89.358,0.881,-31.439
EX0521-092111,23,C11,prep,2390,2390,0,1152209.092,0.686,-0.675,0.196,0.187,0,0,0,0,0,0,0,0,0,0.000,0,0,0.049,0.006,0.020,-0.020,-0.040,0.013,0.993,0.012,-0.006,-0.002,0.002,0.000,0.000,0.000,0.000,0,2,0,1,7,255,960,300,0,0,-89.358,0.881,-31.439
EX0521-092111,23,C11,prep,2390,2390,0,1152214.092,0.686,-0.675,0.196,0.187,0,0,0,0,0,0,0,0,0,0.000,0,0,0.035,0.006,0.020,-0.020,0.020,0.014,0.993,0.012,-0.006,-0.002,0.002,0.000,0.000,0.000,0.000,0,2,0,1,7,255,960,300,0,0,-89.358,0.881,-31.439
EX0521-092111,23,C11,prep,2420,2420,0,1152219.091,0.686,-0.675,0.196,0.187,0,0,0,0,0,0,0,0,0,0.000,0,0,0.069,0.009,-0.040,0.040,-0.040,0.015,0.993,0.012,-0.004,-0.008,-0.002,0.000,0.000,0.000,0.000,0,2,0,1,7,255,960,300,0,0,-89.358,0.881,-31.439
EX0521-092111,23,C11,prep,2420,2420,0,1152224.092,0.686,-0.675,0.196,0.187,0,0,0,0,0,0,0,0,0,0.000,0,0,0.035,0.009,0.020,-0.020,0.020,0.014,0.991,0.012,-0.004,-0.008,-0.002,0.000,0.000,0.000,0.000,0,2,0,1,7,255,960,300,0,0,-89.358,0.881,-31.439
EX0521-092111,23,C11,prep,2422,2422,0,1152229.092,0.686,-0.675,0.196,0.187,0,0,0,0,0,0,0,0,0,0.000,0,0,0.035,0.009,0.020,-0.020,0.020,0.013,0.992,0.011,-0.004,-0.008,-0.012,0.000,0.000,0.000,0.000,0,2,0,1,7,255,960,300,0,0,-89.358,0.881,-31.439
EX0521-092111,23,C11,prep,2422,2422,0,1152234.092,0.686,-0.675,0.196,0.187,0,0,0,0,0,0,0,0,0,0.000,0,0,0.085,0.009,0.020,-0.080,0.020,0.014,0.992,0.011,-0.004,0.008,-0.012,0.000,0.000,0.000,0.000,0,2,0,1,7,255,960,300,0,0,-89.358,0.881,-31.439
EX0521-092111,23,C11,prep,2422,2422,0,1152239.091,0.686,-0.675,0.196,0.187,0,0,0,0,0,0,0,0,0,0.000,0,0,0.060,0.009,-0.040,-0.020,-0.040,0.013,0.994,0.011,-0.004,0.008,-0.006,0.000,0.000,0.000,0.000,0,2,0,1,7,255,960,300,0,0,-89.358,0.881,-31.439
EX0521-092111,23,C11,prep,2422,2422,0,1152244.092,0.686,-0.675,0.196,0.187,0,0,0,0,0,0,0,0,0,0.000,0,0,0.060,0.008,-0.040,-0.020,-0.040,0.014,0.993,0.011,0.000,0.008,0.002,0.000,0.000,0.000,0.000,0,2,0,1,7,255,960,300,0,0,-89.358,0.881,-31.439
EX0521-092111,23,C11,prep,2463,2463,0,1152249.092,0.686,-0.675,0.196,0.187,0,0,0,0,0,0,0,0,0,0.000,0,0,0.049,0.008,-0.040,-0.020,0.020,0.014,0.993,0.011,0.000,0.008,0.002,0.000,0.000,0.000,0.000,0,2,0,1,7,255,960,300,0,0,-89.358,0.881,-31.439
EX0521-092111,23,C11,prep,2463,2463,0,1152254.091,0.686,-0.675,0.196,0.187,0,0,0,0,0,0,0,0,0,0.000,0,0,0.049,0.007,0.020,-0.020,-0.040,0.015,0.993,0.011,0.004,0.006,0.002,0.000,0.000,0.000,0.000,0,2,0,1,7,255,960,300,0,0,-89.358,0.881,-31.439
EX0521-092111,23,C11,prep,2463,2463,0,1152259.092,0.686,-0.675,0.196,0.187,0,0,0,0,0,0,0,0,0,0.000,0,0,0.049,0.004,0.020,0.040,0.020,0.015,0.993,0.012,0.000,-0.004,0.002,0.000,0.000,0.000,0.000,0,2,0,1,7,255,960,300,0,0,-89.358,0.881,-31.439
EX0521-092111,23,C11,prep,2463,2463,0,1152264.093,0.686,-0.675,0.196,0.187,0,0,0,0,0,0,0,0,0,0.000,0,0,0.049,0.013,0.020,-0.020,-0.040,0.016,0.993,0.012,0.008,-0.010,0.004,0.000,0.000,0.000,0.000,0,2,0,1,7,255,960,300,0,0,-89.358,0.881,-31.439
EX0521-092111,23,C11,prep,2463,2463,0,1152269.092,0.686,-0.675,0.196,0.187,0,0,0,0,0,0,0,0,0,0.000,0,0,0.035,0.010,0.020,-0.020,0.020,0.014,0.993,0.012,0.000,-0.010,0.004,0.000,0.000,0.000,0.000,0,2,0,1,7,255,960,300,0,0,-89.358,0.881,-31.439
EX0521-092111,23,C11,prep,2463,2463,0,1152274.091,0.686,-0.675,0.196,0.187,0,0,0,0,0,0,0,0,0,0.000,0,0,0.049,0.007,0.020,-0.020,-0.040,0.013,0.992,0.011,-0.004,-0.006,-0.002,0.000,0.000,0.000,0.000,0,2,0,1,7,255,960,300,0,0,-89.358,0.881,-31.439
