experiment_id,condition_order_index,condition_id,condition_phase,condition_phase_elapsed_ms,condition_elapsed_ms,is_stimulation_on,t_ms,R_q0,R_q1,R_q2,R_q3,R_heel1,R_mid1,R_fore1,R_heel2,R_fore3,R_mid2,R_fore4,R_fore2,R_cadence,R_speed,R_steps,R_zupt,R_gyroNorm,R_accH,R_gyro_x,R_gyro_y,R_gyro_z,R_acc_x,R_acc_y,R_acc_z,R_nav_ax,R_nav_ay,R_nav_az,R_stepVel,R_stepVelj,R_stepDispRaw,R_stepDispZUPT,R_gaitEvent,R_motorMode,R_motorActive,R_motorAlignment,R_motorRegionMask,R_motorAmplitude,R_motorIntervalMs,R_motorDurationMs,R_motorPhaseMs,R_motorCycleMs,R_roll,R_pitch,R_yaw
EX0521-092111,17,C01,prep,0,0,0,865809.092,0.685,-0.676,0.195,0.188,0,0,0,0,0,0,0,0,0,0.000,0,0,1.536,0.013,1.380,0.140,-0.660,0.014,0.999,0.009,-0.006,0.012,0.048,0.000,0.000,0.000,0.000,0,2,0,1,7,255,960,200,0,0,-89.400,0.717,-31.429
EX0521-092111,17,C01,prep,0,0,0,865814.092,0.685,-0.676,0.195,0.188,0,0,0,0,0,0,0,0,0,0.000,0,0,0.776,0.016,-0.700,-0.100,0.320,0.018,0.976,0.015,0.010,0.012,0.048,0.000,0.000,0.000,0.000,0,2,0,1,7,255,960,200,0,0,-89.392,0.719,-31.429
EX0521-092111,17,C01,prep,73,73,0,865819.092,0.685,-0.676,0.195,0.188,0,0,0,0,0,0,0,0,0,0.000,0,0,0.753,0.024,-0.700,-0.100,0.260,0.011,1.013,0.011,0.010,0.022,0.048,0.000,0.000,0.000,0.000,0,2,0,1,7,255,960,200,0,0,-89.389,0.719,-31.429
EX0521-092111,17,C01,prep,73,73,0,865824.091,0.685,-0.676,0.195,0.188,0,0,0,0,0,0,0,0,0,0.000,0,0,2.310,0.010,2.040,0.080,-1.080,0.016,0.985,0.010,0.010,-0.002,-0.086,0.000,0.000,0.000,0.000,0,2,0,1,7,255,960,200,0,0,-89.399,0.713,-31.429
EX0521-092111,17,C01,prep,73,73,0,865829.092,0.685,-0.676,0.195,0.188,0,0,0,0,0,0,0,0,0,0.000,0,0,2.759,0.004,-2.460,-0.160,1.240,0.014,0.990,0.012,-0.004,-0.002,-0.034,0.000,0.000,0.000,0.000,0,2,0,1,7,255,960,200,0,0,-89.387,0.719,-31.429
EX0521-092111,17,C01,prep,73,73,0,865834.091,0.685,-0.676,0.195,0.188,0,0,0,0,0,0,0,0,0,0.000,0,0,2.289,0.012,1.980,0.140,-1.140,0.014,1.007,0.008,0.012,-0.002,-0.034,0.000,0.000,0.000,0.000,0,2,0,1,7,255,960,200,0,0,-89.397,0.714,-31.429
EX0521-092111,17,C01,prep,73,73,0,865839.092,0.685,-0.676,0.195,0.188,0,0,0,0,0,0,0,0,0,0.000,0,0,1.077,0.006,-0.940,-0.160,0.500,0.017,0.975,0.017,0.000,-0.006,-0.034,0.000,0.000,0.000,0.000,0,2,0,1,7,255,960,200,0,0,-89.390,0.714,-31.429
EX0521-092111,17,C01,prep,73,73,0,865844.091,0.685,-0.676,0.195,0.188,0,0,0,0,0,0,0,0,0,0.000,0,0,0.416,0.032,-0.400,0.080,0.080,0.013,1.011,0.007,0.010,0.030,0.128,0.000,0.000,0.000,0.000,0,2,0,1,7,255,960,200,0,0,-89.390,0.714,-31.429
EX0521-092111,17,C01,prep,76,76,0,865849.092,0.685,-0.676,0.195,0.188,0,0,0,0,0,0,0,0,0,0.000,0,0,1.664,0.020,1.500,-0.040,-0.720,0.014,0.989,0.014,0.000,-0.020,-0.042,0.000,0.000,0.000,0.000,0,2,0,1,7,255,960,200,0,0,-89.398,0.711,-31.429
EX0521-092111,17,C01,prep,76,76,0,865854.092,0.685,-0.676,0.195,0.188,0,0,0,0,0,0,0,0,0,0.000,0,0,2.301,0.019,-2.040,-0.100,1.060,0.016,0.985,0.008,0.010,0.016,-0.042,0.000,0.000,0.000,0.000,0,2,0,1,7,255,960,200,0,0,-89.388,0.716,-31.429
EX0521-092111,17,C01,prep,76,76,0,865859.091,0.685,-0.676,0.195,0.188,0,0,0,0,0,0,0,0,0,0.000,0,0,2.126,0.019,1.860,0.140,-1.020,0.011,1.013,0.011,-0.010,0.016,-0.042,0.000,0.000,0.000,0.000,0,2,0,1,7,255,960,200,0,0,-89.397,0.711,-31.429
EX0521-092111,17,C01,prep,76,76,0,865864.093,0.685,-0.676,0.195,0.188,0,0,0,0,0,0,0,0,0,0.000,0,0,1.453,0.032,-1.240,-0.160,0.740,0.019,0.969,0.014,0.028,0.016,-0.086,0.000,0.000,0.000,0.000,0,2,0,1,7,255,960,200,0,0,-89.391,0.715,-31.429
EX0521-092111,17,C01,prep,76,76,0,865869.091,0.685,-0.676,0.195,0.188,0,0,0,0,0,0,0,0,0,0.000,0,0,0.574,0.027,0.400,0.200,-0.360,0.011,1.018,0.009,-0.012,0.024,0.190,0.000,0.000,0.000,0.000,0,2,0,1,7,255,960,200,0,0,-89.391,0.715,-31.429
EX0521-092111,17,C01,prep,76,76,0,865874.092,0.685,-0.676,0.195,0.188,0,0,0,0,0,0,0,0,0,0.000,0,0,0.398,0.048,0.280,-0.280,-0.040,0.015,0.982,0.017,-0.012,-0.046,-0.108,0.000,0.000,0.000,0.000,0,2,0,1,7,255,960,200,0,0,-89.386,0.715,-31.429
EX0521-092111,17,C01,prep,99,99,0,865879.091,0.686,-0.676,0.195,0.188,0,0,0,0,0,0,0,0,0,0.000,0,0,1.146,0.022,-1.000,0.020,0.560,0.015,0.991,0.009,-0.012,0.018,-0.028,0.000,0.000,0.000,0.000,0,2,0,1,7,255,960,200,0,0,-89.381,0.715,-31.429
EX0521-092111,17,C01,prep,99,99,0,865884.092,0.685,-0.676,0.195,0.188,0,0,0,0,0,0,0,0,0,0.000,0,0,1.850,0.025,1.560,0.260,-0.960,0.011,1.007,0.010,-0.018,0.018,-0.028,0.000,0.000,0.000,0.000,0,2,0,1,7,255,960,200,0,0,-89.388,0.710,-31.429
EX0521-092111,17,C01,prep,99,99,0,865889.091,0.686,-0.676,0.195,0.188,0,0,0,0,0,0,0,0,0,0.000,0,0,2.065,0.022,-1.800,-0.420,0.920,0.018,0.979,0.015,0.012,0.018,-0.028,0.000,0.000,0.000,0.000,0,2,0,1,7,255,960,200,0,0,-89.379,0.716,-31.429
EX0521-092111,17,C01,prep,99,99,0,865894.092,0.685,-0.676,0.195,0.188,0,0,0,0,0,0,0,0,0,0.000,0,0,1.341,0.022,1.200,0.260,-0.540,0.014,1.004,0.009,0.010,0.020,0.100,0.000,0.000,0.000,0.000,0,2,0,1,7,255,960,200,0,0,-89.385,0.716,-31.429
EX0521-092111,17,C01,prep,99,99,0,865899.092,0.685,-0.676,0.195,0.188,0,0,0,0,0,0,0,0,0,0.000,0,0,0.313,0.011,-0.020,0.200,-0.240,0.013,0.993,0.012,0.010,0.004,-0.004,0.000,0.000,0.000,0.000,0,2,0,1,7,255,960,200,0,0,-89.385,0.716,-31.429
EX0521-092111,17,C01,prep,99,99,0,865904.092,0.686,-0.676,0.195,0.188,0,0,0,0,0,0,0,0,0,0.000,0,0,1.758,0.007,-1.500,-0.540,0.740,0.016,0.992,0.013,0.006,0.004,-0.004,0.000,0.000,0.000,0.000,0,2,0,1,7,255,960,200,0,0,-89.378,0.719,-31.429
EX0521-092111,17,C01,prep,108,108,0,865909.092,0.685,-0.676,0.195,0.188,0,0,0,0,0,0,0,0,0,0.000,0,0,2.883,0.008,2.660,0.260,-1.080,0.016,0.994,0.011,0.006,-0.006,-0.004,0.000,0.000,0.000,0.000,0,2,0,1,7,255,960,200,0,0,-89.391,0.714,-31.429
EX0521-092111,17,C01,prep,108,108,0,865914.091,0.686,-0.676,0.195,0.188,0,0,0,0,0,0,0,0,0,0.000,0,0,1.701,0.015,-1.620,0.140,0.500,0.014,0.998,0.008,0.014,-0.006,0.000,0.000,0.000,0.000,0.000,0,2,0,1,7,255,960,200,0,0,-89.383,0.714,-31.429
EX0521-092111,17,C01,prep,124,124,0,865919.092,0.686,-0.676,0.195,0.188,0,0,0,0,0,0,0,0,0,0.000,0,0,1.213,0.015,-1.120,-0.340,0.320,0.015,0.994,0.016,0.014,-0.006,0.006,0.000,0.000,0.000,0.000,0,2,0,1,7,255,960,200,0,0,-89.378,0.714,-31.429
EX0521-092111,17,C01,prep,124,124,0,865924.091,0.685,-0.676,0.195,0.188,0,0,0,0,0,0,0,0,0,0.000,0,0,2.126,0.034,2.040,0.020,-0.600,0.016,0.983,0.014,0.004,-0.034,0.006,0.000,0.000,0.000,0.000,0,2,0,1,7,255,960,200,0,0,-89.388,0.711,-31.429
EX0521-092111,17,C01,prep,124,124,0,865929.092,0.685,-0.676,0.195,0.188,0,0,0,0,0,0,0,0,0,0.000,0,0,0.477,0.034,0.400,0.140,-0.220,0.013,1.010,0.003,0.004,-0.034,0.006,0.000,0.000,0.000,0.000,0,2,0,1,7,255,960,200,0,0,-89.394,0.711,-31.429
EX0521-092111,17,C01,prep,124,124,0,865934.091,0.686,-0.676,0.195,0.188,0,0,0,0,0,0,0,0,0,0.000,0,0,2.686,0.034,-2.580,-0.100,0.740,0.016,0.986,0.017,0.004,-0.034,-0.072,0.000,0.000,0.000,0.000,0,2,0,1,7,255,960,200,0,0,-89.380,0.715,-31.429
EX0521-092111,17,C01,prep,151,151,0,865939.092,0.685,-0.676,0.195,0.188,0,0,0,0,0,0,0,0,0,0.000,0,0,1.044,0.035,1.020,-0.040,-0.220,0.015,0.990,0.015,-0.008,-0.034,-0.034,0.000,0.000,0.000,0.000,0,2,0,1,7,255,960,200,0,0,-89.385,0.715,-31.429
EX0521-092111,17,C01,prep,151,151,0,865944.092,0.685,-0.676,0.195,0.188,0,0,0,0,0,0,0,0,0,0.000,0,0,2.259,0.035,2.120,0.020,-0.780,0.013,1.000,0.005,-0.008,-0.034,-0.034,0.000,0.000,0.000,0.000,0,2,0,1,7,255,960,200,0,0,-89.397,0.711,-31.429
EX0521-092111,17,C01,prep,177,177,0,865949.091,0.686,-0.676,0.195,0.188,0,0,0,0,0,0,0,0,0,0.000,0,0,3.053,0.009,-2.900,-0.160,0.940,0.015,0.993,0.011,0.008,0.004,-0.006,0.000,0.000,0.000,0.000,0,2,0,1,7,255,960,200,0,0,-89.383,0.716,-31.429
EX0521-092111,17,C01,prep,177,177,0,865954.092,0.686,-0.676,0.195,0.188,0,0,0,0,0,0,0,0,0,0.000,0,0,0.544,0.009,0.520,0.020,-0.160,0.016,0.992,0.017,0.008,0.004,-0.006,0.000,0.000,0.000,0.000,0,2,0,1,7,255,960,200,0,0,-89.377,0.716,-31.429
EX0521-092111,17,C01,prep,178,178,0,865959.095,0.686,-0.676,0.195,0.188,0,0,0,0,0,0,0,0,0,0.000,0,0,1.365,0.009,1.320,0.080,-0.340,0.014,0.992,0.009,0.008,0.004,-0.016,0.000,0.000,0.000,0.000,0,2,0,1,7,255,960,200,0,0,-89.384,0.716,-31.429
EX0521-092111,17,C01,prep,178,178,0,865964.092,0.686,-0.676,0.195,0.188,0,0,0,0,0,0,0,0,0,0.000,0,0,1.416,0.028,-1.360,-0.100,0.380,0.014,1.001,0.008,0.010,0.026,-0.016,0.000,0.000,0.000,0.000,0,2,0,1,7,255,960,200,0,0,-89.377,0.716,-31.429
EX0521-092111,17,C01,prep,178,178,0,865969.091,0.686,-0.676,0.195,0.188,0,0,0,0,0,0,0,0,0,0.000,0,0,0.173,0.028,-0.140,-0.100,0.020,0.015,0.988,0.016,0.010,0.026,-0.016,0.000,0.000,0.000,0.000,0,2,0,1,7,255,960,200,0,0,-89.372,0.716,-31.429
EX0521-092111,17,C01,prep,178,178,0,865974.093,0.686,-0.676,0.195,0.188,0,0,0,0,0,0,0,0,0,0.000,0,0,1.308,0.016,1.260,0.080,-0.340,0.015,0.995,0.010,0.012,0.010,0.008,0.000,0.000,0.000,0.000,0,2,0,1,7,255,960,200,0,0,-89.379,0.716,-31.429
EX0521-092111,17,C01,prep,188,188,0,865979.092,0.686,-0.676,0.195,0.188,0,0,0,0,0,0,0,0,0,0.000,0,0,0.343,0.016,-0.340,-0.040,0.020,0.014,1.000,0.006,0.012,0.010,0.008,0.000,0.000,0.000,0.000,0,2,0,1,7,255,960,200,0,0,-89.379,0.716,-31.429
EX0521-092111,17,C01,prep,189,189,0,865984.091,0.686,-0.676,0.195,0.188,0,0,0,0,0,0,0,0,0,0.000,0,0,1.298,0.016,-1.240,-0.040,0.380,0.015,0.986,0.016,0.012,0.010,0.008,0.000,0.000,0.000,0.000,0,2,0,1,7,255,960,200,0,0,-89.371,0.716,-31.429
EX0521-092111,17,C01,prep,189,189,0,865989.092,0.686,-0.676,0.195,0.188,0,0,0,0,0,0,0,0,0,0.000,0,0,1.119,0.006,1.080,0.080,-0.280,0.014,0.996,0.012,-0.006,-0.002,0.018,0.000,0.000,0.000,0.000,0,2,0,1,7,255,960,200,0,0,-89.376,0.716,-31.429
EX0521-092111,17,C01,prep,189,189,0,865994.091,0.686,-0.676,0.195,0.188,0,0,0,0,0,0,0,0,0,0.000,0,0,0.193,0.006,0.160,-0.040,-0.100,0.015,0.998,0.008,-0.006,-0.002,0.018,0.000,0.000,0.000,0.000,0,2,0,1,7,255,960,200,0,0,-89.376,0.716,-31.429
EX0521-092111,17,C01,prep,220,220,0,865999.092,0.686,-0.676,0.195,0.188,0,0,0,0,0,0,0,0,0,0.000,0,0,1.372,0.004,-1.300,-0.220,0.380,0.015,0.991,0.014,-0.004,-0.002,0.018,0.000,0.000,0.000,0.000,0,2,0,1,7,255,960,200,0,0,-89.370,0.716,-31.429
EX0521-092111,17,C01,prep,220,220,0,866004.092,0.686,-0.676,0.195,0.188,0,0,0,0,0,0,0,0,0,0.000,0,0,1.215,0.015,1.140,0.020,-0.420,0.015,0.994,0.013,-0.004,-0.014,0.000,0.000,0.000,0.000,0.000,0,2,0,1,7,255,960,200,0,0,-89.376,0.716,-31.429
EX0521-092111,17,C01,prep,220,220,0,866009.092,0.686,-0.676,0.195,0.188,0,0,0,0,0,0,0,0,0,0.000,0,0,0.433,0.015,0.400,-0.040,-0.160,0.015,0.996,0.008,-0.004,-0.014,0.000,0.000,0.000,0.000,0.000,0,2,0,1,7,255,960,200,0,0,-89.376,0.716,-31.429
EX0521-092111,17,C01,prep,220,220,0,866014.091,0.686,-0.676,0.195,0.188,0,0,0,0,0,0,0,0,0,0.000,0,0,1.416,0.007,-1.360,-0.100,0.380,0.014,0.995,0.013,-0.004,-0.006,0.014,0.000,0.000,0.000,0.000,0,2,0,1,7,255,960,200,0,0,-89.369,0.716,-31.429
EX0521-092111,17,C01,prep,220,220,0,866019.092,0.686,-0.676,0.195,0.188,0,0,0,0,0,0,0,0,0,0.000,0,0,0.621,0.008,0.580,0.020,-0.220,0.014,0.992,0.014,-0.006,-0.006,0.014,0.000,0.000,0.000,0.000,0,2,0,1,7,255,960,200,0,0,-89.372,0.716,-31.429
EX0521-092111,17,C01,prep,220,220,0,866024.092,0.686,-0.676,0.195,0.188,0,0,0,0,0,0,0,0,0,0.000,0,0,0.402,0.008,0.400,0.020,-0.040,0.016,0.997,0.009,-0.006,-0.006,0.014,0.000,0.000,0.000,0.000,0,2,0,1,7,255,960,200,0,0,-89.372,0.716,-31.429
EX0521-092111,17,C01,prep,236,236,0,866029.091,0.686,-0.676,0.195,0.188,0,0,0,0,0,0,0,0,0,0.000,0,0,0.847,0.006,-0.820,-0.160,0.140,0.015,0.995,0.011,0.006,0.002,0.012,0.000,0.000,0.000,0.000,0,2,0,1,7,255,960,200,0,0,-89.368,0.716,-31.429
EX0521-092111,17,C01,prep,236,236,0,866034.092,0.686,-0.676,0.195,0.188,0,0,0,0,0,0,0,0,0,0.000,0,0,0.262,0.006,0.220,-0.100,-0.100,0.015,0.992,0.013,0.006,0.002,0.012,0.000,0.000,0.000,0.000,0,2,0,1,7,255,960,200,0,0,-89.368,0.716,-31.429
EX0521-092111,17,C01,prep,236,236,0,866039.091,0.686,-0.676,0.195,0.188,0,0,0,0,0,0,0,0,0,0.000,0,0,0.924,0.006,0.880,0.020,-0.280,0.014,0.996,0.009,0.006,0.002,0.012,0.000,0.000,0.000,0.000,0,2,0,1,7,255,960,200,0,0,-89.372,0.716,-31.429
EX0521-092111,17,C01,prep,236,236,0,866044.092,0.686,-0.676,0.195,0.188,0,0,0,0,0,0,0,0,0,0.000,0,0,0.787,0.016,-0.760,-0.040,0.200,0.015,0.995,0.010,0.012,0.010,0.012,0.000,0.000,0.000,0.000,0,2,0,1,7,255,960,200,0,0,-89.368,0.716,-31.429
EX0521-092111,17,C01,prep,252,252,0,866049.091,0.686,-0.676,0.195,0.188,0,0,0,0,0,0,0,0,0,0.000,0,0,0.219,0.016,-0.200,-0.040,0.080,0.015,0.991,0.014,0.012,0.010,0.012,0.000,0.000,0.000,0.000,0,2,0,1,7,255,960,200,0,0,-89.368,0.716,-31.429
EX0521-092111,17,C01,prep,252,252,0,866054.092,0.686,-0.676,0.195,0.188,0,0,0,0,0,0,0,0,0,0.000,0,0,0.795,0.010,0.760,0.080,-0.220,0.014,0.996,0.011,0.000,0.010,0.012,0.000,0.000,0.000,0.000,0,2,0,1,7,255,960,200,0,0,-89.372,0.716,-31.429
EX0521-092111,17,C01,prep,284,284,0,866059.092,0.686,-0.676,0.195,0.188,0,0,0,0,0,0,0,0,0,0.000,0,0,0.426,0.012,-0.400,-0.040,0.140,0.015,0.994,0.009,0.000,0.012,0.004,0.000,0.000,0.000,0.000,0,2,0,1,7,255,960,200,0,0,-89.372,0.716,-31.429
EX0521-092111,17,C01,prep,284,284,0,866064.092,0.686,-0.676,0.195,0.188,0,0,0,0,0,0,0,0,0,0.000,0,0,0.255,0.012,-0.220,-0.100,0.080,0.015,0.991,0.014,0.000,0.012,0.004,0.000,0.000,0.000,0.000,0,2,0,1,7,255,960,200,0,0,-89.372,0.716,-31.429
EX0521-092111,17,C01,prep,284,284,0,866069.092,0.686,-0.676,0.195,0.188,0,0,0,0,0,0,0,0,0,0.000,0,0,0.798,0.008,0.760,-0.040,-0.240,0.014,0.993,0.013,-0.006,-0.006,-0.010,0.000,0.000,0.000,0.000,0,2,0,1,7,255,960,200,0,0,-89.376,0.716,-31.429
EX0521-092111,17,C01,prep,284,284,0,866074.093,0.686,-0.676,0.195,0.188,0,0,0,0,0,0,0,0,0,0.000,0,0,0.166,0.008,-0.160,-0.040,0.020,0.014,0.997,0.009,-0.006,-0.006,-0.010,0.000,0.000,0.000,0.000,0,2,0,1,7,255,960,200,0,0,-89.376,0.716,-31.429
EX0521-092111,17,C01,prep,284,284,0,866079.092,0.686,-0.676,0.195,0.188,0,0,0,0,0,0,0,0,0,0.000,0,0,0.792,0.012,-0.760,-0.100,0.200,0.014,0.992,0.014,-0.010,-0.006,-0.010,0.000,0.000,0.000,0.000,0,2,0,1,7,255,960,200,0,0,-89.372,0.716,-31.429
EX0521-092111,17,C01,prep,284,284,0,866084.091,0.686,-0.676,0.195,0.188,0,0,0,0,0,0,0,0,0,0.000,0,0,0.494,0.009,0.460,0.020,-0.180,0.015,0.993,0.012,0.004,-0.008,-0.006,0.000,0.000,0.000,0.000,0,2,0,1,7,255,960,200,0,0,-89.372,0.716,-31.429
EX0521-092111,17,C01,prep,284,284,0,866089.092,0.686,-0.676,0.195,0.188,0,0,0,0,0,0,0,0,0,0.000,0,0,0.049,0.009,0.040,0.020,0.020,0.014,0.996,0.009,0.004,-0.008,-0.006,0.000,0.000,0.000,0.000,0,2,0,1,7,255,960,200,0,0,-89.372,0.716,-31.429
EX0521-092111,17,C01,prep,284,284,0,866094.091,0.686,-0.676,0.195,0.188,0,0,0,0,0,0,0,0,0,0.000,0,0,0.477,0.006,-0.460,-0.100,0.080,0.014,0.993,0.012,0.004,-0.004,-0.006,0.000,0.000,0.000,0.000,0,2,0,1,7,255,960,200,0,0,-89.372,0.716,-31.429
EX0521-092111,17,C01,prep,308,308,0,866099.092,0.686,-0.676,0.195,0.188,0,0,0,0,0,0,0,0,0,0.000,0,0,0.357,0.006,0.340,-0.040,-0.100,0.015,0.993,0.012,0.004,-0.004,-0.006,0.000,0.000,0.000,0.000,0,2,0,1,7,255,960,200,0,0,-89.372,0.716,-31.429
EX0521-092111,17,C01,prep,308,308,0,866104.092,0.686,-0.676,0.195,0.188,0,0,0,0,0,0,0,0,0,0.000,0,0,0.552,0.006,0.520,-0.040,-0.180,0.015,0.997,0.010,0.004,-0.004,-0.006,0.000,0.000,0.000,0.000,0,2,0,1,7,255,960,200,0,0,-89.373,0.716,-31.429
EX0521-092111,17,C01,prep,308,308,0,866109.091,0.686,-0.676,0.195,0.188,0,0,0,0,0,0,0,0,0,0.000,0,0,0.792,0.011,-0.760,-0.100,0.200,0.014,0.994,0.011,0.004,0.010,0.004,0.000,0.000,0.000,0.000,0,2,0,1,7,255,960,200,0,0,-89.369,0.716,-31.429
EX0521-092111,17,C01,prep,308,308,0,866114.092,0.686,-0.676,0.195,0.188,0,0,0,0,0,0,0,0,0,0.000,0,0,0.166,0.010,0.160,0.020,-0.040,0.014,0.993,0.013,0.000,0.010,0.004,0.000,0.000,0.000,0.000,0,2,0,1,7,255,960,200,0,0,-89.369,0.716,-31.429
EX0521-092111,17,C01,prep,316,316,0,866119.091,0.686,-0.676,0.195,0.188,0,0,0,0,0,0,0,0,0,0.000,0,0,0.363,0.012,0.340,0.080,-0.100,0.014,0.995,0.010,0.000,0.012,0.004,0.000,0.000,0.000,0.000,0,2,0,1,7,255,960,200,0,0,-89.369,0.716,-31.429
EX0521-092111,17,C01,prep,316,316,0,866124.092,0.686,-0.676,0.195,0.188,0,0,0,0,0,0,0,0,0,0.000,0,0,0.420,0.006,-0.400,-0.100,0.080,0.015,0.994,0.011,0.006,0.002,-0.002,0.000,0.000,0.000,0.000,0,2,0,1,7,255,960,200,0,0,-89.369,0.716,-31.429
EX0521-092111,17,C01,prep,337,337,0,866129.091,0.686,-0.676,0.195,0.188,0,0,0,0,0,0,0,0,0,0.000,0,0,0.060,0.006,-0.020,-0.040,-0.040,0.014,0.993,0.014,0.006,0.002,-0.002,0.000,0.000,0.000,0.000,0,2,0,1,7,255,960,200,0,0,-89.369,0.716,-31.429
EX0521-092111,17,C01,prep,337,337,0,866134.092,0.686,-0.676,0.195,0.188,0,0,0,0,0,0,0,0,0,0.000,0,0,0.471,0.006,0.460,0.020,-0.100,0.015,0.993,0.011,0.006,0.002,-0.006,0.000,0.000,0.000,0.000,0,2,0,1,7,255,960,200,0,0,-89.369,0.716,-31.429
EX0521-092111,17,C01,prep,338,338,0,866139.092,0.686,-0.676,0.195,0.188,0,0,0,0,0,0,0,0,0,0.000,0,0,0.343,0.006,-0.340,-0.040,0.020,0.014,0.997,0.011,0.002,0.006,-0.006,0.000,0.000,0.000,0.000,0,2,0,1,7,255,960,200,0,0,-89.369,0.716,-31.429
EX0521-092111,17,C01,prep,338,338,0,866144.091,0.686,-0.676,0.195,0.188,0,0,0,0,0,0,0,0,0,0.000,0,0,0.294,0.006,-0.280,-0.040,0.080,0.015,0.992,0.013,0.002,0.006,-0.012,0.000,0.000,0.000,0.000,0,2,0,1,7,255,960,200,0,0,-89.369,0.716,-31.429
EX0521-092111,17,C01,prep,370,370,0,866149.092,0.686,-0.676,0.195,0.188,0,0,0,0,0,0,0,0,0,0.000,0,0,0.355,0.004,0.340,0.020,-0.100,0.014,0.994,0.011,0.002,0.004,0.004,0.000,0.000,0.000,0.000,0,2,0,1,7,255,960,200,0,0,-89.369,0.716,-31.429
EX0521-092111,17,C01,prep,370,370,0,866154.091,0.686,-0.676,0.195,0.188,0,0,0,0,0,0,0,0,0,0.000,0,0,0.098,0.004,-0.080,-0.040,-0.040,0.013,0.996,0.012,0.000,0.004,0.004,0.000,0.000,0.000,0.000,0,2,0,1,7,255,960,200,0,0,-89.369,0.716,-31.429
EX0521-092111,17,C01,prep,371,371,0,866159.092,0.686,-0.676,0.195,0.188,0,0,0,0,0,0,0,0,0,0.000,0,0,0.290,0.009,-0.260,-0.100,0.080,0.013,0.993,0.012,-0.008,0.004,0.004,0.000,0.000,0.000,0.000,0,2,0,1,7,255,960,200,0,0,-89.369,0.716,-31.429
EX0521-092111,17,C01,prep,371,371,0,866164.093,0.686,-0.676,0.195,0.188,0,0,0,0,0,0,0,0,0,0.000,0,0,0.355,0.008,0.340,0.020,-0.100,0.015,0.994,0.012,-0.008,0.002,-0.002,0.000,0.000,0.000,0.000,0,2,0,1,7,255,960,200,0,0,-89.369,0.716,-31.429
EX0521-092111,17,C01,prep,371,371,0,866169.092,0.686,-0.676,0.195,0.188,0,0,0,0,0,0,0,0,0,0.000,0,0,0.115,0.006,0.100,-0.040,-0.040,0.014,0.996,0.010,0.006,0.002,-0.002,0.000,0.000,0.000,0.000,0,2,0,1,7,255,960,200,0,0,-89.369,0.716,-31.429
EX0521-092111,17,C01,prep,371,371,0,866174.091,0.686,-0.676,0.195,0.188,0,0,0,0,0,0,0,0,0,0.000,0,0,0.477,0.007,-0.460,-0.100,0.080,0.014,0.993,0.011,0.006,0.004,-0.002,0.000,0.000,0.000,0.000,0,2,0,1,7,255,960,200,0,0,-89.369,0.716,-31.429
EX0521-092111,17,C01,prep,404,404,0,866179.092,0.686,-0.676,0.195,0.188,0,0,0,0,0,0,0,0,0,0.000,0,0,0.284,0.006,0.280,0.020,-0.040,0.015,0.993,0.012,0.004,0.004,-0.012,0.000,0.000,0.000,0.000,0,2,0,1,7,255,960,200,0,0,-89.369,0.716,-31.429
EX0521-092111,17,C01,prep,404,404,0,866184.092,0.686,-0.676,0.195,0.188,0,0,0,0,0,0,0,0,0,0.000,0,0,0.183,0.006,0.160,0.080,-0.040,0.015,0.994,0.010,0.004,0.004,-0.012,0.000,0.000,0.000,0.000,0,2,0,1,7,255,960,200,0,0,-89.369,0.716,-31.429
EX0521-092111,17,C01,prep,404,404,0,866189.091,0.686,-0.676,0.195,0.188,0,0,0,0,0,0,0,0,0,0.000,0,0,0.355,0.008,-0.340,-0.100,0.020,0.015,0.996,0.012,0.008,-0.002,0.004,0.000,0.000,0.000,0.000,0,2,0,1,7,255,960,200,0,0,-89.369,0.716,-31.429
EX0521-092111,17,C01,prep,404,404,0,866194.092,0.686,-0.676,0.195,0.188,0,0,0,0,0,0,0,0,0,0.000,0,0,0.115,0.009,0.100,-0.040,-0.040,0.015,0.991,0.013,0.008,-0.004,0.004,0.000,0.000,0.000,0.000,0,2,0,1,7,255,960,200,0,0,-89.369,0.716,-31.429
EX0521-092111,17,C01,prep,404,404,0,866199.091,0.686,-0.676,0.195,0.188,0,0,0,0,0,0,0,0,0,0.000,0,0,0.300,0.004,0.280,-0.040,-0.100,0.014,0.993,0.011,0.002,-0.004,-0.006,0.000,0.000,0.000,0.000,0,2,0,1,7,255,960,200,0,0,-89.369,0.716,-31.429
EX0521-092111,17,C01,prep,404,404,0,866204.092,0.686,-0.676,0.195,0.188,0,0,0,0,0,0,0,0,0,0.000,0,0,0.352,0.008,-0.340,-0.040,0.080,0.015,0.994,0.012,0.002,-0.008,-0.006,0.000,0.000,0.000,0.000,0,2,0,1,7,255,960,200,0,0,-89.369,0.716,-31.429
EX0521-092111,17,C01,prep,404,404,0,866209.091,0.686,-0.676,0.195,0.188,0,0,0,0,0,0,0,0,0,0.000,0,0,0.104,0.008,-0.020,-0.100,0.020,0.015,0.993,0.013,0.002,-0.008,-0.006,0.000,0.000,0.000,0.000,0,2,0,1,7,255,960,200,0,0,-89.369,0.716,-31.429
EX0521-092111,17,C01,prep,404,404,0,866214.092,0.686,-0.676,0.195,0.188,0,0,0,0,0,0,0,0,0,0.000,0,0,0.166,0.008,0.160,0.020,-0.040,0.014,0.995,0.011,0.000,-0.008,-0.002,0.000,0.000,0.000,0.000,0,2,0,1,7,255,960,200,0,0,-89.369,0.716,-31.429
EX0521-092111,17,C01,prep,412,412,0,866219.092,0.686,-0.676,0.195,0.188,0,0,0,0,0,0,0,0,0,0.000,0,0,0.147,0.008,-0.140,-0.040,0.020,0.014,0.994,0.011,-0.002,0.008,0.004,0.000,0.000,0.000,0.000,0,2,0,1,7,255,960,200,0,0,-89.369,0.716,-31.429
EX0521-092111,17,C01,prep,412,412,0,866224.091,0.686,-0.676,0.195,0.188,0,0,0,0,0,0,0,0,0,0.000,0,0,0.130,0.008,-0.080,-0.100,0.020,0.016,0.995,0.012,0.000,0.008,0.008,0.000,0.000,0.000,0.000,0,2,0,1,7,255,960,200,0,0,-89.369,0.716,-31.429
EX0521-092111,17,C01,prep,440,440,0,866229.092,0.686,-0.676,0.195,0.188,0,0,0,0,0,0,0,0,0,0.000,0,0,0.245,0.004,0.220,-0.040,-0.100,0.014,0.994,0.012,-0.002,-0.004,0.004,0.000,0.000,0.000,0.000,0,2,0,1,7,255,960,200,0,0,-89.369,0.716,-31.429
EX0521-092111,17,C01,prep,440,440,0,866234.091,0.686,-0.676,0.195,0.188,0,0,0,0,0,0,0,0,0,0.000,0,0,0.098,0.004,-0.080,-0.040,-0.040,0.014,0.996,0.011,0.002,-0.004,0.008,0.000,0.000,0.000,0.000,0,2,0,1,7,255,960,200,0,0,-89.369,0.716,-31.429
EX0521-092111,17,C01,prep,440,440,0,866239.092,0.686,-0.676,0.195,0.188,0,0,0,0,0,0,0,0,0,0.000,0,0,0.224,0.004,-0.200,-0.100,0.020,0.015,0.993,0.011,0.002,0.004,0.004,0.000,0.000,0.000,0.000,0,2,0,1,7,255,960,200,0,0,-89.369,0.716,-31.429
EX0521-092111,17,C01,prep,440,440,0,866244.091,0.686,-0.676,0.195,0.188,0,0,0,0,0,0,0,0,0,0.000,0,0,0.224,0.004,0.220,0.020,-0.040,0.014,0.993,0.012,0.002,0.004,-0.006,0.000,0.000,0.000,0.000,0,2,0,1,7,255,960,200,0,0,-89.369,0.716,-31.429
EX0521-092111,17,C01,prep,476,476,0,866249.092,0.686,-0.676,0.195,0.188,0,0,0,0,0,0,0,0,0,0.000,0,0,0.049,0.004,-0.020,0.020,-0.040,0.014,0.995,0.011,0.000,0.004,-0.006,0.000,0.000,0.000,0.000,0,2,0,1,7,255,960,200,0,0,-89.369,0.716,-31.429
EX0521-092111,17,C01,prep,476,476,0,866254.091,0.686,-0.676,0.195,0.188,0,0,0,0,0,0,0,0,0,0.000,0,0,0.205,0.004,-0.200,-0.040,0.020,0.014,0.993,0.012,-0.004,-0.002,-0.006,0.000,0.000,0.000,0.000,0,2,0,1,7,255,960,200,0,0,-89.369,0.716,-31.429
EX0521-092111,17,C01,prep,476,476,0,866259.092,0.686,-0.676,0.195,0.188,0,0,0,0,0,0,0,0,0,0.000,0,0,0.193,0.008,0.160,-0.040,-0.100,0.014,0.994,0.012,-0.008,-0.002,-0.002,0.000,0.000,0.000,0.000,0,2,0,1,7,255,960,200,0,0,-89.369,0.716,-31.429
EX0521-092111,17,C01,prep,476,476,0,866264.093,0.686,-0.676,0.195,0.188,0,0,0,0,0,0,0,0,0,0.000,0,0,0.110,0.008,0.100,0.020,-0.040,0.013,0.995,0.011,-0.008,-0.002,-0.002,0.000,0.000,0.000,0.000,0,2,0,1,7,255,960,200,0,0,-89.369,0.716,-31.429
EX0521-092111,17,C01,prep,477,477,0,866269.091,0.686,-0.676,0.195,0.188,0,0,0,0,0,0,0,0,0,0.000,0,0,0.147,0.013,-0.140,-0.040,0.020,0.014,0.995,0.011,-0.004,0.012,0.008,0.000,0.000,0.000,0.000,0,2,0,1,7,255,960,200,0,0,-89.369,0.716,-31.429
EX0521-092111,17,C01,prep,477,477,0,866274.092,0.686,-0.676,0.195,0.188,0,0,0,0,0,0,0,0,0,0.000,0,0,0.110,0.013,0.100,0.020,-0.040,0.014,0.994,0.012,-0.004,0.012,0.008,0.000,0.000,0.000,0.000,0,2,0,1,7,255,960,200,0,0,-89.369,0.716,-31.429
EX0521-092111,17,C01,prep,506,506,0,866279.091,0.686,-0.676,0.195,0.188,0,0,0,0,0,0,0,0,0,0.000,0,0,0.110,0.004,0.100,0.020,-0.040,0.015,0.995,0.011,0.000,0.004,0.008,0.000,0.000,0.000,0.000,0,2,0,1,7,255,960,200,0,0,-89.370,0.716,-31.429
EX0521-092111,17,C01,prep,506,506,0,866284.092,0.686,-0.676,0.195,0.188,0,0,0,0,0,0,0,0,0,0.000,0,0,0.147,0.004,-0.140,-0.040,0.020,0.014,0.994,0.011,0.000,0.004,0.002,0.000,0.000,0.000,0.000,0,2,0,1,7,255,960,200,0,0,-89.370,0.716,-31.429
EX0521-092111,17,C01,prep,506,506,0,866289.091,0.686,-0.676,0.195,0.188,0,0,0,0,0,0,0,0,0,0.000,0,0,0.110,0.004,-0.020,-0.100,-0.040,0.014,0.992,0.013,0.000,0.004,0.002,0.000,0.000,0.000,0.000,0,2,0,1,7,255,960,200,0,0,-89.370,0.716,-31.429
EX0521-092111,17,C01,prep,506,506,0,866294.092,0.686,-0.676,0.195,0.188,0,0,0,0,0,0,0,0,0,0.000,0,0,0.166,0.000,0.160,0.020,-0.040,0.015,0.994,0.011,0.000,0.000,0.002,0.000,0.000,0.000,0.000,0,2,0,1,7,255,960,200,0,0,-89.370,0.716,-31.429
EX0521-092111,17,C01,prep,506,506,0,866299.092,0.686,-0.676,0.195,0.188,0,0,0,0,0,0,0,0,0,0.000,0,0,0.173,0.000,-0.140,-0.100,0.020,0.014,0.994,0.011,0.000,0.000,-0.002,0.000,0.000,0.000,0.000,0,2,0,1,7,255,960,200,0,0,-89.370,0.716,-31.429
EX0521-092111,17,C01,prep,506,506,0,866304.092,0.686,-0.676,0.195,0.188,0,0,0,0,0,0,0,0,0,0.000,0,0,0.151,0.000,-0.140,-0.040,-0.040,0.014,0.994,0.013,0.000,0.000,0.002,0.000,0.000,0.000,0.000,0,2,0,1,7,255,960,200,0,0,-89.370,0.716,-31.429
EX0521-092111,17,C01,prep,507,507,0,866309.092,0.686,-0.676,0.195,0.188,0,0,0,0,0,0,0,0,0,0.000,0,0,0.166,0.010,0.160,0.020,-0.040,0.014,0.994,0.011,0.000,0.010,0.002,0.000,0.000,0.000,0.000,0,2,0,1,7,255,960,200,0,0,-89.370,0.716,-31.429
EX0521-092111,17,C01,prep,507,507,0,866314.091,0.686,-0.676,0.195,0.188,0,0,0,0,0,0,0,0,0,0.000,0,0,0.085,0.010,-0.080,0.020,0.020,0.014,0.995,0.010,0.000,0.010,0.002,0.000,0.000,0.000,0.000,0,2,0,1,7,255,960,200,0,0,-89.370,0.716,-31.429
EX0521-092111,17,C01,prep,524,524,0,866319.092,0.686,-0.676,0.195,0.188,0,0,0,0,0,0,0,0,0,0.000,0,0,0.085,0.010,-0.080,0.020,0.020,0.015,0.994,0.011,0.002,0.010,0.002,0.000,0.000,0.000,0.000,0,2,0,1,7,255,960,200,0,0,-89.370,0.716,-31.429
EX0521-092111,17,C01,prep,524,524,0,866324.091,0.686,-0.676,0.195,0.188,0,0,0,0,0,0,0,0,0,0.000,0,0,0.170,0.006,0.160,-0.040,-0.040,0.015,0.995,0.012,0.002,0.006,0.008,0.000,0.000,0.000,0.000,0,2,0,1,7,255,960,200,0,0,-89.370,0.716,-31.429
EX0521-092111,17,C01,prep,524,524,0,866329.092,0.686,-0.676,0.195,0.188,0,0,0,0,0,0,0,0,0,0.000,0,0,0.110,0.008,-0.020,-0.100,-0.040,0.014,0.995,0.010,0.006,0.006,0.008,0.000,0.000,0.000,0.000,0,2,0,1,7,255,960,200,0,0,-89.370,0.716,-31.429
EX0521-092111,17,C01,prep,524,524,0,866334.091,0.686,-0.676,0.195,0.188,0,0,0,0,0,0,0,0,0,0.000,0,0,0.120,0.006,-0.080,-0.040,0.080,0.015,0.993,0.011,0.006,0.002,0.008,0.000,0.000,0.000,0.000,0,2,0,1,7,255,960,200,0,0,-89.370,0.716,-31.429
EX0521-092111,17,C01,prep,541,541,0,866339.092,0.686,-0.676,0.195,0.188,0,0,0,0,0,0,0,0,0,0.000,0,0,0.069,0.006,0.040,-0.040,-0.040,0.015,0.994,0.012,0.006,0.002,0.002,0.000,0.000,0.000,0.000,0,2,0,1,7,255,960,200,0,0,-89.370,0.716,-31.429
EX0521-092111,17,C01,prep,541,541,0,866344.092,0.686,-0.676,0.195,0.188,0,0,0,0,0,0,0,0,0,0.000,0,0,0.110,0.002,0.100,0.020,-0.040,0.014,0.994,0.012,0.002,0.000,0.002,0.000,0.000,0.000,0.000,0,2,0,1,7,255,960,200,0,0,-89.370,0.716,-31.429
EX0521-092111,17,C01,prep,542,542,0,866349.091,0.686,-0.676,0.195,0.188,0,0,0,0,0,0,0,0,0,0.000,0,0,0.147,0.002,-0.140,-0.040,0.020,0.014,0.994,0.012,-0.002,0.000,0.002,0.000,0.000,0.000,0.000,0,2,0,1,7,255,960,200,0,0,-89.370,0.716,-31.429
EX0521-092111,17,C01,prep,542,542,0,866354.092,0.686,-0.676,0.195,0.188,0,0,0,0,0,0,0,0,0,0.000,0,0,0.060,0.002,0.040,0.020,-0.040,0.014,0.995,0.012,-0.002,0.000,0.002,0.000,0.000,0.000,0.000,0,2,0,1,7,255,960,200,0,0,-89.370,0.716,-31.429
EX0521-092111,17,C01,prep,575,575,0,866359.093,0.686,-0.676,0.195,0.188,0,0,0,0,0,0,0,0,0,0.000,0,0,0.115,0.002,0.100,-0.040,-0.040,0.015,0.996,0.010,-0.002,0.000,0.008,0.000,0.000,0.000,0.000,0,2,0,1,7,255,960,200,0,0,-89.370,0.716,-31.429
EX0521-092111,17,C01,prep,575,575,0,866364.092,0.686,-0.676,0.195,0.188,0,0,0,0,0,0,0,0,0,0.000,0,0,0.092,0.002,-0.080,-0.040,0.020,0.015,0.994,0.012,0.002,0.000,0.008,0.000,0.000,0.000,0.000,0,2,0,1,7,255,960,200,0,0,-89.370,0.716,-31.429
EX0521-092111,17,C01,prep,576,576,0,866369.091,0.686,-0.676,0.195,0.188,0,0,0,0,0,0,0,0,0,0.000,0,0,0.060,0.012,-0.020,-0.040,-0.040,0.016,0.993,0.012,0.012,-0.002,0.002,0.000,0.000,0.000,0.000,0,2,0,1,7,255,960,200,0,0,-89.370,0.716,-31.429
EX0521-092111,17,C01,prep,576,576,0,866374.093,0.686,-0.676,0.195,0.188,0,0,0,0,0,0,0,0,0,0.000,0,0,0.143,0.012,0.100,0.020,-0.100,0.015,0.996,0.009,0.012,-0.002,0.002,0.000,0.000,0.000,0.000,0,2,0,1,7,255,960,200,0,0,-89.370,0.716,-31.429
EX0521-092111,17,C01,prep,577,577,0,866379.092,0.686,-0.676,0.195,0.188,0,0,0,0,0,0,0,0,0,0.000,0,0,0.092,0.013,-0.080,-0.040,0.020,0.013,0.993,0.013,0.012,-0.004,-0.012,0.000,0.000,0.000,0.000,0,2,0,1,7,255,960,200,0,0,-89.370,0.716,-31.429
EX0521-092111,17,C01,prep,577,577,0,866384.091,0.686,-0.676,0.195,0.188,0,0,0,0,0,0,0,0,0,0.000,0,0,0.049,0.006,0.040,0.020,0.020,0.014,0.996,0.012,-0.006,0.002,0.016,0.000,0.000,0.000,0.000,0,2,0,1,7,255,960,200,0,0,-89.370,0.716,-31.429
EX0521-092111,17,C01,prep,588,588,0,866389.092,0.686,-0.676,0.195,0.188,0,0,0,0,0,0,0,0,0,0.000,0,0,0.170,0.007,0.160,-0.040,-0.040,0.015,0.994,0.013,-0.006,-0.004,0.002,0.000,0.000,0.000,0.000,0,2,0,1,7,255,960,200,0,0,-89.370,0.716,-31.429
EX0521-092111,17,C01,prep,588,588,0,866394.091,0.686,-0.676,0.195,0.188,0,0,0,0,0,0,0,0,0,0.000,0,0,0.049,0.006,-0.020,0.020,-0.040,0.015,0.996,0.012,-0.004,-0.004,0.016,0.000,0.000,0.000,0.000,0,2,0,1,7,255,960,200,0,0,-89.370,0.716,-31.429
EX0521-092111,17,C01,prep,607,607,0,866399.092,0.686,-0.676,0.195,0.188,0,0,0,0,0,0,0,0,0,0.000,0,0,0.130,0.004,-0.080,-0.100,0.020,0.014,0.992,0.011,0.000,-0.004,0.002,0.000,0.000,0.000,0.000,0,2,0,1,7,255,960,200,0,0,-89.370,0.716,-31.429
EX0521-092111,17,C01,prep,607,607,0,866404.092,0.686,-0.676,0.195,0.188,0,0,0,0,0,0,0,0,0,0.000,0,0,0.069,0.006,0.040,-0.040,-0.040,0.015,0.993,0.011,0.006,0.002,-0.012,0.000,0.000,0.000,0.000,0,2,0,1,7,255,960,200,0,0,-89.370,0.716,-31.429
EX0521-092111,17,C01,prep,608,608,0,866409.092,0.686,-0.676,0.195,0.188,0,0,0,0,0,0,0,0,0,0.000,0,0,0.049,0.006,-0.020,-0.040,0.020,0.015,0.994,0.012,0.006,0.002,-0.012,0.000,0.000,0.000,0.000,0,2,0,1,7,255,960,200,0,0,-89.370,0.716,-31.429
EX0521-092111,17,C01,prep,608,608,0,866414.091,0.686,-0.676,0.195,0.188,0,0,0,0,0,0,0,0,0,0.000,0,0,0.092,0.006,-0.080,-0.040,0.020,0.014,0.993,0.012,0.006,0.002,-0.008,0.000,0.000,0.000,0.000,0,2,0,1,7,255,960,200,0,0,-89.370,0.716,-31.429
EX0521-092111,17,C01,prep,620,620,0,866419.091,0.686,-0.676,0.195,0.188,0,0,0,0,0,0,0,0,0,0.000,0,0,0.115,0.002,0.040,-0.040,-0.100,0.014,0.994,0.012,-0.002,0.000,-0.002,0.000,0.000,0.000,0.000,0,2,0,1,7,255,960,200,0,0,-89.370,0.716,-31.429
EX0521-092111,17,C01,prep,620,620,0,866424.092,0.686,-0.676,0.195,0.188,0,0,0,0,0,0,0,0,0,0.000,0,0,0.069,0.002,0.040,-0.040,-0.040,0.016,0.993,0.011,-0.002,0.000,-0.006,0.000,0.000,0.000,0.000,0,2,0,1,7,255,960,200,0,0,-89.370,0.716,-31.429
EX0521-092111,17,C01,prep,636,636,0,866429.091,0.686,-0.676,0.195,0.188,0,0,0,0,0,0,0,0,0,0.000,0,0,0.092,0.004,-0.080,-0.040,0.020,0.015,0.991,0.011,0.004,0.000,-0.006,0.000,0.000,0.000,0.000,0,2,0,1,7,255,960,200,0,0,-89.370,0.716,-31.429
EX0521-092111,17,C01,prep,636,636,0,866434.092,0.686,-0.676,0.195,0.188,0,0,0,0,0,0,0,0,0,0.000,0,0,0.069,0.004,0.040,-0.040,-0.040,0.015,0.993,0.012,0.004,0.000,-0.006,0.000,0.000,0.000,0.000,0,2,0,1,7,255,960,200,0,0,-89.370,0.716,-31.429
EX0521-092111,17,C01,prep,636,636,0,866439.091,0.686,-0.676,0.195,0.188,0,0,0,0,0,0,0,0,0,0.000,0,0,0.069,0.004,0.040,-0.040,-0.040,0.015,0.994,0.011,0.004,0.002,-0.006,0.000,0.000,0.000,0.000,0,2,0,1,7,255,960,200,0,0,-89.370,0.716,-31.429
EX0521-092111,17,C01,prep,636,636,0,866444.092,0.686,-0.676,0.195,0.188,0,0,0,0,0,0,0,0,0,0.000,0,0,0.098,0.004,-0.080,-0.040,-0.040,0.015,0.995,0.011,0.004,0.000,0.002,0.000,0.000,0.000,0.000,0,2,0,1,7,255,960,200,0,0,-89.370,0.716,-31.429
EX0521-092111,17,C01,prep,668,668,0,866449.091,0.686,-0.676,0.195,0.188,0,0,0,0,0,0,0,0,0,0.000,0,0,0.069,0.004,0.040,-0.040,-0.040,0.014,0.996,0.012,0.004,0.002,0.012,0.000,0.000,0.000,0.000,0,2,0,1,7,255,960,200,0,0,-89.370,0.716,-31.429
EX0521-092111,17,C01,prep,668,668,0,866454.092,0.686,-0.676,0.195,0.188,0,0,0,0,0,0,0,0,0,0.000,0,0,0.115,0.004,0.100,-0.040,-0.040,0.015,0.994,0.011,0.004,0.002,0.012,0.000,0.000,0.000,0.000,0,2,0,1,7,255,960,200,0,0,-89.370,0.716,-31.429
EX0521-092111,17,C01,prep,668,668,0,866459.092,0.686,-0.676,0.195,0.188,0,0,0,0,0,0,0,0,0,0.000,0,0,0.098,0.002,-0.080,-0.040,-0.040,0.014,0.994,0.011,0.000,0.002,0.002,0.000,0.000,0.000,0.000,0,2,0,1,7,255,960,200,0,0,-89.370,0.716,-31.429
EX0521-092111,17,C01,prep,668,668,0,866464.092,0.686,-0.676,0.195,0.188,0,0,0,0,0,0,0,0,0,0.000,0,0,0.115,0.002,0.040,-0.100,-0.040,0.015,0.993,0.012,0.000,0.002,-0.002,0.000,0.000,0.000,0.000,0,2,0,1,7,255,960,200,0,0,-89.370,0.716,-31.429
EX0521-092111,17,C01,prep,668,668,0,866469.092,0.686,-0.676,0.195,0.188,0,0,0,0,0,0,0,0,0,0.000,0,0,0.115,0.002,0.040,-0.100,-0.040,0.015,0.993,0.012,0.000,-0.002,-0.006,0.000,0.000,0.000,0.000,0,2,0,1,7,255,960,200,0,0,-89.370,0.716,-31.429
EX0521-092111,17,C01,prep,668,668,0,866474.093,0.686,-0.676,0.195,0.188,0,0,0,0,0,0,0,0,0,0.000,0,0,0.049,0.002,-0.020,0.020,-0.040,0.014,0.992,0.012,0.000,-0.002,-0.006,0.000,0.000,0.000,0.000,0,2,0,1,7,255,960,200,0,0,-89.370,0.716,-31.429
EX0521-092111,17,C01,prep,684,684,0,866479.092,0.686,-0.676,0.195,0.188,0,0,0,0,0,0,0,0,0,0.000,0,0,0.098,0.003,-0.080,-0.040,-0.040,0.015,0.993,0.012,0.002,-0.002,-0.006,0.000,0.000,0.000,0.000,0,2,0,1,7,255,960,200,0,0,-89.370,0.716,-31.429
EX0521-092111,17,C01,prep,684,684,0,866484.091,0.686,-0.676,0.195,0.188,0,0,0,0,0,0,0,0,0,0.000,0,0,0.069,0.003,0.040,-0.040,-0.040,0.014,0.994,0.010,0.002,0.002,-0.006,0.000,0.000,0.000,0.000,0,2,0,1,7,255,960,200,0,0,-89.370,0.716,-31.429
EX0521-092111,17,C01,prep,684,684,0,866489.092,0.686,-0.676,0.195,0.188,0,0,0,0,0,0,0,0,0,0.000,0,0,0.060,0.004,-0.020,-0.040,-0.040,0.015,0.993,0.011,0.004,0.002,-0.006,0.000,0.000,0.000,0.000,0,2,0,1,7,255,960,200,0,0,-89.370,0.716,-31.429
EX0521-092111,17,C01,prep,684,684,0,866494.092,0.686,-0.676,0.195,0.188,0,0,0,0,0,0,0,0,0,0.000,0,0,0.049,0.003,-0.020,-0.040,0.020,0.014,0.993,0.013,0.002,0.002,-0.006,0.000,0.000,0.000,0.000,0,2,0,1,7,255,960,200,0,0,-89.370,0.716,-31.429
EX0521-092111,17,C01,prep,703,703,0,866499.091,0.686,-0.676,0.195,0.188,0,0,0,0,0,0,0,0,0,0.000,0,0,0.115,0.006,0.100,-0.040,-0.040,0.014,0.993,0.012,-0.006,0.002,-0.006,0.000,0.000,0.000,0.000,0,2,0,1,7,255,960,200,0,0,-89.370,0.716,-31.429
EX0521-092111,17,C01,prep,703,703,0,866504.092,0.686,-0.676,0.195,0.188,0,0,0,0,0,0,0,0,0,0.000,0,0,0.110,0.006,-0.020,-0.100,-0.040,0.014,0.994,0.011,-0.006,0.002,-0.006,0.000,0.000,0.000,0.000,0,2,0,1,7,255,960,200,0,0,-89.371,0.716,-31.429
EX0521-092111,17,C01,prep,716,716,0,866509.091,0.686,-0.676,0.195,0.188,0,0,0,0,0,0,0,0,0,0.000,0,0,0.104,0.002,-0.020,-0.100,0.020,0.015,0.994,0.012,0.000,0.002,0.004,0.000,0.000,0.000,0.000,0,2,0,1,7,255,960,200,0,0,-89.371,0.716,-31.429
EX0521-092111,17,C01,prep,716,716,0,866514.092,0.686,-0.676,0.195,0.188,0,0,0,0,0,0,0,0,0,0.000,0,0,0.069,0.002,0.040,-0.040,-0.040,0.015,0.993,0.012,0.000,-0.002,0.004,0.000,0.000,0.000,0.000,0,2,0,1,7,255,960,200,0,0,-89.371,0.716,-31.429
EX0521-092111,17,C01,prep,716,716,0,866519.091,0.686,-0.676,0.195,0.188,0,0,0,0,0,0,0,0,0,0.000,0,0,0.115,0.002,0.040,-0.040,-0.100,0.014,0.992,0.012,0.000,-0.002,-0.006,0.000,0.000,0.000,0.000,0,2,0,1,7,255,960,200,0,0,-89.371,0.716,-31.429
EX0521-092111,17,C01,prep,716,716,0,866524.092,0.686,-0.676,0.195,0.188,0,0,0,0,0,0,0,0,0,0.000,0,0,0.069,0.002,0.040,-0.040,-0.040,0.015,0.993,0.012,0.000,-0.002,-0.006,0.000,0.000,0.000,0.000,0,2,0,1,7,255,960,200,0,0,-89.371,0.716,-31.429
EX0521-092111,17,C01,prep,734,734,0,866529.092,0.686,-0.676,0.195,0.188,0,0,0,0,0,0,0,0,0,0.000,0,0,0.110,0.002,-0.020,-0.100,-0.040,0.015,0.994,0.012,0.000,-0.002,-0.006,0.000,0.000,0.000,0.000,0,2,0,1,7,255,960,200,0,0,-89.371,0.716,-31.429
EX0521-092111,17,C01,prep,734,734,0,866534.092,0.686,-0.676,0.195,0.188,0,0,0,0,0,0,0,0,0,0.000,0,0,0.060,0.006,0.040,-0.040,0.020,0.016,0.993,0.013,0.002,-0.006,-0.006,0.000,0.000,0.000,0.000,0,2,0,1,7,255,960,200,0,0,-89.371,0.716,-31.429
EX0521-092111,17,C01,prep,734,734,0,866539.092,0.686,-0.676,0.195,0.188,0,0,0,0,0,0,0,0,0,0.000,0,0,0.092,0.006,-0.080,-0.040,0.020,0.014,0.995,0.011,0.000,-0.006,0.004,0.000,0.000,0.000,0.000,0,2,0,1,7,255,960,200,0,0,-89.371,0.717,-31.429
EX0521-092111,17,C01,prep,734,734,0,866544.091,0.686,-0.676,0.195,0.188,0,0,0,0,0,0,0,0,0,0.000,0,0,0.060,0.004,-0.020,-0.040,-0.040,0.014,0.993,0.011,0.000,0.004,-0.006,0.000,0.000,0.000,0.000,0,2,0,1,7,255,960,200,0,0,-89.371,0.717,-31.429
EX0521-092111,17,C01,prep,774,774,0,866549.092,0.686,-0.676,0.195,0.188,0,0,0,0,0,0,0,0,0,0.000,0,0,0.115,0.006,0.040,-0.100,-0.040,0.015,0.992,0.011,0.000,0.006,-0.012,0.000,0.000,0.000,0.000,0,2,0,1,7,255,960,200,0,0,-89.371,0.717,-31.429
EX0521-092111,17,C01,prep,774,774,0,866554.091,0.686,-0.676,0.195,0.188,0,0,0,0,0,0,0,0,0,0.000,0,0,0.060,0.006,0.040,-0.040,0.020,0.014,0.993,0.012,-0.002,0.006,-0.012,0.000,0.000,0.000,0.000,0,2,0,1,7,255,960,200,0,0,-89.371,0.717,-31.429
EX0521-092111,17,C01,prep,775,775,0,866559.092,0.686,-0.676,0.195,0.188,0,0,0,0,0,0,0,0,0,0.000,0,0,0.060,0.004,-0.020,-0.040,-0.040,0.014,0.994,0.011,0.000,0.004,-0.006,0.000,0.000,0.000,0.000,0,2,0,1,7,255,960,200,0,0,-89.371,0.717,-31.429
EX0521-092111,17,C01,prep,775,775,0,866564.093,0.686,-0.676,0.195,0.188,0,0,0,0,0,0,0,0,0,0.000,0,0,0.069,0.004,0.040,-0.040,-0.040,0.014,0.994,0.012,-0.004,0.002,-0.002,0.000,0.000,0.000,0.000,0,2,0,1,7,255,960,200,0,0,-89.371,0.717,-31.429
EX0521-092111,17,C01,prep,776,776,0,866569.092,0.686,-0.676,0.195,0.188,0,0,0,0,0,0,0,0,0,0.000,0,0,0.060,0.006,0.040,0.020,-0.040,0.014,0.993,0.011,-0.004,0.004,-0.002,0.000,0.000,0.000,0.000,0,2,0,1,7,255,960,200,0,0,-89.371,0.717,-31.429
EX0521-092111,17,C01,prep,776,776,0,866574.092,0.686,-0.676,0.195,0.188,0,0,0,0,0,0,0,0,0,0.000,0,0,0.098,0.004,-0.080,-0.040,-0.040,0.014,0.992,0.012,-0.004,-0.002,-0.010,0.000,0.000,0.000,0.000,0,2,0,1,7,255,960,200,0,0,-89.371,0.717,-31.429
EX0521-092111,17,C01,prep,807,807,0,866579.091,0.686,-0.676,0.195,0.188,0,0,0,0,0,0,0,0,0,0.000,0,0,0.069,0.004,0.040,-0.040,-0.040,0.015,0.992,0.012,-0.004,-0.002,-0.014,0.000,0.000,0.000,0.000,0,2,0,1,7,255,960,200,0,0,-89.371,0.717,-31.429
EX0521-092111,17,C01,prep,807,807,0,866584.092,0.686,-0.676,0.195,0.188,0,0,0,0,0,0,0,0,0,0.000,0,0,0.069,0.004,0.040,-0.040,-0.040,0.015,0.994,0.011,0.004,-0.002,-0.014,0.000,0.000,0.000,0.000,0,2,0,1,7,255,960,200,0,0,-89.371,0.717,-31.429
EX0521-092111,17,C01,prep,807,807,0,866589.091,0.686,-0.676,0.195,0.188,0,0,0,0,0,0,0,0,0,0.000,0,0,0.060,0.010,-0.020,-0.040,-0.040,0.015,0.994,0.011,0.008,0.006,0.000,0.000,0.000,0.000,0.000,0,2,0,1,7,255,960,200,0,0,-89.371,0.717,-31.429
EX0521-092111,17,C01,prep,807,807,0,866594.092,0.686,-0.676,0.195,0.188,0,0,0,0,0,0,0,0,0,0.000,0,0,0.060,0.010,-0.020,-0.040,-0.040,0.015,0.993,0.011,0.008,0.006,0.000,0.000,0.000,0.000,0.000,0,2,0,1,7,255,960,200,0,0,-89.371,0.717,-31.429
EX0521-092111,17,C01,prep,808,808,0,866599.091,0.686,-0.676,0.195,0.188,0,0,0,0,0,0,0,0,0,0.000,0,0,0.060,0.010,-0.020,-0.040,-0.040,0.015,0.993,0.010,0.008,0.006,-0.006,0.000,0.000,0.000,0.000,0,2,0,1,7,255,960,200,0,0,-89.371,0.717,-31.429
EX0521-092111,17,C01,prep,808,808,0,866604.092,0.686,-0.676,0.195,0.188,0,0,0,0,0,0,0,0,0,0.000,0,0,0.098,0.013,-0.080,-0.040,-0.040,0.014,0.993,0.010,0.008,0.010,-0.006,0.000,0.000,0.000,0.000,0,2,0,1,7,255,960,200,0,0,-89.371,0.717,-31.429
EX0521-092111,17,C01,prep,808,808,0,866609.091,0.686,-0.676,0.195,0.188,0,0,0,0,0,0,0,0,0,0.000,0,0,0.060,0.011,-0.020,-0.040,-0.040,0.015,0.993,0.011,0.004,0.010,-0.006,0.000,0.000,0.000,0.000,0,2,0,1,7,255,960,200,0,0,-89.371,0.717,-31.429
EX0521-092111,17,C01,prep,808,808,0,866614.092,0.686,-0.676,0.195,0.188,0,0,0,0,0,0,0,0,0,0.000,0,0,0.115,0.004,0.040,-0.100,-0.040,0.015,0.994,0.011,0.004,0.002,-0.006,0.000,0.000,0.000,0.000,0,2,0,1,7,255,960,200,0,0,-89.371,0.717,-31.429
EX0521-092111,17,C01,prep,808,808,0,866619.092,0.686,-0.676,0.195,0.188,0,0,0,0,0,0,0,0,0,0.000,0,0,0.049,0.004,0.040,0.020,0.020,0.014,0.993,0.012,0.004,0.002,-0.006,0.000,0.000,0.000,0.000,0,2,0,1,7,255,960,200,0,0,-89.371,0.717,-31.429
EX0521-092111,17,C01,prep,808,808,0,866624.091,0.686,-0.676,0.195,0.188,0,0,0,0,0,0,0,0,0,0.000,0,0,0.069,0.004,0.040,-0.040,-0.040,0.014,0.992,0.011,-0.004,0.002,-0.010,0.000,0.000,0.000,0.000,0,2,0,1,7,255,960,200,0,0,-89.371,0.717,-31.429
EX0521-092111,17,C01,prep,836,836,0,866629.092,0.686,-0.676,0.195,0.188,0,0,0,0,0,0,0,0,0,0.000,0,0,0.069,0.004,0.040,-0.040,-0.040,0.015,0.992,0.012,-0.004,0.002,-0.014,0.000,0.000,0.000,0.000,0,2,0,1,7,255,960,200,0,0,-89.371,0.717,-31.429
EX0521-092111,17,C01,prep,836,836,0,866634.091,0.686,-0.676,0.195,0.188,0,0,0,0,0,0,0,0,0,0.000,0,0,0.069,0.007,0.040,-0.040,-0.040,0.015,0.993,0.012,0.004,-0.006,-0.014,0.000,0.000,0.000,0.000,0,2,0,1,7,255,960,200,0,0,-89.371,0.717,-31.429
EX0521-092111,17,C01,prep,836,836,0,866639.092,0.686,-0.676,0.195,0.188,0,0,0,0,0,0,0,0,0,0.000,0,0,0.092,0.007,-0.080,-0.040,0.020,0.014,0.993,0.011,0.004,-0.006,-0.010,0.000,0.000,0.000,0.000,0,2,0,1,7,255,960,200,0,0,-89.371,0.717,-31.429
EX0521-092111,17,C01,prep,836,836,0,866644.091,0.686,-0.676,0.195,0.188,0,0,0,0,0,0,0,0,0,0.000,0,0,0.060,0.004,-0.020,-0.040,-0.040,0.014,0.993,0.012,0.000,-0.004,-0.004,0.000,0.000,0.000,0.000,0,2,0,1,7,255,960,200,0,0,-89.371,0.717,-31.429
EX0521-092111,17,C01,prep,844,844,0,866649.092,0.686,-0.676,0.195,0.188,0,0,0,0,0,0,0,0,0,0.000,0,0,0.060,0.000,-0.020,-0.040,-0.040,0.015,0.993,0.011,0.000,0.000,-0.010,0.000,0.000,0.000,0.000,0,2,0,1,7,255,960,200,0,0,-89.371,0.717,-31.429
EX0521-092111,17,C01,prep,844,844,0,866654.092,0.686,-0.676,0.195,0.188,0,0,0,0,0,0,0,0,0,0.000,0,0,0.049,0.002,-0.020,-0.040,0.020,0.014,0.992,0.012,-0.002,0.000,-0.010,0.000,0.000,0.000,0.000,0,2,0,1,7,255,960,200,0,0,-89.371,0.717,-31.429
EX0521-092111,17,C01,prep,876,876,0,866659.091,0.686,-0.676,0.195,0.188,0,0,0,0,0,0,0,0,0,0.000,0,0,0.069,0.004,0.040,-0.040,-0.040,0.015,0.993,0.012,0.004,0.000,-0.010,0.000,0.000,0.000,0.000,0,2,0,1,7,255,960,200,0,0,-89.371,0.717,-31.429
EX0521-092111,17,C01,prep,876,876,0,866664.093,0.686,-0.676,0.195,0.188,0,0,0,0,0,0,0,0,0,0.000,0,0,0.049,0.003,-0.020,0.020,-0.040,0.015,0.993,0.012,0.002,-0.002,-0.004,0.000,0.000,0.000,0.000,0,2,0,1,7,255,960,200,0,0,-89.371,0.717,-31.429
EX0521-092111,17,C01,prep,876,876,0,866669.091,0.686,-0.676,0.195,0.188,0,0,0,0,0,0,0,0,0,0.000,0,0,0.060,0.003,0.040,0.020,-0.040,0.014,0.994,0.011,0.002,-0.002,-0.004,0.000,0.000,0.000,0.000,0,2,0,1,7,255,960,200,0,0,-89.371,0.717,-31.429
EX0521-092111,17,C01,prep,876,876,0,866674.092,0.686,-0.676,0.195,0.188,0,0,0,0,0,0,0,0,0,0.000,0,0,0.115,0.003,0.040,-0.040,-0.100,0.015,0.993,0.011,0.002,0.002,-0.004,0.000,0.000,0.000,0.000,0,2,0,1,7,255,960,200,0,0,-89.371,0.717,-31.429
EX0521-092111,17,C01,prep,876,876,0,866679.091,0.686,-0.676,0.195,0.188,0,0,0,0,0,0,0,0,0,0.000,0,0,0.069,0.007,0.040,-0.040,-0.040,0.014,0.994,0.010,0.004,0.006,0.000,0.000,0.000,0.000,0.000,0,2,0,1,7,255,960,200,0,0,-89.371,0.717,-31.429
EX0521-092111,17,C01,prep,876,876,0,866684.092,0.686,-0.676,0.195,0.188,0,0,0,0,0,0,0,0,0,0.000,0,0,0.060,0.007,-0.020,-0.040,-0.040,0.015,0.994,0.011,0.004,0.006,0.006,0.000,0.000,0.000,0.000,0,2,0,1,7,255,960,200,0,0,-89.371,0.717,-31.429
EX0521-092111,17,C01,prep,902,902,0,866689.091,0.686,-0.676,0.195,0.188,0,0,0,0,0,0,0,0,0,0.000,0,0,0.060,0.009,-0.020,-0.040,-0.040,0.013,0.994,0.011,0.004,0.008,0.006,0.000,0.000,0.000,0.000,0,2,0,1,7,255,960,200,0,0,-89.371,0.717,-31.429
EX0521-092111,17,C01,prep,902,902,0,866694.092,0.686,-0.676,0.195,0.188,0,0,0,0,0,0,0,0,0,0.000,0,0,0.069,0.010,0.040,-0.040,-0.040,0.014,0.994,0.013,-0.008,0.006,0.004,0.000,0.000,0.000,0.000,0,2,0,1,7,255,960,200,0,0,-89.371,0.717,-31.429
EX0521-092111,17,C01,prep,902,902,0,866699.092,0.686,-0.676,0.195,0.188,0,0,0,0,0,0,0,0,0,0.000,0,0,0.060,0.011,0.040,-0.040,0.020,0.016,0.994,0.012,-0.008,-0.008,0.000,0.000,0.000,0.000,0.000,0,2,0,1,7,255,960,200,0,0,-89.371,0.717,-31.429
EX0521-092111,17,C01,prep,902,902,0,866704.092,0.686,-0.676,0.195,0.188,0,0,0,0,0,0,0,0,0,0.000,0,0,0.049,0.008,-0.020,0.020,-0.040,0.015,0.994,0.012,0.000,-0.008,0.000,0.000,0.000,0.000,0.000,0,2,0,1,7,255,960,200,0,0,-89.371,0.717,-31.429
EX0521-092111,17,C01,prep,903,903,0,866709.092,0.686,-0.676,0.195,0.188,0,0,0,0,0,0,0,0,0,0.000,0,0,0.069,0.008,0.040,-0.040,-0.040,0.015,0.993,0.012,0.002,-0.008,0.000,0.000,0.000,0.000,0.000,0,2,0,1,7,255,960,200,0,0,-89.371,0.717,-31.429
EX0521-092111,17,C01,prep,903,903,0,866714.092,0.686,-0.676,0.195,0.188,0,0,0,0,0,0,0,0,0,0.000,0,0,0.110,0.004,-0.020,-0.100,-0.040,0.014,0.994,0.012,0.000,-0.004,0.000,0.000,0.000,0.000,0.000,0,2,0,1,7,255,960,200,0,0,-89.371,0.717,-31.429
EX0521-092111,17,C01,prep,939,939,0,866719.092,0.686,-0.676,0.195,0.188,0,0,0,0,0,0,0,0,0,0.000,0,0,0.115,0.006,0.040,-0.100,-0.040,0.014,0.993,0.012,-0.006,-0.002,-0.004,0.000,0.000,0.000,0.000,0,2,0,1,7,255,960,200,0,0,-89.371,0.717,-31.429
EX0521-092111,17,C01,prep,939,939,0,866724.091,0.686,-0.676,0.195,0.188,0,0,0,0,0,0,0,0,0,0.000,0,0,0.069,0.006,0.040,-0.040,-0.040,0.014,0.994,0.011,-0.006,0.002,0.000,0.000,0.000,0.000,0.000,0,2,0,1,7,255,960,200,0,0,-89.372,0.717,-31.429
EX0521-092111,17,C01,prep,939,939,0,866729.092,0.686,-0.676,0.195,0.188,0,0,0,0,0,0,0,0,0,0.000,0,0,0.069,0.004,0.040,-0.040,-0.040,0.014,0.993,0.011,-0.002,0.004,-0.004,0.000,0.000,0.000,0.000,0,2,0,1,7,255,960,200,0,0,-89.372,0.717,-31.429
EX0521-092111,17,C01,prep,939,939,0,866734.092,0.686,-0.676,0.195,0.188,0,0,0,0,0,0,0,0,0,0.000,0,0,0.060,0.010,-0.020,-0.040,-0.040,0.015,0.994,0.010,0.000,0.010,0.000,0.000,0.000,0.000,0.000,0,2,0,1,7,255,960,200,0,0,-89.372,0.717,-31.429
EX0521-092111,17,C01,prep,940,940,0,866739.091,0.686,-0.676,0.195,0.188,0,0,0,0,0,0,0,0,0,0.000,0,0,0.069,0.010,0.040,-0.040,-0.040,0.014,0.993,0.011,0.002,0.010,-0.004,0.000,0.000,0.000,0.000,0,2,0,1,7,255,960,200,0,0,-89.372,0.717,-31.429
EX0521-092111,17,C01,prep,940,940,0,866744.092,0.686,-0.676,0.195,0.188,0,0,0,0,0,0,0,0,0,0.000,0,0,0.060,0.008,-0.020,-0.040,-0.040,0.014,0.994,0.012,0.002,0.008,0.000,0.000,0.000,0.000,0.000,0,2,0,1,7,255,960,200,0,0,-89.372,0.717,-31.429
EX0521-092111,17,C01,prep,972,972,0,866749.091,0.686,-0.676,0.195,0.188,0,0,0,0,0,0,0,0,0,0.000,0,0,0.060,0.006,-0.020,-0.040,-0.040,0.014,0.994,0.011,-0.002,0.006,0.000,0.000,0.000,0.000,0.000,0,2,0,1,7,255,960,200,0,0,-89.372,0.717,-31.429
EX0521-092111,17,C01,prep,972,972,0,866754.092,0.686,-0.676,0.195,0.188,0,0,0,0,0,0,0,0,0,0.000,0,0,0.060,0.002,-0.020,-0.040,-0.040,0.014,0.995,0.012,-0.002,0.000,0.000,0.000,0.000,0.000,0.000,0,2,0,1,7,255,960,200,0,0,-89.372,0.717,-31.429
EX0521-092111,17,C01,prep,974,974,0,866759.095,0.686,-0.676,0.195,0.188,0,0,0,0,0,0,0,0,0,0.000,0,0,0.069,0.002,0.040,-0.040,-0.040,0.015,0.993,0.012,-0.002,0.000,0.000,0.000,0.000,0.000,0.000,0,2,0,1,7,255,960,200,0,0,-89.372,0.717,-31.429
EX0521-092111,17,C01,prep,974,974,0,866764.092,0.686,-0.676,0.195,0.188,0,0,0,0,0,0,0,0,0,0.000,0,0,0.098,0.004,-0.080,-0.040,-0.040,0.015,0.993,0.010,0.004,0.000,-0.004,0.000,0.000,0.000,0.000,0,2,0,1,7,255,960,200,0,0,-89.372,0.717,-31.429
EX0521-092111,17,C01,prep,974,974,0,866769.091,0.686,-0.676,0.195,0.188,0,0,0,0,0,0,0,0,0,0.000,0,0,0.060,0.004,-0.020,-0.040,-0.040,0.014,0.993,0.012,0.004,0.000,-0.008,0.000,0.000,0.000,0.000,0,2,0,1,7,255,960,200,0,0,-89.372,0.717,-31.429
EX0521-092111,17,C01,prep,974,974,0,866774.093,0.686,-0.676,0.195,0.188,0,0,0,0,0,0,0,0,0,0.000,0,0,0.049,0.003,-0.020,0.020,-0.040,0.014,0.993,0.012,-0.002,0.002,-0.008,0.000,0.000,0.000,0.000,0,2,0,1,7,255,960,200,0,0,-89.372,0.717,-31.429
EX0521-092111,17,C01,prep,988,988,0,866779.092,0.686,-0.676,0.195,0.188,0,0,0,0,0,0,0,0,0,0.000,0,0,0.092,0.004,-0.080,-0.040,0.020,0.014,0.993,0.012,-0.004,0.000,-0.008,0.000,0.000,0.000,0.000,0,2,0,1,7,255,960,200,0,0,-89.372,0.717,-31.429
EX0521-092111,17,C01,prep,988,988,0,866784.091,0.686,-0.676,0.195,0.188,0,0,0,0,0,0,0,0,0,0.000,0,0,0.049,0.006,-0.020,-0.040,0.020,0.015,0.993,0.012,-0.004,-0.004,-0.004,0.000,0.000,0.000,0.000,0,2,0,1,7,255,960,200,0,0,-89.372,0.717,-31.429
EX0521-092111,17,C01,prep,988,988,0,866789.092,0.686,-0.676,0.195,0.188,0,0,0,0,0,0,0,0,0,0.000,0,0,0.060,0.008,-0.020,-0.040,-0.040,0.015,0.994,0.012,0.000,-0.008,-0.004,0.000,0.000,0.000,0.000,0,2,0,1,7,255,960,200,0,0,-89.372,0.717,-31.429
EX0521-092111,17,C01,prep,988,988,0,866794.091,0.686,-0.676,0.195,0.188,0,0,0,0,0,0,0,0,0,0.000,0,0,0.060,0.008,-0.020,-0.040,-0.040,0.013,0.994,0.011,0.000,-0.008,0.000,0.000,0.000,0.000,0.000,0,2,0,1,7,255,960,200,0,0,-89.372,0.717,-31.429
EX0521-092111,17,C01,prep,1006,1006,0,866799.092,0.686,-0.676,0.195,0.188,0,0,0,0,0,0,0,0,0,0.000,0,0,0.049,0.008,-0.020,-0.040,0.020,0.015,0.992,0.012,0.000,-0.008,0.000,0.000,0.000,0.000,0.000,0,2,0,1,7,255,960,200,0,0,-89.372,0.717,-31.429
EX0521-092111,17,C01,prep,1006,1006,0,866804.092,0.686,-0.676,0.195,0.188,0,0,0,0,0,0,0,0,0,0.000,0,0,0.060,0.000,-0.020,-0.040,-0.040,0.015,0.993,0.011,0.000,0.000,-0.004,0.000,0.000,0.000,0.000,0,2,0,1,7,255,960,200,0,0,-89.372,0.717,-31.429
EX0521-092111,17,C01,prep,1006,1006,0,866809.092,0.686,-0.676,0.195,0.188,0,0,0,0,0,0,0,0,0,0.000,0,0,0.060,0.000,-0.020,-0.040,-0.040,0.013,0.994,0.012,0.000,0.000,-0.004,0.000,0.000,0.000,0.000,0,2,0,1,7,255,960,200,0,0,-89.372,0.717,-31.429
EX0521-092111,17,C01,prep,1006,1006,0,866814.091,0.686,-0.676,0.195,0.188,0,0,0,0,0,0,0,0,0,0.000,0,0,0.092,0.002,-0.080,0.020,-0.040,0.014,0.993,0.012,-0.002,0.000,-0.004,0.000,0.000,0.000,0.000,0,2,0,1,7,255,960,200,0,0,-89.372,0.717,-31.429
EX0521-092111,17,C01,prep,1020,1020,0,866819.092,0.686,-0.676,0.195,0.188,0,0,0,0,0,0,0,0,0,0.000,0,0,0.049,0.006,-0.020,-0.040,0.020,0.014,0.994,0.012,-0.006,0.002,0.000,0.000,0.000,0.000,0.000,0,2,0,1,7,255,960,200,0,0,-89.372,0.717,-31.429
EX0521-092111,17,C01,prep,1020,1020,0,866824.092,0.686,-0.676,0.195,0.188,0,0,0,0,0,0,0,0,0,0.000,0,0,0.049,0.006,-0.020,-0.040,0.020,0.013,0.993,0.012,-0.006,0.000,-0.004,0.000,0.000,0.000,0.000,0,2,0,1,7,255,960,200,0,0,-89.372,0.717,-31.429
EX0521-092111,17,C01,prep,1020,1020,0,866829.091,0.686,-0.676,0.195,0.188,0,0,0,0,0,0,0,0,0,0.000,0,0,0.049,0.006,-0.020,-0.040,0.020,0.014,0.993,0.012,-0.006,0.000,-0.004,0.000,0.000,0.000,0.000,0,2,0,1,7,255,960,200,0,0,-89.372,0.717,-31.429
EX0521-092111,17,C01,prep,1020,1020,0,866834.092,0.686,-0.676,0.195,0.188,0,0,0,0,0,0,0,0,0,0.000,0,0,0.060,0.002,-0.020,-0.040,-0.040,0.015,0.993,0.012,-0.002,0.000,-0.008,0.000,0.000,0.000,0.000,0,2,0,1,7,255,960,200,0,0,-89.372,0.717,-31.429
EX0521-092111,17,C01,prep,1040,1040,0,866839.091,0.686,-0.676,0.195,0.188,0,0,0,0,0,0,0,0,0,0.000,0,0,0.069,0.008,0.040,-0.040,-0.040,0.015,0.992,0.012,0.006,-0.006,-0.008,0.000,0.000,0.000,0.000,0,2,0,1,7,255,960,200,0,0,-89.372,0.717,-31.429
EX0521-092111,17,C01,prep,1041,1041,0,866844.092,0.686,-0.676,0.195,0.188,0,0,0,0,0,0,0,0,0,0.000,0,0,0.060,0.008,-0.020,-0.040,-0.040,0.015,0.993,0.011,0.006,-0.006,-0.008,0.000,0.000,0.000,0.000,0,2,0,1,7,255,960,200,0,0,-89.372,0.717,-31.429
EX0521-092111,17,C01,prep,1074,1074,0,866849.091,0.686,-0.676,0.195,0.188,0,0,0,0,0,0,0,0,0,0.000,0,0,0.069,0.007,0.040,-0.040,-0.040,0.014,0.993,0.013,0.004,-0.006,-0.008,0.000,0.000,0.000,0.000,0,2,0,1,7,255,960,200,0,0,-89.372,0.717,-31.429
EX0521-092111,17,C01,prep,1074,1074,0,866854.092,0.686,-0.676,0.195,0.188,0,0,0,0,0,0,0,0,0,0.000,0,0,0.060,0.002,-0.020,-0.040,-0.040,0.014,0.993,0.012,-0.002,0.000,-0.008,0.000,0.000,0.000,0.000,0,2,0,1,7,255,960,200,0,0,-89.372,0.717,-31.429
EX0521-092111,17,C01,prep,1075,1075,0,866859.092,0.686,-0.676,0.195,0.188,0,0,0,0,0,0,0,0,0,0.000,0,0,0.060,0.002,-0.020,-0.040,-0.040,0.014,0.993,0.012,-0.002,0.000,-0.008,0.000,0.000,0.000,0.000,0,2,0,1,7,255,960,200,0,0,-89.372,0.717,-31.429
EX0521-092111,17,C01,prep,1075,1075,0,866864.092,0.686,-0.676,0.195,0.188,0,0,0,0,0,0,0,0,0,0.000,0,0,0.060,0.002,-0.020,-0.040,-0.040,0.015,0.994,0.011,-0.002,0.000,-0.008,0.000,0.000,0.000,0.000,0,2,0,1,7,255,960,200,0,0,-89.372,0.717,-31.429
EX0521-092111,17,C01,prep,1075,1075,0,866869.092,0.686,-0.676,0.195,0.188,0,0,0,0,0,0,0,0,0,0.000,0,0,0.069,0.004,0.040,-0.040,-0.040,0.015,0.994,0.012,0.004,0.000,0.002,0.000,0.000,0.000,0.000,0,2,0,1,7,255,960,200,0,0,-89.372,0.717,-31.429
EX0521-092111,17,C01,prep,1075,1075,0,866874.093,0.686,-0.676,0.195,0.188,0,0,0,0,0,0,0,0,0,0.000,0,0,0.069,0.009,0.040,-0.040,-0.040,0.014,0.993,0.013,0.004,-0.008,0.002,0.000,0.000,0.000,0.000,0,2,0,1,7,255,960,200,0,0,-89.372,0.717,-31.429
EX0521-092111,17,C01,prep,1106,1106,0,866879.092,0.686,-0.676,0.195,0.188,0,0,0,0,0,0,0,0,0,0.000,0,0,0.060,0.009,-0.020,-0.040,-0.040,0.015,0.993,0.011,0.004,-0.008,-0.004,0.000,0.000,0.000,0.000,0,2,0,1,7,255,960,200,0,0,-89.372,0.717,-31.429
EX0521-092111,17,C01,prep,1107,1107,0,866884.091,0.686,-0.676,0.195,0.188,0,0,0,0,0,0,0,0,0,0.000,0,0,0.110,0.002,-0.020,-0.100,-0.040,0.014,0.993,0.011,0.000,0.002,-0.008,0.000,0.000,0.000,0.000,0,2,0,1,7,255,960,200,0,0,-89.372,0.717,-31.429
EX0521-092111,17,C01,prep,1107,1107,0,866889.092,0.686,-0.676,0.195,0.188,0,0,0,0,0,0,0,0,0,0.000,0,0,0.060,0.004,-0.020,-0.040,-0.040,0.015,0.992,0.011,0.004,0.002,-0.008,0.000,0.000,0.000,0.000,0,2,0,1,7,255,960,200,0,0,-89.372,0.717,-31.429
EX0521-092111,17,C01,prep,1107,1107,0,866894.091,0.686,-0.676,0.195,0.188,0,0,0,0,0,0,0,0,0,0.000,0,0,0.060,0.002,-0.020,-0.040,-0.040,0.014,0.993,0.012,0.000,0.002,-0.008,0.000,0.000,0.000,0.000,0,2,0,1,7,255,960,200,0,0,-89.372,0.717,-31.429
EX0521-092111,17,C01,prep,1109,1109,0,866899.092,0.686,-0.676,0.195,0.188,0,0,0,0,0,0,0,0,0,0.000,0,0,0.069,0.000,0.040,-0.040,-0.040,0.015,0.993,0.012,0.000,0.000,-0.004,0.000,0.000,0.000,0.000,0,2,0,1,7,255,960,200,0,0,-89.372,0.717,-31.429
EX0521-092111,17,C01,prep,1109,1109,0,866904.092,0.686,-0.676,0.195,0.188,0,0,0,0,0,0,0,0,0,0.000,0,0,0.049,0.006,-0.020,0.020,-0.040,0.014,0.993,0.012,-0.004,-0.004,-0.004,0.000,0.000,0.000,0.000,0,2,0,1,7,255,960,200,0,0,-89.372,0.717,-31.429
EX0521-092111,17,C01,prep,1109,1109,0,866909.091,0.686,-0.676,0.195,0.188,0,0,0,0,0,0,0,0,0,0.000,0,0,0.060,0.004,-0.020,-0.040,-0.040,0.014,0.993,0.012,-0.002,-0.004,-0.002,0.000,0.000,0.000,0.000,0,2,0,1,7,255,960,200,0,0,-89.372,0.717,-31.429
EX0521-092111,17,C01,prep,1110,1110,0,866914.092,0.686,-0.676,0.195,0.188,0,0,0,0,0,0,0,0,0,0.000,0,0,0.049,0.002,-0.020,-0.040,0.020,0.015,0.993,0.011,-0.002,0.000,-0.002,0.000,0.000,0.000,0.000,0,2,0,1,7,255,960,200,0,0,-89.372,0.717,-31.429
EX0521-092111,17,C01,prep,1110,1110,0,866919.091,0.686,-0.676,0.195,0.188,0,0,0,0,0,0,0,0,0,0.000,0,0,0.060,0.004,-0.020,-0.040,-0.040,0.013,0.993,0.012,-0.002,0.004,-0.002,0.000,0.000,0.000,0.000,0,2,0,1,7,255,960,200,0,0,-89.372,0.717,-31.429
EX0521-092111,17,C01,prep,1110,1110,0,866924.092,0.686,-0.676,0.195,0.188,0,0,0,0,0,0,0,0,0,0.000,0,0,0.069,0.004,0.040,-0.040,-0.040,0.015,0.995,0.012,0.002,0.004,-0.002,0.000,0.000,0.000,0.000,0,2,0,1,7,255,960,200,0,0,-89.372,0.717,-31.429
EX0521-092111,17,C01,prep,1148,1148,0,866929.091,0.686,-0.676,0.195,0.188,0,0,0,0,0,0,0,0,0,0.000,0,0,0.060,0.003,-0.020,-0.040,-0.040,0.016,0.993,0.011,0.002,-0.002,-0.002,0.000,0.000,0.000,0.000,0,2,0,1,7,255,960,200,0,0,-89.372,0.717,-31.429
EX0521-092111,17,C01,prep,1148,1148,0,866934.092,0.686,-0.676,0.195,0.188,0,0,0,0,0,0,0,0,0,0.000,0,0,0.049,0.014,-0.020,0.020,-0.040,0.016,0.993,0.011,0.014,-0.002,-0.002,0.000,0.000,0.000,0.000,0,2,0,1,7,255,960,200,0,0,-89.372,0.717,-31.429
EX0521-092111,17,C01,prep,1148,1148,0,866939.091,0.686,-0.676,0.195,0.188,0,0,0,0,0,0,0,0,0,0.000,0,0,0.060,0.015,-0.020,-0.040,-0.040,0.015,0.993,0.012,0.014,-0.006,-0.002,0.000,0.000,0.000,0.000,0,2,0,1,7,255,960,200,0,0,-89.372,0.717,-31.429
EX0521-092111,17,C01,prep,1148,1148,0,866944.092,0.686,-0.676,0.195,0.188,0,0,0,0,0,0,0,0,0,0.000,0,0,0.049,0.006,-0.020,-0.040,0.020,0.014,0.993,0.012,0.006,0.000,-0.002,0.000,0.000,0.000,0.000,0,2,0,1,7,255,960,200,0,0,-89.373,0.717,-31.429
EX0521-092111,17,C01,prep,1148,1148,0,866949.092,0.686,-0.676,0.195,0.188,0,0,0,0,0,0,0,0,0,0.000,0,0,0.060,0.002,-0.020,-0.040,-0.040,0.014,0.994,0.011,0.000,0.002,-0.002,0.000,0.000,0.000,0.000,0,2,0,1,7,255,960,200,0,0,-89.373,0.717,-31.429
EX0521-092111,17,C01,prep,1148,1148,0,866954.092,0.686,-0.676,0.195,0.188,0,0,0,0,0,0,0,0,0,0.000,0,0,0.115,0.002,0.040,-0.100,-0.040,0.016,0.994,0.011,0.000,0.002,0.002,0.000,0.000,0.000,0.000,0,2,0,1,7,255,960,200,0,0,-89.373,0.717,-31.429
EX0521-092111,17,C01,prep,1180,1180,0,866959.092,0.686,-0.676,0.195,0.188,0,0,0,0,0,0,0,0,0,0.000,0,0,0.060,0.010,-0.020,-0.040,-0.040,0.015,0.993,0.011,0.010,0.002,0.002,0.000,0.000,0.000,0.000,0,2,0,1,7,255,960,200,0,0,-89.373,0.717,-31.429
EX0521-092111,17,C01,prep,1180,1180,0,866964.093,0.686,-0.676,0.195,0.188,0,0,0,0,0,0,0,0,0,0.000,0,0,0.060,0.010,-0.020,-0.040,-0.040,0.014,0.992,0.011,0.010,0.002,-0.002,0.000,0.000,0.000,0.000,0,2,0,1,7,255,960,200,0,0,-89.373,0.717,-31.429
EX0521-092111,17,C01,prep,1180,1180,0,866969.092,0.686,-0.676,0.195,0.188,0,0,0,0,0,0,0,0,0,0.000,0,0,0.110,0.003,-0.020,-0.100,-0.040,0.014,0.994,0.012,0.002,0.002,-0.002,0.000,0.000,0.000,0.000,0,2,0,1,7,255,960,200,0,0,-89.373,0.717,-31.429
EX0521-092111,17,C01,prep,1180,1180,0,866974.091,0.686,-0.676,0.195,0.188,0,0,0,0,0,0,0,0,0,0.000,0,0,0.049,0.002,-0.020,0.020,-0.040,0.014,0.994,0.012,-0.002,0.000,0.002,0.000,0.000,0.000,0.000,0,2,0,1,7,255,960,200,0,0,-89.373,0.717,-31.429
EX0521-092111,17,C01,prep,1180,1180,0,866979.092,0.686,-0.676,0.195,0.188,0,0,0,0,0,0,0,0,0,0.000,0,0,0.104,0.002,-0.020,-0.100,0.020,0.014,0.993,0.012,-0.002,0.000,0.002,0.000,0.000,0.000,0.000,0,2,0,1,7,255,960,200,0,0,-89.373,0.717,-31.429
EX0521-092111,17,C01,prep,1180,1180,0,866984.091,0.686,-0.676,0.195,0.188,0,0,0,0,0,0,0,0,0,0.000,0,0,0.069,0.002,0.040,-0.040,-0.040,0.014,0.993,0.012,-0.002,0.000,-0.002,0.000,0.000,0.000,0.000,0,2,0,1,7,255,960,200,0,0,-89.373,0.717,-31.429
EX0521-092111,17,C01,prep,1209,1209,0,866989.092,0.686,-0.676,0.195,0.188,0,0,0,0,0,0,0,0,0,0.000,0,0,0.060,0.003,-0.020,-0.040,-0.040,0.014,0.992,0.011,-0.002,0.002,-0.008,0.000,0.000,0.000,0.000,0,2,0,1,7,255,960,200,0,0,-89.373,0.717,-31.429
EX0521-092111,17,C01,prep,1209,1209,0,866994.092,0.686,-0.676,0.195,0.188,0,0,0,0,0,0,0,0,0,0.000,0,0,0.104,0.002,-0.020,-0.100,0.020,0.015,0.994,0.012,0.000,0.002,-0.002,0.000,0.000,0.000,0.000,0,2,0,1,7,255,960,200,0,0,-89.373,0.717,-31.429
EX0521-092111,17,C01,prep,1209,1209,0,866999.092,0.686,-0.676,0.195,0.188,0,0,0,0,0,0,0,0,0,0.000,0,0,0.060,0.008,-0.020,-0.040,-0.040,0.016,0.993,0.012,0.000,-0.008,-0.006,0.000,0.000,0.000,0.000,0,2,0,1,7,255,960,200,0,0,-89.373,0.717,-31.429
EX0521-092111,17,C01,prep,1209,1209,0,867004.092,0.686,-0.676,0.195,0.188,0,0,0,0,0,0,0,0,0,0.000,0,0,0.115,0.008,0.100,-0.040,-0.040,0.015,0.992,0.012,0.002,-0.008,-0.006,0.000,0.000,0.000,0.000,0,2,0,1,7,255,960,200,0,0,-89.373,0.717,-31.429
EX0521-092111,17,C01,prep,1210,1210,0,867009.092,0.686,-0.676,0.195,0.188,0,0,0,0,0,0,0,0,0,0.000,0,0,0.115,0.006,0.040,-0.100,-0.040,0.015,0.993,0.012,0.002,-0.006,-0.006,0.000,0.000,0.000,0.000,0,2,0,1,7,255,960,200,0,0,-89.373,0.717,-31.429
EX0521-092111,17,C01,prep,1210,1210,0,867014.092,0.686,-0.676,0.195,0.188,0,0,0,0,0,0,0,0,0,0.000,0,0,0.060,0.004,-0.020,-0.040,-0.040,0.015,0.994,0.011,0.002,-0.004,-0.002,0.000,0.000,0.000,0.000,0,2,0,1,7,255,960,200,0,0,-89.373,0.717,-31.429
EX0521-092111,17,C01,prep,1241,1241,0,867019.091,0.686,-0.676,0.195,0.188,0,0,0,0,0,0,0,0,0,0.000,0,0,0.060,0.003,0.040,-0.040,0.020,0.015,0.993,0.012,0.002,-0.002,-0.002,0.000,0.000,0.000,0.000,0,2,0,1,7,255,960,200,0,0,-89.373,0.717,-31.429
EX0521-092111,17,C01,prep,1241,1241,0,867024.092,0.686,-0.676,0.195,0.188,0,0,0,0,0,0,0,0,0,0.000,0,0,0.049,0.003,-0.020,-0.040,0.020,0.013,0.993,0.012,0.002,0.002,-0.002,0.000,0.000,0.000,0.000,0,2,0,1,7,255,960,200,0,0,-89.373,0.717,-31.429
EX0521-092111,17,C01,prep,1241,1241,0,867029.091,0.686,-0.676,0.195,0.188,0,0,0,0,0,0,0,0,0,0.000,0,0,0.060,0.006,-0.020,-0.040,-0.040,0.014,0.993,0.012,-0.006,0.002,-0.006,0.000,0.000,0.000,0.000,0,2,0,1,7,255,960,200,0,0,-89.373,0.717,-31.429
EX0521-092111,17,C01,prep,1241,1241,0,867034.092,0.686,-0.676,0.195,0.188,0,0,0,0,0,0,0,0,0,0.000,0,0,0.060,0.006,-0.020,-0.040,-0.040,0.014,0.994,0.012,-0.006,0.002,-0.002,0.000,0.000,0.000,0.000,0,2,0,1,7,255,960,200,0,0,-89.373,0.717,-31.429
EX0521-092111,17,C01,prep,1243,1243,0,867039.091,0.686,-0.676,0.195,0.188,0,0,0,0,0,0,0,0,0,0.000,0,0,0.060,0.002,-0.020,-0.040,-0.040,0.015,0.993,0.012,-0.002,0.000,-0.002,0.000,0.000,0.000,0.000,0,2,0,1,7,255,960,200,0,0,-89.373,0.717,-31.429
EX0521-092111,17,C01,prep,1243,1243,0,867044.092,0.686,-0.676,0.195,0.188,0,0,0,0,0,0,0,0,0,0.000,0,0,0.060,0.006,-0.020,-0.040,-0.040,0.015,0.994,0.011,0.006,0.000,0.002,0.000,0.000,0.000,0.000,0,2,0,1,7,255,960,200,0,0,-89.373,0.717,-31.429
EX0521-092111,17,C01,prep,1272,1272,0,867049.092,0.686,-0.676,0.195,0.188,0,0,0,0,0,0,0,0,0,0.000,0,0,0.098,0.008,-0.080,-0.040,-0.040,0.014,0.994,0.013,0.006,-0.006,0.008,0.000,0.000,0.000,0.000,0,2,0,1,7,255,960,200,0,0,-89.373,0.717,-31.429
EX0521-092111,17,C01,prep,1272,1272,0,867054.091,0.686,-0.676,0.195,0.188,0,0,0,0,0,0,0,0,0,0.000,0,0,0.049,0.002,-0.020,0.020,-0.040,0.014,0.993,0.011,0.000,0.002,0.008,0.000,0.000,0.000,0.000,0,2,0,1,7,255,960,200,0,0,-89.373,0.717,-31.429
EX0521-092111,17,C01,prep,1273,1273,0,867059.092,0.686,-0.676,0.195,0.188,0,0,0,0,0,0,0,0,0,0.000,0,0,0.060,0.006,-0.020,-0.040,-0.040,0.014,0.993,0.012,-0.006,0.002,-0.002,0.000,0.000,0.000,0.000,0,2,0,1,7,255,960,200,0,0,-89.373,0.717,-31.429
EX0521-092111,17,C01,prep,1273,1273,0,867064.093,0.686,-0.676,0.195,0.188,0,0,0,0,0,0,0,0,0,0.000,0,0,0.049,0.002,-0.020,0.020,-0.040,0.015,0.993,0.012,0.000,0.002,-0.006,0.000,0.000,0.000,0.000,0,2,0,1,7,255,960,200,0,0,-89.373,0.717,-31.429
EX0521-092111,17,C01,prep,1274,1274,0,867069.092,0.686,-0.676,0.195,0.188,0,0,0,0,0,0,0,0,0,0.000,0,0,0.060,0.003,-0.020,-0.040,-0.040,0.015,0.993,0.011,0.002,0.002,-0.002,0.000,0.000,0.000,0.000,0,2,0,1,7,255,960,200,0,0,-89.373,0.717,-31.429
EX0521-092111,17,C01,prep,1274,1274,0,867074.091,0.686,-0.676,0.195,0.188,0,0,0,0,0,0,0,0,0,0.000,0,0,0.060,0.004,0.040,-0.040,0.020,0.016,0.993,0.011,0.004,-0.002,-0.002,0.000,0.000,0.000,0.000,0,2,0,1,7,255,960,200,0,0,-89.373,0.717,-31.429
EX0521-092111,17,C01,prep,1296,1296,0,867079.092,0.686,-0.676,0.195,0.188,0,0,0,0,0,0,0,0,0,0.000,0,0,0.110,0.004,-0.020,-0.100,-0.040,0.014,0.993,0.012,0.004,0.000,-0.002,0.000,0.000,0.000,0.000,0,2,0,1,7,255,960,200,0,0,-89.373,0.717,-31.429
EX0521-092111,17,C01,prep,1296,1296,0,867084.091,0.686,-0.676,0.195,0.188,0,0,0,0,0,0,0,0,0,0.000,0,0,0.060,0.003,-0.020,-0.040,-0.040,0.015,0.994,0.012,0.002,-0.002,-0.002,0.000,0.000,0.000,0.000,0,2,0,1,7,255,960,200,0,0,-89.373,0.717,-31.429
EX0521-092111,17,C01,prep,1296,1296,0,867089.091,0.686,-0.676,0.195,0.188,0,0,0,0,0,0,0,0,0,0.000,0,0,0.069,0.003,0.040,-0.040,-0.040,0.015,0.993,0.012,0.002,-0.002,-0.006,0.000,0.000,0.000,0.000,0,2,0,1,7,255,960,200,0,0,-89.373,0.717,-31.429
EX0521-092111,17,C01,prep,1296,1296,0,867094.092,0.686,-0.676,0.195,0.188,0,0,0,0,0,0,0,0,0,0.000,0,0,0.069,0.003,0.040,-0.040,-0.040,0.016,0.993,0.012,0.002,-0.002,-0.002,0.000,0.000,0.000,0.000,0,2,0,1,7,255,960,200,0,0,-89.373,0.717,-31.429
EX0521-092111,17,C01,prep,1296,1296,0,867099.091,0.686,-0.676,0.195,0.188,0,0,0,0,0,0,0,0,0,0.000,0,0,0.049,0.006,-0.020,-0.040,0.020,0.015,0.993,0.012,0.002,-0.006,-0.002,0.000,0.000,0.000,0.000,0,2,0,1,7,255,960,200,0,0,-89.373,0.717,-31.429
EX0521-092111,17,C01,prep,1296,1296,0,867104.092,0.686,-0.676,0.195,0.188,0,0,0,0,0,0,0,0,0,0.000,0,0,0.115,0.006,0.040,-0.040,-0.100,0.014,0.993,0.012,-0.002,-0.006,-0.002,0.000,0.000,0.000,0.000,0,2,0,1,7,255,960,200,0,0,-89.373,0.717,-31.429
EX0521-092111,17,C01,prep,1308,1308,0,867109.091,0.686,-0.676,0.195,0.188,0,0,0,0,0,0,0,0,0,0.000,0,0,0.060,0.004,0.040,-0.040,0.020,0.014,0.994,0.011,-0.004,-0.002,-0.002,0.000,0.000,0.000,0.000,0,2,0,1,7,255,960,200,0,0,-89.373,0.717,-31.429
EX0521-092111,17,C01,prep,1308,1308,0,867114.092,0.686,-0.676,0.195,0.188,0,0,0,0,0,0,0,0,0,0.000,0,0,0.060,0.004,-0.020,-0.040,-0.040,0.015,0.993,0.012,-0.004,-0.002,-0.002,0.000,0.000,0.000,0.000,0,2,0,1,7,255,960,200,0,0,-89.373,0.718,-31.429
EX0521-092111,17,C01,prep,1331,1331,0,867119.092,0.686,-0.676,0.195,0.188,0,0,0,0,0,0,0,0,0,0.000,0,0,0.060,0.006,-0.020,-0.040,-0.040,0.013,0.993,0.012,-0.004,0.004,-0.002,0.000,0.000,0.000,0.000,0,2,0,1,7,255,960,200,0,0,-89.373,0.718,-31.429
EX0521-092111,17,C01,prep,1331,1331,0,867124.092,0.686,-0.676,0.195,0.188,0,0,0,0,0,0,0,0,0,0.000,0,0,0.060,0.006,-0.020,-0.040,-0.040,0.014,0.992,0.012,-0.006,0.002,-0.006,0.000,0.000,0.000,0.000,0,2,0,1,7,255,960,200,0,0,-89.373,0.718,-31.429
EX0521-092111,17,C01,prep,1331,1331,0,867129.092,0.686,-0.676,0.195,0.188,0,0,0,0,0,0,0,0,0,0.000,0,0,0.069,0.006,0.040,-0.040,-0.040,0.016,0.977,0.013,-0.006,0.002,-0.016,0.000,0.000,0.000,0.000,0,2,0,1,7,255,960,200,0,0,-89.373,0.718,-31.429
EX0521-092111,17,C01,prep,1331,1331,0,867134.091,0.686,-0.676,0.195,0.188,0,0,0,0,0,0,0,0,0,0.000,0,0,0.275,0.019,0.220,-0.040,-0.160,0.016,0.963,0.012,0.006,-0.018,-0.162,0.000,0.000,0.000,0.000,0,2,0,1,7,255,960,200,0,0,-89.373,0.718,-31.429
EX0521-092111,17,C01,prep,1340,1340,0,867139.092,0.686,-0.676,0.195,0.188,0,0,0,0,0,0,0,0,0,0.000,0,0,0.489,0.022,0.460,-0.040,-0.160,0.016,0.993,0.010,0.012,-0.018,-0.162,0.000,0.000,0.000,0.000,0,2,0,1,7,255,960,200,0,0,-89.373,0.718,-31.429
EX0521-092111,17,C01,prep,1340,1340,0,867144.091,0.686,-0.676,0.195,0.188,0,0,0,0,0,0,0,0,0,0.000,0,0,0.300,0.017,0.280,-0.040,-0.100,0.015,1.029,0.009,0.016,0.006,-0.004,0.000,0.000,0.000,0.000,0,2,0,1,7,255,960,200,0,0,-89.373,0.718,-31.429
EX0521-092111,17,C01,prep,1372,1372,0,867149.092,0.686,-0.676,0.195,0.188,0,0,0,0,0,0,0,0,0,0.000,0,0,0.092,0.024,-0.080,-0.040,0.020,0.013,1.034,0.011,0.016,0.018,0.350,0.000,0.000,0.000,0.000,0,2,0,1,7,255,960,200,0,0,-89.373,0.718,-31.429
EX0521-092111,17,C01,prep,1372,1372,0,867154.091,0.686,-0.676,0.195,0.188,0,0,0,0,0,0,0,0,0,0.000,0,0,0.294,0.023,-0.280,-0.040,0.080,0.012,1.000,0.013,-0.014,0.018,0.350,0.000,0.000,0.000,0.000,0,2,0,1,7,255,960,200,0,0,-89.373,0.718,-31.429
EX0521-092111,17,C01,prep,1372,1372,0,867159.095,0.686,-0.676,0.195,0.188,0,0,0,0,0,0,0,0,0,0.000,0,0,0.205,0.015,-0.200,-0.040,0.020,0.014,0.976,0.014,-0.014,0.004,0.058,0.000,0.000,0.000,0.000,0,2,0,1,7,255,960,200,0,0,-89.373,0.718,-31.429
EX0521-092111,17,C01,prep,1372,1372,0,867164.092,0.686,-0.676,0.195,0.188,0,0,0,0,0,0,0,0,0,0.000,0,0,0.092,0.012,-0.020,-0.040,0.080,0.015,0.976,0.011,-0.012,0.000,-0.176,0.000,0.000,0.000,0.000,0,2,0,1,7,255,960,200,0,0,-89.373,0.718,-31.429
EX0521-092111,17,C01,prep,1372,1372,0,867169.092,0.686,-0.676,0.195,0.188,0,0,0,0,0,0,0,0,0,0.000,0,0,0.060,0.012,-0.020,-0.040,-0.040,0.015,0.997,0.010,0.012,0.000,-0.176,0.000,0.000,0.000,0.000,0,2,0,1,7,255,960,200,0,0,-89.374,0.718,-31.429
EX0521-092111,17,C01,prep,1372,1372,0,867174.093,0.686,-0.676,0.195,0.188,0,0,0,0,0,0,0,0,0,0.000,0,0,0.035,0.013,-0.020,0.020,0.020,0.015,1.002,0.011,0.012,0.004,0.028,0.000,0.000,0.000,0.000,0,2,0,1,7,255,960,200,0,0,-89.374,0.718,-31.429
EX0521-092111,17,C01,prep,1388,1388,0,867179.091,0.686,-0.676,0.195,0.188,0,0,0,0,0,0,0,0,0,0.000,0,0,0.049,0.011,-0.020,-0.040,0.020,0.014,0.991,0.014,0.010,0.004,0.028,0.000,0.000,0.000,0.000,0,2,0,1,7,255,960,200,0,0,-89.374,0.718,-31.429
EX0521-092111,17,C01,prep,1388,1388,0,867184.092,0.686,-0.676,0.195,0.188,0,0,0,0,0,0,0,0,0,0.000,0,0,0.104,0.015,-0.020,-0.100,0.020,0.016,0.985,0.014,0.004,-0.014,-0.024,0.000,0.000,0.000,0.000,0,2,0,1,7,255,960,200,0,0,-89.374,0.718,-31.429
EX0521-092111,17,C01,prep,1388,1388,0,867189.091,0.686,-0.676,0.195,0.188,0,0,0,0,0,0,0,0,0,0.000,0,0,0.060,0.015,-0.020,-0.040,-0.040,0.015,0.991,0.011,0.004,-0.014,-0.028,0.000,0.000,0.000,0.000,0,2,0,1,7,255,960,200,0,0,-89.374,0.718,-31.429
EX0521-092111,17,C01,prep,1388,1388,0,867194.092,0.686,-0.676,0.195,0.188,0,0,0,0,0,0,0,0,0,0.000,0,0,0.049,0.004,-0.020,-0.040,0.020,0.014,0.993,0.010,0.004,0.002,-0.028,0.000,0.000,0.000,0.000,0,2,0,1,7,255,960,200,0,0,-89.374,0.718,-31.429
EX0521-092111,17,C01,prep,1407,1407,0,867199.091,0.686,-0.676,0.195,0.188,0,0,0,0,0,0,0,0,0,0.000,0,0,0.060,0.018,-0.020,-0.040,-0.040,0.012,0.989,0.011,0.004,0.018,-0.028,0.000,0.000,0.000,0.000,0,2,0,1,7,255,960,200,0,0,-89.374,0.718,-31.429
EX0521-092111,17,C01,prep,1407,1407,0,867204.092,0.686,-0.676,0.195,0.188,0,0,0,0,0,0,0,0,0,0.000,0,0,0.069,0.018,0.040,-0.040,-0.040,0.014,0.990,0.012,-0.002,0.018,-0.036,0.000,0.000,0.000,0.000,0,2,0,1,7,255,960,200,0,0,-89.374,0.718,-31.429
EX0521-092111,17,C01,prep,1408,1408,0,867209.091,0.686,-0.676,0.195,0.188,0,0,0,0,0,0,0,0,0,0.000,0,0,0.173,0.002,0.100,-0.100,-0.100,0.016,0.997,0.014,-0.002,0.000,-0.036,0.000,0.000,0.000,0.000,0,2,0,1,7,255,960,200,0,0,-89.374,0.718,-31.429
EX0521-092111,17,C01,prep,1408,1408,0,867214.092,0.686,-0.676,0.195,0.188,0,0,0,0,0,0,0,0,0,0.000,0,0,0.115,0.013,0.100,-0.040,-0.040,0.016,0.997,0.012,0.004,-0.012,0.030,0.000,0.000,0.000,0.000,0,2,0,1,7,255,960,200,0,0,-89.374,0.718,-31.429
EX0521-092111,17,C01,prep,1409,1409,0,867219.092,0.686,-0.676,0.195,0.188,0,0,0,0,0,0,0,0,0,0.000,0,0,0.115,0.013,0.040,-0.040,-0.100,0.014,0.988,0.010,0.006,-0.012,0.030,0.000,0.000,0.000,0.000,0,2,0,1,7,255,960,200,0,0,-89.374,0.718,-31.429
EX0521-092111,17,C01,prep,1409,1409,0,867224.091,0.686,-0.676,0.195,0.188,0,0,0,0,0,0,0,0,0,0.000,0,0,0.115,0.008,0.100,-0.040,-0.040,0.014,0.983,0.011,0.006,0.006,-0.056,0.000,0.000,0.000,0.000,0,2,0,1,7,255,960,200,0,0,-89.374,0.718,-31.429
EX0521-092111,17,C01,prep,1436,1436,0,867229.092,0.686,-0.676,0.195,0.188,0,0,0,0,0,0,0,0,0,0.000,0,0,0.115,0.006,0.100,-0.040,-0.040,0.014,0.989,0.013,0.002,0.006,-0.056,0.000,0.000,0.000,0.000,0,2,0,1,7,255,960,200,0,0,-89.374,0.718,-31.429
EX0521-092111,17,C01,prep,1436,1436,0,867234.091,0.686,-0.676,0.195,0.188,0,0,0,0,0,0,0,0,0,0.000,0,0,0.115,0.014,0.100,-0.040,-0.040,0.015,1.000,0.013,-0.002,-0.014,-0.044,0.000,0.000,0.000,0.000,0,2,0,1,7,255,960,200,0,0,-89.374,0.718,-31.429
EX0521-092111,17,C01,prep,1436,1436,0,867239.092,0.686,-0.676,0.195,0.188,0,0,0,0,0,0,0,0,0,0.000,0,0,0.147,0.017,0.100,-0.040,-0.100,0.013,1.000,0.012,-0.010,-0.014,0.064,0.000,0.000,0.000,0.000,0,2,0,1,7,255,960,200,0,0,-89.374,0.718,-31.429
EX0521-092111,17,C01,prep,1436,1436,0,867244.091,0.686,-0.676,0.195,0.188,0,0,0,0,0,0,0,0,0,0.000,0,0,0.115,0.006,0.040,-0.040,-0.100,0.014,0.991,0.012,-0.006,0.002,0.064,0.000,0.000,0.000,0.000,0,2,0,1,7,255,960,200,0,0,-89.374,0.718,-31.429
EX0521-092111,17,C01,prep,1452,1452,0,867249.092,0.686,-0.676,0.195,0.188,0,0,0,0,0,0,0,0,0,0.000,0,0,0.147,0.006,0.100,-0.100,-0.040,0.015,0.985,0.009,-0.006,0.002,-0.028,0.000,0.000,0.000,0.000,0,2,0,1,7,255,960,200,0,0,-89.374,0.718,-31.429
EX0521-092111,17,C01,prep,1452,1452,0,867254.091,0.686,-0.676,0.195,0.188,0,0,0,0,0,0,0,0,0,0.000,0,0,0.147,0.014,0.100,-0.100,-0.040,0.016,0.992,0.011,0.014,0.002,-0.028,0.000,0.000,0.000,0.000,0,2,0,1,7,255,960,200,0,0,-89.374,0.718,-31.429
EX0521-092111,17,C01,prep,1473,1473,0,867259.092,0.686,-0.676,0.195,0.188,0,0,0,0,0,0,0,0,0,0.000,0,0,0.115,0.014,0.040,-0.100,-0.040,0.014,1.000,0.012,0.014,0.000,-0.012,0.000,0.000,0.000,0.000,0,2,0,1,7,255,960,200,0,0,-89.374,0.718,-31.429
EX0521-092111,17,C01,prep,1473,1473,0,867264.092,0.686,-0.676,0.195,0.188,0,0,0,0,0,0,0,0,0,0.000,0,0,0.049,0.010,-0.020,0.020,-0.040,0.014,0.999,0.013,-0.010,0.000,0.050,0.000,0.000,0.000,0.000,0,2,0,1,7,255,960,200,0,0,-89.374,0.718,-31.429
EX0521-092111,17,C01,prep,1474,1474,0,867269.091,0.686,-0.676,0.195,0.188,0,0,0,0,0,0,0,0,0,0.000,0,0,0.060,0.011,-0.020,-0.040,-0.040,0.014,0.993,0.012,-0.010,-0.004,0.050,0.000,0.000,0.000,0.000,0,2,0,1,7,255,960,200,0,0,-89.374,0.718,-31.429
EX0521-092111,17,C01,prep,1474,1474,0,867274.093,0.686,-0.676,0.195,0.188,0,0,0,0,0,0,0,0,0,0.000,0,0,0.115,0.007,0.100,-0.040,-0.040,0.014,0.988,0.012,-0.006,-0.004,-0.004,0.000,0.000,0.000,0.000,0,2,0,1,7,255,960,200,0,0,-89.374,0.718,-31.429
EX0521-092111,17,C01,prep,1475,1475,0,867279.091,0.686,-0.676,0.195,0.188,0,0,0,0,0,0,0,0,0,0.000,0,0,0.147,0.002,0.100,-0.100,-0.040,0.015,0.992,0.011,-0.002,0.000,-0.016,0.000,0.000,0.000,0.000,0,2,0,1,7,255,960,200,0,0,-89.374,0.718,-31.429
EX0521-092111,17,C01,prep,1475,1475,0,867284.092,0.686,-0.676,0.195,0.188,0,0,0,0,0,0,0,0,0,0.000,0,0,0.115,0.008,0.100,-0.040,-0.040,0.015,0.997,0.011,0.008,0.000,-0.016,0.000,0.000,0.000,0.000,0,2,0,1,7,255,960,200,0,0,-89.374,0.718,-31.429
EX0521-092111,17,C01,prep,1505,1505,0,867289.091,0.686,-0.676,0.195,0.188,0,0,0,0,0,0,0,0,0,0.000,0,0,0.060,0.008,0.040,0.020,-0.040,0.015,0.997,0.012,0.008,0.000,0.036,0.000,0.000,0.000,0.000,0,2,0,1,7,255,960,200,0,0,-89.374,0.718,-31.429
EX0521-092111,17,C01,prep,1505,1505,0,867294.092,0.686,-0.676,0.195,0.188,0,0,0,0,0,0,0,0,0,0.000,0,0,0.049,0.004,-0.020,0.020,-0.040,0.014,0.995,0.012,-0.002,-0.004,0.036,0.000,0.000,0.000,0.000,0,2,0,1,7,255,960,200,0,0,-89.374,0.718,-31.429
EX0521-092111,17,C01,prep,1505,1505,0,867299.091,0.686,-0.676,0.195,0.188,0,0,0,0,0,0,0,0,0,0.000,0,0,0.060,0.004,-0.020,-0.040,-0.040,0.014,0.993,0.011,-0.002,-0.004,0.016,0.000,0.000,0.000,0.000,0,2,0,1,7,255,960,200,0,0,-89.374,0.718,-31.429
EX0521-092111,17,C01,prep,1505,1505,0,867304.092,0.686,-0.676,0.195,0.188,0,0,0,0,0,0,0,0,0,0.000,0,0,0.069,0.004,0.040,-0.040,-0.040,0.015,0.991,0.010,0.000,0.004,-0.004,0.000,0.000,0.000,0.000,0,2,0,1,7,255,960,200,0,0,-89.374,0.718,-31.429
EX0521-092111,17,C01,prep,1507,1507,0,867309.092,0.686,-0.676,0.195,0.188,0,0,0,0,0,0,0,0,0,0.000,0,0,0.060,0.010,-0.020,-0.040,-0.040,0.014,0.990,0.011,0.000,0.010,-0.022,0.000,0.000,0.000,0.000,0,2,0,1,7,255,960,200,0,0,-89.374,0.718,-31.429
EX0521-092111,17,C01,prep,1507,1507,0,867314.091,0.686,-0.676,0.195,0.188,0,0,0,0,0,0,0,0,0,0.000,0,0,0.115,0.010,0.100,-0.040,-0.040,0.014,0.993,0.012,-0.002,0.010,-0.022,0.000,0.000,0.000,0.000,0,2,0,1,7,255,960,200,0,0,-89.374,0.718,-31.429
EX0521-092111,17,C01,prep,1516,1516,0,867319.092,0.686,-0.676,0.195,0.188,0,0,0,0,0,0,0,0,0,0.000,0,0,0.069,0.008,0.040,-0.040,-0.040,0.014,0.995,0.011,-0.002,0.008,-0.002,0.000,0.000,0.000,0.000,0,2,0,1,7,255,960,200,0,0,-89.374,0.718,-31.429
EX0521-092111,17,C01,prep,1516,1516,0,867324.091,0.686,-0.676,0.195,0.188,0,0,0,0,0,0,0,0,0,0.000,0,0,0.115,0.003,0.100,-0.040,-0.040,0.015,0.995,0.011,0.002,0.002,0.012,0.000,0.000,0.000,0.000,0,2,0,1,7,255,960,200,0,0,-89.374,0.718,-31.429
EX0521-092111,17,C01,prep,1532,1532,0,867329.092,0.686,-0.676,0.195,0.188,0,0,0,0,0,0,0,0,0,0.000,0,0,0.060,0.003,-0.020,-0.040,-0.040,0.015,0.993,0.012,0.002,0.002,0.012,0.000,0.000,0.000,0.000,0,2,0,1,7,255,960,200,0,0,-89.374,0.718,-31.429
EX0521-092111,17,C01,prep,1532,1532,0,867334.091,0.686,-0.676,0.195,0.188,0,0,0,0,0,0,0,0,0,0.000,0,0,0.069,0.003,0.040,-0.040,-0.040,0.014,0.990,0.011,-0.002,0.002,-0.002,0.000,0.000,0.000,0.000,0,2,0,1,7,255,960,200,0,0,-89.374,0.718,-31.429
EX0521-092111,17,C01,prep,1532,1532,0,867339.092,0.686,-0.676,0.195,0.188,0,0,0,0,0,0,0,0,0,0.000,0,0,0.115,0.007,0.040,-0.100,-0.040,0.013,0.993,0.012,-0.004,0.006,-0.008,0.000,0.000,0.000,0.000,0,2,0,1,7,255,960,200,0,0,-89.374,0.718,-31.429
EX0521-092111,17,C01,prep,1532,1532,0,867344.091,0.686,-0.676,0.195,0.188,0,0,0,0,0,0,0,0,0,0.000,0,0,0.069,0.008,0.040,-0.040,-0.040,0.014,0.995,0.012,-0.006,0.006,-0.008,0.000,0.000,0.000,0.000,0,2,0,1,7,255,960,200,0,0,-89.374,0.718,-31.429
EX0521-092111,17,C01,prep,1572,1572,0,867349.092,0.686,-0.676,0.195,0.188,0,0,0,0,0,0,0,0,0,0.000,0,0,0.060,0.007,0.040,-0.040,0.020,0.014,0.994,0.012,-0.006,-0.004,0.002,0.000,0.000,0.000,0.000,0,2,0,1,7,255,960,200,0,0,-89.374,0.718,-31.429
EX0521-092111,17,C01,prep,1572,1572,0,867354.092,0.686,-0.676,0.195,0.188,0,0,0,0,0,0,0,0,0,0.000,0,0,0.060,0.007,0.040,-0.040,0.020,0.014,0.992,0.011,-0.006,-0.004,0.002,0.000,0.000,0.000,0.000,0,2,0,1,7,255,960,200,0,0,-89.374,0.718,-31.429
EX0521-092111,17,C01,prep,1573,1573,0,867359.092,0.686,-0.676,0.195,0.188,0,0,0,0,0,0,0,0,0,0.000,0,0,0.115,0.004,0.100,-0.040,-0.040,0.014,0.990,0.011,0.000,0.004,-0.012,0.000,0.000,0.000,0.000,0,2,0,1,7,255,960,200,0,0,-89.374,0.718,-31.429
EX0521-092111,17,C01,prep,1573,1573,0,867364.093,0.686,-0.676,0.195,0.188,0,0,0,0,0,0,0,0,0,0.000,0,0,0.069,0.004,0.040,-0.040,-0.040,0.014,0.993,0.012,0.000,0.004,-0.012,0.000,0.000,0.000,0.000,0,2,0,1,7,255,960,200,0,0,-89.374,0.718,-31.429
EX0521-092111,17,C01,prep,1574,1574,0,867369.091,0.686,-0.676,0.195,0.188,0,0,0,0,0,0,0,0,0,0.000,0,0,0.115,0.002,0.040,-0.040,-0.100,0.014,0.996,0.012,-0.002,0.000,-0.008,0.000,0.000,0.000,0.000,0,2,0,1,7,255,960,200,0,0,-89.374,0.718,-31.429
EX0521-092111,17,C01,prep,1574,1574,0,867374.092,0.686,-0.676,0.195,0.188,0,0,0,0,0,0,0,0,0,0.000,0,0,0.069,0.002,0.040,-0.040,-0.040,0.014,0.996,0.011,-0.002,0.000,0.022,0.000,0.000,0.000,0.000,0,2,0,1,7,255,960,200,0,0,-89.374,0.718,-31.429
EX0521-092111,17,C01,prep,1605,1605,0,867379.091,0.686,-0.676,0.195,0.188,0,0,0,0,0,0,0,0,0,0.000,0,0,0.069,0.006,0.040,-0.040,-0.040,0.015,0.993,0.010,-0.002,0.006,0.022,0.000,0.000,0.000,0.000,0,2,0,1,7,255,960,200,0,0,-89.374,0.718,-31.429
EX0521-092111,17,C01,prep,1605,1605,0,867384.092,0.686,-0.676,0.195,0.188,0,0,0,0,0,0,0,0,0,0.000,0,0,0.069,0.007,0.040,-0.040,-0.040,0.015,0.993,0.011,0.004,0.006,-0.008,0.000,0.000,0.000,0.000,0,2,0,1,7,255,960,200,0,0,-89.374,0.718,-31.429
EX0521-092111,17,C01,prep,1605,1605,0,867389.091,0.686,-0.676,0.195,0.188,0,0,0,0,0,0,0,0,0,0.000,0,0,0.049,0.006,-0.020,0.020,-0.040,0.015,0.992,0.012,0.006,0.000,-0.008,0.000,0.000,0.000,0.000,0,2,0,1,7,255,960,200,0,0,-89.375,0.718,-31.429
EX0521-092111,17,C01,prep,1605,1605,0,867394.092,0.686,-0.676,0.195,0.188,0,0,0,0,0,0,0,0,0,0.000,0,0,0.069,0.004,0.040,-0.040,-0.040,0.014,0.993,0.012,0.004,0.000,-0.008,0.000,0.000,0.000,0.000,0,2,0,1,7,255,960,200,0,0,-89.375,0.718,-31.429
EX0521-092111,17,C01,prep,1605,1605,0,867399.092,0.686,-0.676,0.195,0.188,0,0,0,0,0,0,0,0,0,0.000,0,0,0.115,0.000,0.040,-0.100,-0.040,0.014,0.993,0.011,0.000,0.000,-0.008,0.000,0.000,0.000,0.000,0,2,0,1,7,255,960,200,0,0,-89.375,0.718,-31.429
EX0521-092111,17,C01,prep,1605,1605,0,867404.092,0.686,-0.676,0.195,0.188,0,0,0,0,0,0,0,0,0,0.000,0,0,0.060,0.000,0.040,-0.040,0.020,0.015,0.993,0.011,0.000,0.000,-0.002,0.000,0.000,0.000,0.000,0,2,0,1,7,255,960,200,0,0,-89.375,0.718,-31.429
EX0521-092111,17,C01,prep,1606,1606,0,867409.092,0.686,-0.676,0.195,0.188,0,0,0,0,0,0,0,0,0,0.000,0,0,0.060,0.004,0.040,-0.040,0.020,0.014,0.993,0.011,0.000,0.004,-0.008,0.000,0.000,0.000,0.000,0,2,0,1,7,255,960,200,0,0,-89.375,0.718,-31.429
EX0521-092111,17,C01,prep,1606,1606,0,867414.091,0.686,-0.676,0.195,0.188,0,0,0,0,0,0,0,0,0,0.000,0,0,0.049,0.004,-0.020,-0.040,0.020,0.015,0.993,0.011,0.004,0.000,-0.006,0.000,0.000,0.000,0.000,0,2,0,1,7,255,960,200,0,0,-89.375,0.718,-31.429
EX0521-092111,17,C01,prep,1612,1612,0,867419.092,0.686,-0.676,0.195,0.188,0,0,0,0,0,0,0,0,0,0.000,0,0,0.069,0.000,0.040,-0.040,-0.040,0.014,0.992,0.012,0.000,0.000,-0.008,0.000,0.000,0.000,0.000,0,2,0,1,7,255,960,200,0,0,-89.375,0.718,-31.429
EX0521-092111,17,C01,prep,1612,1612,0,867424.091,0.686,-0.676,0.195,0.188,0,0,0,0,0,0,0,0,0,0.000,0,0,0.069,0.010,0.040,-0.040,-0.040,0.013,0.995,0.012,-0.010,0.000,-0.006,0.000,0.000,0.000,0.000,0,2,0,1,7,255,960,200,0,0,-89.375,0.718,-31.429
EX0521-092111,17,C01,prep,1650,1650,0,867429.092,0.686,-0.676,0.195,0.188,0,0,0,0,0,0,0,0,0,0.000,0,0,0.069,0.010,0.040,-0.040,-0.040,0.014,0.994,0.012,-0.010,0.000,0.008,0.000,0.000,0.000,0.000,0,2,0,1,7,255,960,200,0,0,-89.375,0.718,-31.429
EX0521-092111,17,C01,prep,1650,1650,0,867434.091,0.686,-0.676,0.195,0.188,0,0,0,0,0,0,0,0,0,0.000,0,0,0.060,0.004,0.040,0.020,-0.040,0.015,0.994,0.010,-0.002,0.004,0.008,0.000,0.000,0.000,0.000,0,2,0,1,7,255,960,200,0,0,-89.375,0.718,-31.429
EX0521-092111,17,C01,prep,1650,1650,0,867439.092,0.686,-0.676,0.195,0.188,0,0,0,0,0,0,0,0,0,0.000,0,0,0.069,0.010,0.040,-0.040,-0.040,0.014,0.992,0.011,-0.002,0.010,0.002,0.000,0.000,0.000,0.000,0,2,0,1,7,255,960,200,0,0,-89.375,0.718,-31.429
EX0521-092111,17,C01,prep,1650,1650,0,867444.092,0.686,-0.676,0.195,0.188,0,0,0,0,0,0,0,0,0,0.000,0,0,0.060,0.012,-0.020,-0.040,-0.040,0.015,0.991,0.011,0.006,0.010,-0.012,0.000,0.000,0.000,0.000,0,2,0,1,7,255,960,200,0,0,-89.375,0.718,-31.429
EX0521-092111,17,C01,prep,1671,1671,0,867449.091,0.686,-0.676,0.195,0.188,0,0,0,0,0,0,0,0,0,0.000,0,0,0.069,0.004,0.040,-0.040,-0.040,0.015,0.993,0.012,0.000,0.004,-0.012,0.000,0.000,0.000,0.000,0,2,0,1,7,255,960,200,0,0,-89.375,0.718,-31.429
EX0521-092111,17,C01,prep,1671,1671,0,867454.092,0.686,-0.676,0.195,0.188,0,0,0,0,0,0,0,0,0,0.000,0,0,0.092,0.004,-0.080,-0.040,0.020,0.014,0.995,0.011,0.002,0.004,-0.006,0.000,0.000,0.000,0.000,0,2,0,1,7,255,960,200,0,0,-89.375,0.718,-31.429
EX0521-092111,17,C01,prep,1671,1671,0,867459.091,0.686,-0.676,0.195,0.188,0,0,0,0,0,0,0,0,0,0.000,0,0,0.110,0.002,-0.020,-0.100,-0.040,0.016,0.993,0.011,0.002,0.000,-0.002,0.000,0.000,0.000,0.000,0,2,0,1,7,255,960,200,0,0,-89.375,0.718,-31.429
EX0521-092111,17,C01,prep,1671,1671,0,867464.093,0.686,-0.676,0.195,0.188,0,0,0,0,0,0,0,0,0,0.000,0,0,0.060,0.008,-0.020,-0.040,-0.040,0.014,0.993,0.011,0.002,0.008,-0.002,0.000,0.000,0.000,0.000,0,2,0,1,7,255,960,200,0,0,-89.375,0.718,-31.429
EX0521-092111,17,C01,prep,1672,1672,0,867469.091,0.686,-0.676,0.195,0.188,0,0,0,0,0,0,0,0,0,0.000,0,0,0.069,0.002,0.040,-0.040,-0.040,0.014,0.993,0.013,0.002,0.000,-0.006,0.000,0.000,0.000,0.000,0,2,0,1,7,255,960,200,0,0,-89.375,0.718,-31.429
EX0521-092111,17,C01,prep,1672,1672,0,867474.092,0.686,-0.676,0.195,0.188,0,0,0,0,0,0,0,0,0,0.000,0,0,0.069,0.003,0.040,-0.040,-0.040,0.014,0.992,0.012,-0.002,-0.002,-0.006,0.000,0.000,0.000,0.000,0,2,0,1,7,255,960,200,0,0,-89.375,0.718,-31.429
EX0521-092111,17,C01,prep,1696,1696,0,867479.091,0.686,-0.676,0.195,0.188,0,0,0,0,0,0,0,0,0,0.000,0,0,0.049,0.003,-0.020,-0.040,0.020,0.014,0.992,0.012,-0.002,-0.002,-0.012,0.000,0.000,0.000,0.000,0,2,0,1,7,255,960,200,0,0,-89.375,0.718,-31.429
EX0521-092111,17,C01,prep,1696,1696,0,867484.092,0.686,-0.676,0.195,0.188,0,0,0,0,0,0,0,0,0,0.000,0,0,0.069,0.003,0.040,-0.040,-0.040,0.015,0.993,0.012,-0.002,-0.002,-0.012,0.000,0.000,0.000,0.000,0,2,0,1,7,255,960,200,0,0,-89.375,0.718,-31.429
EX0521-092111,17,C01,prep,1696,1696,0,867489.092,0.686,-0.676,0.195,0.188,0,0,0,0,0,0,0,0,0,0.000,0,0,0.049,0.003,-0.020,-0.040,0.020,0.014,0.993,0.011,-0.002,-0.002,-0.006,0.000,0.000,0.000,0.000,0,2,0,1,7,255,960,200,0,0,-89.375,0.718,-31.429
EX0521-092111,17,C01,prep,1696,1696,0,867494.091,0.686,-0.676,0.195,0.188,0,0,0,0,0,0,0,0,0,0.000,0,0,0.060,0.004,0.040,-0.040,0.020,0.014,0.992,0.011,-0.002,0.004,-0.006,0.000,0.000,0.000,0.000,0,2,0,1,7,255,960,200,0,0,-89.375,0.718,-31.429
EX0521-092111,17,C01,prep,1696,1696,0,867499.092,0.686,-0.676,0.195,0.188,0,0,0,0,0,0,0,0,0,0.000,0,0,0.060,0.004,0.040,-0.040,0.020,0.014,0.993,0.011,0.000,0.004,-0.006,0.000,0.000,0.000,0.000,0,2,0,1,7,255,960,200,0,0,-89.375,0.718,-31.429
EX0521-092111,17,C01,prep,1696,1696,0,867504.092,0.686,-0.676,0.195,0.188,0,0,0,0,0,0,0,0,0,0.000,0,0,0.069,0.004,0.040,-0.040,-0.040,0.014,0.993,0.012,0.000,0.004,-0.006,0.000,0.000,0.000,0.000,0,2,0,1,7,255,960,200,0,0,-89.375,0.718,-31.429
EX0521-092111,17,C01,prep,1708,1708,0,867509.092,0.686,-0.676,0.195,0.188,0,0,0,0,0,0,0,0,0,0.000,0,0,0.069,0.003,0.040,-0.040,-0.040,0.014,0.996,0.012,-0.002,0.002,-0.002,0.000,0.000,0.000,0.000,0,2,0,1,7,255,960,200,0,0,-89.375,0.718,-31.429
EX0521-092111,17,C01,prep,1708,1708,0,867514.091,0.686,-0.676,0.195,0.188,0,0,0,0,0,0,0,0,0,0.000,0,0,0.060,0.003,-0.020,-0.040,-0.040,0.014,0.994,0.011,-0.002,0.002,0.008,0.000,0.000,0.000,0.000,0,2,0,1,7,255,960,200,0,0,-89.375,0.718,-31.429
EX0521-092111,17,C01,prep,1708,1708,0,867519.092,0.686,-0.676,0.195,0.188,0,0,0,0,0,0,0,0,0,0.000,0,0,0.060,0.006,-0.020,-0.040,-0.040,0.014,0.992,0.011,0.002,0.006,0.008,0.000,0.000,0.000,0.000,0,2,0,1,7,255,960,200,0,0,-89.375,0.718,-31.429
EX0521-092111,17,C01,prep,1708,1708,0,867524.091,0.686,-0.676,0.195,0.188,0,0,0,0,0,0,0,0,0,0.000,0,0,0.035,0.006,-0.020,0.020,0.020,0.014,0.990,0.011,0.002,0.006,-0.016,0.000,0.000,0.000,0.000,0,2,0,1,7,255,960,200,0,0,-89.375,0.718,-31.429
EX0521-092111,17,C01,prep,1732,1732,0,867529.092,0.686,-0.676,0.195,0.188,0,0,0,0,0,0,0,0,0,0.000,0,0,0.049,0.004,-0.020,-0.040,0.020,0.015,0.992,0.012,0.002,0.004,-0.016,0.000,0.000,0.000,0.000,0,2,0,1,7,255,960,200,0,0,-89.375,0.718,-31.429
EX0521-092111,17,C01,prep,1732,1732,0,867534.092,0.686,-0.676,0.195,0.188,0,0,0,0,0,0,0,0,0,0.000,0,0,0.060,0.006,0.040,-0.040,0.020,0.013,0.993,0.011,-0.004,0.004,-0.016,0.000,0.000,0.000,0.000,0,2,0,1,7,255,960,200,0,0,-89.375,0.718,-31.429
EX0521-092111,17,C01,prep,1733,1733,0,867539.091,0.686,-0.676,0.195,0.188,0,0,0,0,0,0,0,0,0,0.000,0,0,0.060,0.008,-0.020,-0.040,-0.040,0.014,0.995,0.011,0.002,0.008,-0.002,0.000,0.000,0.000,0.000,0,2,0,1,7,255,960,200,0,0,-89.375,0.718,-31.429
EX0521-092111,17,C01,prep,1733,1733,0,867544.092,0.686,-0.676,0.195,0.188,0,0,0,0,0,0,0,0,0,0.000,0,0,0.060,0.008,-0.020,-0.040,-0.040,0.014,0.993,0.011,0.002,0.008,-0.002,0.000,0.000,0.000,0.000,0,2,0,1,7,255,960,200,0,0,-89.375,0.718,-31.429
EX0521-092111,17,C01,prep,1740,1740,0,867549.091,0.686,-0.676,0.195,0.188,0,0,0,0,0,0,0,0,0,0.000,0,0,0.060,0.006,0.040,-0.040,0.020,0.015,0.993,0.012,0.002,0.006,-0.006,0.000,0.000,0.000,0.000,0,2,0,1,7,255,960,200,0,0,-89.375,0.718,-31.429
EX0521-092111,17,C01,prep,1740,1740,0,867554.092,0.686,-0.676,0.195,0.188,0,0,0,0,0,0,0,0,0,0.000,0,0,0.069,0.004,0.040,-0.040,-0.040,0.014,0.992,0.012,0.002,-0.004,-0.006,0.000,0.000,0.000,0.000,0,2,0,1,7,255,960,200,0,0,-89.375,0.718,-31.429
EX0521-092111,17,C01,prep,1773,1773,0,867559.093,0.686,-0.676,0.195,0.188,0,0,0,0,0,0,0,0,0,0.000,0,0,0.060,0.004,-0.020,-0.040,-0.040,0.015,0.993,0.012,0.002,-0.004,-0.006,0.000,0.000,0.000,0.000,0,2,0,1,7,255,960,200,0,0,-89.375,0.718,-31.429
EX0521-092111,17,C01,prep,1773,1773,0,867564.092,0.686,-0.676,0.195,0.188,0,0,0,0,0,0,0,0,0,0.000,0,0,0.049,0.011,-0.020,0.020,-0.040,0.014,0.993,0.013,-0.010,-0.004,0.000,0.000,0.000,0.000,0.000,0,2,0,1,7,255,960,200,0,0,-89.375,0.718,-31.429
EX0521-092111,17,C01,prep,1774,1774,0,867569.091,0.686,-0.676,0.195,0.188,0,0,0,0,0,0,0,0,0,0.000,0,0,0.115,0.006,0.040,-0.100,-0.040,0.015,0.994,0.012,0.002,-0.006,0.000,0.000,0.000,0.000,0.000,0,2,0,1,7,255,960,200,0,0,-89.375,0.718,-31.429
EX0521-092111,17,C01,prep,1774,1774,0,867574.093,0.686,-0.676,0.195,0.188,0,0,0,0,0,0,0,0,0,0.000,0,0,0.110,0.006,-0.020,-0.100,-0.040,0.014,0.993,0.012,-0.002,-0.006,0.000,0.000,0.000,0.000,0.000,0,2,0,1,7,255,960,200,0,0,-89.375,0.718,-31.429
EX0521-092111,17,C01,prep,1774,1774,0,867579.092,0.686,-0.676,0.195,0.188,0,0,0,0,0,0,0,0,0,0.000,0,0,0.110,0.004,-0.020,-0.100,-0.040,0.015,0.992,0.011,0.004,-0.002,-0.006,0.000,0.000,0.000,0.000,0,2,0,1,7,255,960,200,0,0,-89.375,0.718,-31.429
EX0521-092111,17,C01,prep,1774,1774,0,867584.091,0.686,-0.676,0.195,0.188,0,0,0,0,0,0,0,0,0,0.000,0,0,0.060,0.006,-0.020,-0.040,-0.040,0.015,0.994,0.011,0.006,-0.002,-0.006,0.000,0.000,0.000,0.000,0,2,0,1,7,255,960,200,0,0,-89.375,0.718,-31.429
EX0521-092111,17,C01,prep,1788,1788,0,867589.092,0.686,-0.676,0.195,0.188,0,0,0,0,0,0,0,0,0,0.000,0,0,0.060,0.006,-0.020,-0.040,-0.040,0.014,0.993,0.011,0.006,0.002,-0.006,0.000,0.000,0.000,0.000,0,2,0,1,7,255,960,200,0,0,-89.375,0.718,-31.429
EX0521-092111,17,C01,prep,1788,1788,0,867594.091,0.686,-0.676,0.195,0.188,0,0,0,0,0,0,0,0,0,0.000,0,0,0.060,0.002,-0.020,-0.040,-0.040,0.014,0.994,0.011,0.000,0.002,0.004,0.000,0.000,0.000,0.000,0,2,0,1,7,255,960,200,0,0,-89.375,0.718,-31.429
EX0521-092111,17,C01,prep,1820,1820,0,867599.092,0.686,-0.676,0.195,0.188,0,0,0,0,0,0,0,0,0,0.000,0,0,0.049,0.006,-0.020,-0.040,0.020,0.014,0.995,0.011,-0.002,0.006,0.008,0.000,0.000,0.000,0.000,0,2,0,1,7,255,960,200,0,0,-89.375,0.718,-31.429
EX0521-092111,17,C01,prep,1820,1820,0,867604.092,0.686,-0.676,0.195,0.188,0,0,0,0,0,0,0,0,0,0.000,0,0,0.060,0.006,0.040,0.020,-0.040,0.014,0.992,0.011,-0.002,0.006,0.008,0.000,0.000,0.000,0.000,0,2,0,1,7,255,960,200,0,0,-89.375,0.718,-31.429
EX0521-092111,17,C01,prep,1820,1820,0,867609.092,0.686,-0.676,0.195,0.188,0,0,0,0,0,0,0,0,0,0.000,0,0,0.110,0.002,-0.020,-0.100,-0.040,0.015,0.991,0.012,0.000,0.002,-0.010,0.000,0.000,0.000,0.000,0,2,0,1,7,255,960,200,0,0,-89.375,0.718,-31.429
EX0521-092111,17,C01,prep,1820,1820,0,867614.091,0.686,-0.676,0.195,0.188,0,0,0,0,0,0,0,0,0,0.000,0,0,0.115,0.003,0.040,-0.040,-0.100,0.015,0.993,0.011,0.002,0.002,-0.010,0.000,0.000,0.000,0.000,0,2,0,1,7,255,960,200,0,0,-89.376,0.718,-31.429
EX0521-092111,17,C01,prep,1820,1820,0,867619.092,0.686,-0.676,0.195,0.188,0,0,0,0,0,0,0,0,0,0.000,0,0,0.049,0.004,-0.020,-0.040,0.020,0.015,0.994,0.012,0.002,-0.004,0.000,0.000,0.000,0.000,0.000,0,2,0,1,7,255,960,200,0,0,-89.376,0.718,-31.429
EX0521-092111,17,C01,prep,1820,1820,0,867624.092,0.686,-0.676,0.195,0.188,0,0,0,0,0,0,0,0,0,0.000,0,0,0.060,0.003,-0.020,-0.040,-0.040,0.014,0.994,0.012,0.002,0.002,0.004,0.000,0.000,0.000,0.000,0,2,0,1,7,255,960,200,0,0,-89.376,0.718,-31.429
EX0521-092111,17,C01,prep,1837,1837,0,867629.092,0.686,-0.676,0.195,0.188,0,0,0,0,0,0,0,0,0,0.000,0,0,0.060,0.004,-0.020,-0.040,-0.040,0.015,0.993,0.012,-0.002,-0.004,0.004,0.000,0.000,0.000,0.000,0,2,0,1,7,255,960,200,0,0,-89.376,0.718,-31.429
EX0521-092111,17,C01,prep,1837,1837,0,867634.092,0.686,-0.676,0.195,0.188,0,0,0,0,0,0,0,0,0,0.000,0,0,0.069,0.006,0.040,-0.040,-0.040,0.014,0.993,0.012,-0.006,0.002,-0.006,0.000,0.000,0.000,0.000,0,2,0,1,7,255,960,200,0,0,-89.376,0.718,-31.429
EX0521-092111,17,C01,prep,1837,1837,0,867639.091,0.686,-0.676,0.195,0.188,0,0,0,0,0,0,0,0,0,0.000,0,0,0.069,0.006,0.040,-0.040,-0.040,0.013,0.993,0.012,-0.006,0.002,-0.006,0.000,0.000,0.000,0.000,0,2,0,1,7,255,960,200,0,0,-89.376,0.718,-31.429
EX0521-092111,17,C01,prep,1837,1837,0,867644.092,0.686,-0.676,0.195,0.188,0,0,0,0,0,0,0,0,0,0.000,0,0,0.060,0.007,0.040,-0.040,0.020,0.014,0.992,0.011,-0.006,0.004,-0.006,0.000,0.000,0.000,0.000,0,2,0,1,7,255,960,200,0,0,-89.376,0.718,-31.429
EX0521-092111,17,C01,prep,1873,1873,0,867649.091,0.686,-0.676,0.195,0.188,0,0,0,0,0,0,0,0,0,0.000,0,0,0.060,0.006,-0.020,-0.040,-0.040,0.014,0.993,0.012,-0.004,0.004,-0.006,0.000,0.000,0.000,0.000,0,2,0,1,7,255,960,200,0,0,-89.376,0.718,-31.429
EX0521-092111,17,C01,prep,1873,1873,0,867654.092,0.686,-0.676,0.195,0.188,0,0,0,0,0,0,0,0,0,0.000,0,0,0.060,0.002,-0.020,-0.040,-0.040,0.015,0.993,0.011,-0.002,0.000,-0.006,0.000,0.000,0.000,0.000,0,2,0,1,7,255,960,200,0,0,-89.376,0.718,-31.429
EX0521-092111,17,C01,prep,1874,1874,0,867659.091,0.686,-0.676,0.195,0.188,0,0,0,0,0,0,0,0,0,0.000,0,0,0.060,0.003,-0.020,-0.040,-0.040,0.014,0.993,0.012,-0.002,-0.002,-0.006,0.000,0.000,0.000,0.000,0,2,0,1,7,255,960,200,0,0,-89.376,0.718,-31.429
EX0521-092111,17,C01,prep,1874,1874,0,867664.092,0.686,-0.676,0.195,0.188,0,0,0,0,0,0,0,0,0,0.000,0,0,0.049,0.004,-0.020,-0.040,0.020,0.015,0.992,0.011,0.004,0.000,-0.006,0.000,0.000,0.000,0.000,0,2,0,1,7,255,960,200,0,0,-89.376,0.718,-31.429
EX0521-092111,17,C01,prep,1875,1875,0,867669.092,0.686,-0.676,0.195,0.188,0,0,0,0,0,0,0,0,0,0.000,0,0,0.069,0.006,0.040,-0.040,-0.040,0.016,0.993,0.011,0.006,0.000,-0.006,0.000,0.000,0.000,0.000,0,2,0,1,7,255,960,200,0,0,-89.376,0.718,-31.429
EX0521-092111,17,C01,prep,1875,1875,0,867674.093,0.686,-0.676,0.195,0.188,0,0,0,0,0,0,0,0,0,0.000,0,0,0.069,0.006,0.040,-0.040,-0.040,0.015,0.993,0.012,0.006,0.000,0.000,0.000,0.000,0.000,0.000,0,2,0,1,7,255,960,200,0,0,-89.376,0.718,-31.429
EX0521-092111,17,C01,prep,1905,1905,0,867679.092,0.686,-0.676,0.195,0.188,0,0,0,0,0,0,0,0,0,0.000,0,0,0.115,0.002,0.040,-0.100,-0.040,0.013,0.995,0.011,-0.002,0.000,0.000,0.000,0.000,0.000,0.000,0,2,0,1,7,255,960,200,0,0,-89.376,0.718,-31.429
EX0521-092111,17,C01,prep,1905,1905,0,867684.091,0.686,-0.676,0.195,0.188,0,0,0,0,0,0,0,0,0,0.000,0,0,0.060,0.006,-0.020,-0.040,-0.040,0.014,0.993,0.011,-0.002,0.006,0.000,0.000,0.000,0.000,0.000,0,2,0,1,7,255,960,200,0,0,-89.376,0.718,-31.429
EX0521-092111,17,C01,prep,1906,1906,0,867689.092,0.686,-0.676,0.195,0.188,0,0,0,0,0,0,0,0,0,0.000,0,0,0.049,0.006,-0.020,-0.040,0.020,0.015,0.993,0.011,0.002,0.006,0.000,0.000,0.000,0.000,0.000,0,2,0,1,7,255,960,200,0,0,-89.376,0.719,-31.429
EX0521-092111,17,C01,prep,1906,1906,0,867694.091,0.686,-0.676,0.195,0.188,0,0,0,0,0,0,0,0,0,0.000,0,0,0.060,0.008,-0.020,-0.040,-0.040,0.015,0.992,0.011,0.008,-0.002,-0.004,0.000,0.000,0.000,0.000,0,2,0,1,7,255,960,200,0,0,-89.376,0.719,-31.429
EX0521-092111,17,C01,prep,1907,1907,0,867699.092,0.686,-0.676,0.195,0.188,0,0,0,0,0,0,0,0,0,0.000,0,0,0.060,0.008,-0.020,-0.040,-0.040,0.015,0.993,0.012,0.008,-0.002,-0.004,0.000,0.000,0.000,0.000,0,2,0,1,7,255,960,200,0,0,-89.376,0.719,-31.429
EX0521-092111,17,C01,prep,1907,1907,0,867704.092,0.686,-0.676,0.195,0.188,0,0,0,0,0,0,0,0,0,0.000,0,0,0.069,0.004,0.040,-0.040,-0.040,0.015,0.993,0.012,0.002,-0.004,-0.004,0.000,0.000,0.000,0.000,0,2,0,1,7,255,960,200,0,0,-89.376,0.719,-31.429
EX0521-092111,17,C01,prep,1907,1907,0,867709.092,0.686,-0.676,0.195,0.188,0,0,0,0,0,0,0,0,0,0.000,0,0,0.060,0.004,-0.020,-0.040,-0.040,0.015,0.993,0.011,0.002,-0.004,-0.004,0.000,0.000,0.000,0.000,0,2,0,1,7,255,960,200,0,0,-89.376,0.719,-31.429
EX0521-092111,17,C01,prep,1907,1907,0,867714.092,0.686,-0.676,0.195,0.188,0,0,0,0,0,0,0,0,0,0.000,0,0,0.115,0.004,0.040,-0.040,-0.100,0.014,0.993,0.011,0.002,0.004,-0.004,0.000,0.000,0.000,0.000,0,2,0,1,7,255,960,200,0,0,-89.376,0.719,-31.429
EX0521-092111,17,C01,prep,1916,1916,0,867719.091,0.686,-0.676,0.195,0.188,0,0,0,0,0,0,0,0,0,0.000,0,0,0.049,0.006,-0.020,-0.040,0.020,0.014,0.993,0.011,-0.002,0.006,-0.004,0.000,0.000,0.000,0.000,0,2,0,1,7,255,960,200,0,0,-89.376,0.719,-31.429
EX0521-092111,17,C01,prep,1916,1916,0,867724.092,0.686,-0.676,0.195,0.188,0,0,0,0,0,0,0,0,0,0.000,0,0,0.098,0.007,-0.080,-0.040,-0.040,0.013,0.993,0.012,-0.004,0.006,-0.004,0.000,0.000,0.000,0.000,0,2,0,1,7,255,960,200,0,0,-89.376,0.719,-31.429
EX0521-092111,17,C01,prep,1938,1938,0,867729.091,0.686,-0.676,0.195,0.188,0,0,0,0,0,0,0,0,0,0.000,0,0,0.060,0.002,0.040,-0.040,0.020,0.015,0.993,0.011,-0.002,0.000,-0.004,0.000,0.000,0.000,0.000,0,2,0,1,7,255,960,200,0,0,-89.376,0.719,-31.429
EX0521-092111,17,C01,prep,1938,1938,0,867734.092,0.686,-0.676,0.195,0.188,0,0,0,0,0,0,0,0,0,0.000,0,0,0.049,0.002,-0.020,-0.040,0.020,0.015,0.993,0.012,0.002,0.000,-0.004,0.000,0.000,0.000,0.000,0,2,0,1,7,255,960,200,0,0,-89.376,0.719,-31.429
EX0521-092111,17,C01,prep,1938,1938,0,867739.091,0.686,-0.676,0.195,0.188,0,0,0,0,0,0,0,0,0,0.000,0,0,0.092,0.009,-0.080,-0.040,0.020,0.016,0.992,0.012,0.004,-0.008,-0.004,0.000,0.000,0.000,0.000,0,2,0,1,7,255,960,200,0,0,-89.376,0.719,-31.429
EX0521-092111,17,C01,prep,1938,1938,0,867744.092,0.686,-0.676,0.195,0.188,0,0,0,0,0,0,0,0,0,0.000,0,0,0.060,0.010,-0.020,-0.040,-0.040,0.015,0.993,0.011,0.006,-0.008,-0.004,0.000,0.000,0.000,0.000,0,2,0,1,7,255,960,200,0,0,-89.376,0.719,-31.429
EX0521-092111,17,C01,prep,1974,1974,0,867749.091,0.686,-0.676,0.195,0.188,0,0,0,0,0,0,0,0,0,0.000,0,0,0.060,0.006,-0.020,-0.040,-0.040,0.014,0.993,0.011,0.006,0.002,-0.004,0.000,0.000,0.000,0.000,0,2,0,1,7,255,960,200,0,0,-89.376,0.719,-31.429
EX0521-092111,17,C01,prep,1974,1974,0,867754.092,0.686,-0.676,0.195,0.188,0,0,0,0,0,0,0,0,0,0.000,0,0,0.098,0.003,-0.080,-0.040,-0.040,0.015,0.992,0.012,0.002,0.002,-0.004,0.000,0.000,0.000,0.000,0,2,0,1,7,255,960,200,0,0,-89.376,0.719,-31.429
EX0521-092111,17,C01,prep,1975,1975,0,867759.093,0.686,-0.676,0.195,0.188,0,0,0,0,0,0,0,0,0,0.000,0,0,0.110,0.002,-0.020,-0.100,-0.040,0.014,0.993,0.011,0.000,0.002,-0.004,0.000,0.000,0.000,0.000,0,2,0,1,7,255,960,200,0,0,-89.376,0.719,-31.429
EX0521-092111,17,C01,prep,1975,1975,0,867764.093,0.686,-0.676,0.195,0.188,0,0,0,0,0,0,0,0,0,0.000,0,0,0.049,0.002,-0.020,-0.040,0.020,0.014,0.994,0.011,0.000,0.002,0.000,0.000,0.000,0.000,0.000,0,2,0,1,7,255,960,200,0,0,-89.376,0.719,-31.429
EX0521-092111,17,C01,prep,1975,1975,0,867769.092,0.686,-0.676,0.195,0.188,0,0,0,0,0,0,0,0,0,0.000,0,0,0.115,0.004,0.040,-0.100,-0.040,0.014,0.993,0.012,-0.004,0.002,0.000,0.000,0.000,0.000,0.000,0,2,0,1,7,255,960,200,0,0,-89.376,0.719,-31.429
EX0521-092111,17,C01,prep,1975,1975,0,867774.091,0.686,-0.676,0.195,0.188,0,0,0,0,0,0,0,0,0,0.000,0,0,0.060,0.004,-0.020,-0.040,-0.040,0.014,0.993,0.012,-0.004,0.002,0.000,0.000,0.000,0.000,0.000,0,2,0,1,7,255,960,200,0,0,-89.376,0.719,-31.429
EX0521-092111,17,C01,prep,1997,1997,0,867779.092,0.686,-0.676,0.195,0.188,0,0,0,0,0,0,0,0,0,0.000,0,0,0.049,0.006,-0.020,0.020,-0.040,0.014,0.992,0.012,-0.006,0.000,0.000,0.000,0.000,0.000,0.000,0,2,0,1,7,255,960,200,0,0,-89.376,0.719,-31.429
EX0521-092111,17,C01,prep,1997,1997,0,867784.091,0.686,-0.676,0.195,0.188,0,0,0,0,0,0,0,0,0,0.000,0,0,0.110,0.003,0.040,-0.100,0.020,0.015,0.992,0.012,-0.002,-0.002,-0.008,0.000,0.000,0.000,0.000,0,2,0,1,7,255,960,200,0,0,-89.376,0.719,-31.429
EX0521-092111,17,C01,prep,1997,1997,0,867789.092,0.686,-0.676,0.195,0.188,0,0,0,0,0,0,0,0,0,0.000,0,0,0.060,0.008,-0.020,-0.040,-0.040,0.014,0.992,0.012,-0.006,-0.006,-0.008,0.000,0.000,0.000,0.000,0,2,0,1,7,255,960,200,0,0,-89.376,0.719,-31.429
EX0521-092111,17,C01,prep,1997,1997,0,867794.091,0.686,-0.676,0.195,0.188,0,0,0,0,0,0,0,0,0,0.000,0,0,0.060,0.007,-0.020,-0.040,-0.040,0.014,0.993,0.011,-0.004,-0.006,-0.008,0.000,0.000,0.000,0.000,0,2,0,1,7,255,960,200,0,0,-89.376,0.719,-31.429
EX0521-092111,17,C01,prep,1997,1997,0,867799.092,0.686,-0.676,0.195,0.188,0,0,0,0,0,0,0,0,0,0.000,0,0,0.060,0.007,-0.020,-0.040,-0.040,0.014,0.993,0.011,-0.004,0.006,-0.004,0.000,0.000,0.000,0.000,0,2,0,1,7,255,960,200,0,0,-89.376,0.719,-31.429
EX0521-092111,17,C01,prep,1997,1997,0,867804.092,0.686,-0.676,0.195,0.188,0,0,0,0,0,0,0,0,0,0.000,0,0,0.060,0.007,-0.020,-0.040,-0.040,0.015,0.993,0.011,-0.004,0.006,-0.004,0.000,0.000,0.000,0.000,0,2,0,1,7,255,960,200,0,0,-89.376,0.719,-31.429
EX0521-092111,17,C01,prep,2012,2012,0,867809.092,0.686,-0.676,0.195,0.188,0,0,0,0,0,0,0,0,0,0.000,0,0,0.049,0.007,-0.020,-0.040,0.020,0.013,0.992,0.010,-0.004,0.006,-0.004,0.000,0.000,0.000,0.000,0,2,0,1,7,255,960,200,0,0,-89.376,0.719,-31.429
EX0521-092111,17,C01,prep,2012,2012,0,867814.092,0.686,-0.676,0.195,0.188,0,0,0,0,0,0,0,0,0,0.000,0,0,0.060,0.006,-0.020,-0.040,-0.040,0.014,0.993,0.011,-0.004,0.004,-0.004,0.000,0.000,0.000,0.000,0,2,0,1,7,255,960,200,0,0,-89.376,0.719,-31.429
EX0521-092111,17,C01,prep,2012,2012,0,867819.091,0.686,-0.676,0.195,0.188,0,0,0,0,0,0,0,0,0,0.000,0,0,0.060,0.015,0.040,-0.040,0.020,0.014,0.993,0.010,-0.004,0.014,-0.004,0.000,0.000,0.000,0.000,0,2,0,1,7,255,960,200,0,0,-89.376,0.719,-31.429
EX0521-092111,17,C01,prep,2012,2012,0,867824.092,0.686,-0.676,0.195,0.188,0,0,0,0,0,0,0,0,0,0.000,0,0,0.098,0.009,-0.080,-0.040,-0.040,0.013,0.993,0.011,-0.004,0.008,-0.004,0.000,0.000,0.000,0.000,0,2,0,1,7,255,960,200,0,0,-89.376,0.719,-31.429
EX0521-092111,17,C01,prep,2030,2030,0,867829.091,0.686,-0.676,0.195,0.188,0,0,0,0,0,0,0,0,0,0.000,0,0,0.060,0.010,-0.020,-0.040,-0.040,0.014,0.993,0.012,-0.006,0.008,-0.004,0.000,0.000,0.000,0.000,0,2,0,1,7,255,960,200,0,0,-89.376,0.719,-31.429
EX0521-092111,17,C01,prep,2030,2030,0,867834.092,0.686,-0.676,0.195,0.188,0,0,0,0,0,0,0,0,0,0.000,0,0,0.060,0.007,0.040,-0.040,0.020,0.015,0.992,0.011,-0.006,0.004,-0.004,0.000,0.000,0.000,0.000,0,2,0,1,7,255,960,200,0,0,-89.377,0.719,-31.429
EX0521-092111,17,C01,prep,2031,2031,0,867839.091,0.686,-0.676,0.195,0.188,0,0,0,0,0,0,0,0,0,0.000,0,0,0.069,0.002,0.040,-0.040,-0.040,0.015,0.993,0.012,0.002,0.000,-0.004,0.000,0.000,0.000,0.000,0,2,0,1,7,255,960,200,0,0,-89.377,0.719,-31.429
EX0521-092111,17,C01,prep,2031,2031,0,867844.092,0.686,-0.676,0.195,0.188,0,0,0,0,0,0,0,0,0,0.000,0,0,0.060,0.007,-0.020,-0.040,-0.040,0.015,0.992,0.011,0.006,0.004,-0.008,0.000,0.000,0.000,0.000,0,2,0,1,7,255,960,200,0,0,-89.377,0.719,-31.429
EX0521-092111,17,C01,prep,2044,2044,0,867849.091,0.686,-0.676,0.195,0.188,0,0,0,0,0,0,0,0,0,0.000,0,0,0.049,0.004,-0.020,-0.040,0.020,0.015,0.993,0.012,0.002,-0.004,-0.004,0.000,0.000,0.000,0.000,0,2,0,1,7,255,960,200,0,0,-89.377,0.719,-31.429
EX0521-092111,17,C01,prep,2044,2044,0,867854.092,0.686,-0.676,0.195,0.188,0,0,0,0,0,0,0,0,0,0.000,0,0,0.069,0.003,0.040,-0.040,-0.040,0.014,0.993,0.012,0.002,-0.002,-0.004,0.000,0.000,0.000,0.000,0,2,0,1,7,255,960,200,0,0,-89.377,0.719,-31.429
EX0521-092111,17,C01,prep,2076,2076,0,867859.092,0.686,-0.676,0.195,0.188,0,0,0,0,0,0,0,0,0,0.000,0,0,0.060,0.004,-0.020,-0.040,-0.040,0.014,0.992,0.012,-0.002,-0.004,-0.004,0.000,0.000,0.000,0.000,0,2,0,1,7,255,960,200,0,0,-89.377,0.719,-31.429
EX0521-092111,17,C01,prep,2076,2076,0,867864.093,0.686,-0.676,0.195,0.188,0,0,0,0,0,0,0,0,0,0.000,0,0,0.069,0.003,0.040,-0.040,-0.040,0.014,0.992,0.011,-0.002,-0.002,-0.008,0.000,0.000,0.000,0.000,0,2,0,1,7,255,960,200,0,0,-89.377,0.719,-31.429
EX0521-092111,17,C01,prep,2076,2076,0,867869.092,0.686,-0.676,0.195,0.188,0,0,0,0,0,0,0,0,0,0.000,0,0,0.069,0.002,0.040,-0.040,-0.040,0.014,0.993,0.011,0.000,0.002,-0.008,0.000,0.000,0.000,0.000,0,2,0,1,7,255,960,200,0,0,-89.377,0.719,-31.429
EX0521-092111,17,C01,prep,2076,2076,0,867874.091,0.686,-0.676,0.195,0.188,0,0,0,0,0,0,0,0,0,0.000,0,0,0.069,0.006,0.040,-0.040,-0.040,0.013,0.993,0.011,0.000,0.006,-0.004,0.000,0.000,0.000,0.000,0,2,0,1,7,255,960,200,0,0,-89.377,0.719,-31.429
EX0521-092111,17,C01,prep,2076,2076,0,867879.092,0.686,-0.676,0.195,0.188,0,0,0,0,0,0,0,0,0,0.000,0,0,0.060,0.003,-0.020,-0.040,-0.040,0.014,0.994,0.012,-0.002,0.002,0.002,0.000,0.000,0.000,0.000,0,2,0,1,7,255,960,200,0,0,-89.377,0.719,-31.429
EX0521-092111,17,C01,prep,2076,2076,0,867884.091,0.686,-0.676,0.195,0.188,0,0,0,0,0,0,0,0,0,0.000,0,0,0.098,0.003,-0.080,-0.040,-0.040,0.014,0.994,0.011,-0.002,0.002,0.006,0.000,0.000,0.000,0.000,0,2,0,1,7,255,960,200,0,0,-89.377,0.719,-31.429
EX0521-092111,17,C01,prep,2105,2105,0,867889.092,0.686,-0.676,0.195,0.188,0,0,0,0,0,0,0,0,0,0.000,0,0,0.110,0.002,-0.020,-0.100,-0.040,0.014,0.993,0.011,0.000,0.002,0.006,0.000,0.000,0.000,0.000,0,2,0,1,7,255,960,200,0,0,-89.377,0.719,-31.429
EX0521-092111,17,C01,prep,2105,2105,0,867894.091,0.686,-0.676,0.195,0.188,0,0,0,0,0,0,0,0,0,0.000,0,0,0.049,0.002,-0.020,-0.040,0.020,0.014,0.993,0.011,0.000,0.002,0.002,0.000,0.000,0.000,0.000,0,2,0,1,7,255,960,200,0,0,-89.377,0.719,-31.429
EX0521-092111,17,C01,prep,2105,2105,0,867899.092,0.686,-0.676,0.195,0.188,0,0,0,0,0,0,0,0,0,0.000,0,0,0.060,0.004,-0.020,-0.040,-0.040,0.014,0.993,0.010,0.000,0.004,0.002,0.000,0.000,0.000,0.000,0,2,0,1,7,255,960,200,0,0,-89.377,0.719,-31.429
EX0521-092111,17,C01,prep,2105,2105,0,867904.092,0.686,-0.676,0.195,0.188,0,0,0,0,0,0,0,0,0,0.000,0,0,0.035,0.006,-0.020,0.020,0.020,0.014,0.993,0.011,0.002,0.006,0.002,0.000,0.000,0.000,0.000,0,2,0,1,7,255,960,200,0,0,-89.377,0.719,-31.429
EX0521-092111,17,C01,prep,2106,2106,0,867909.091,0.686,-0.676,0.195,0.188,0,0,0,0,0,0,0,0,0,0.000,0,0,0.069,0.006,0.040,-0.040,-0.040,0.014,0.992,0.012,0.002,0.006,0.002,0.000,0.000,0.000,0.000,0,2,0,1,7,255,960,200,0,0,-89.377,0.719,-31.429
EX0521-092111,17,C01,prep,2106,2106,0,867914.092,0.686,-0.676,0.195,0.188,0,0,0,0,0,0,0,0,0,0.000,0,0,0.069,0.003,0.040,-0.040,-0.040,0.014,0.993,0.012,-0.002,-0.002,-0.004,0.000,0.000,0.000,0.000,0,2,0,1,7,255,960,200,0,0,-89.377,0.719,-31.429
EX0521-092111,17,C01,prep,2140,2140,0,867919.091,0.686,-0.676,0.195,0.188,0,0,0,0,0,0,0,0,0,0.000,0,0,0.049,0.003,-0.020,-0.040,0.020,0.015,0.993,0.012,-0.002,-0.002,-0.004,0.000,0.000,0.000,0.000,0,2,0,1,7,255,960,200,0,0,-89.377,0.719,-31.429
EX0521-092111,17,C01,prep,2140,2140,0,867924.092,0.686,-0.676,0.195,0.188,0,0,0,0,0,0,0,0,0,0.000,0,0,0.110,0.003,-0.020,-0.100,-0.040,0.014,0.994,0.012,-0.002,-0.002,0.002,0.000,0.000,0.000,0.000,0,2,0,1,7,255,960,200,0,0,-89.377,0.719,-31.429
EX0521-092111,17,C01,prep,2140,2140,0,867929.091,0.686,-0.676,0.195,0.188,0,0,0,0,0,0,0,0,0,0.000,0,0,0.060,0.006,-0.020,-0.040,-0.040,0.014,0.994,0.012,-0.002,-0.006,0.010,0.000,0.000,0.000,0.000,0,2,0,1,7,255,960,200,0,0,-89.377,0.719,-31.429
EX0521-092111,17,C01,prep,2140,2140,0,867934.092,0.686,-0.676,0.195,0.188,0,0,0,0,0,0,0,0,0,0.000,0,0,0.049,0.004,-0.020,0.020,-0.040,0.015,0.993,0.012,-0.002,-0.004,0.010,0.000,0.000,0.000,0.000,0,2,0,1,7,255,960,200,0,0,-89.377,0.719,-31.429
EX0521-092111,17,C01,prep,2140,2140,0,867939.091,0.686,-0.676,0.195,0.188,0,0,0,0,0,0,0,0,0,0.000,0,0,0.060,0.004,-0.020,-0.040,-0.040,0.014,0.993,0.011,0.000,-0.004,0.002,0.000,0.000,0.000,0.000,0,2,0,1,7,255,960,200,0,0,-89.377,0.719,-31.429
EX0521-092111,17,C01,prep,2140,2140,0,867944.092,0.686,-0.676,0.195,0.188,0,0,0,0,0,0,0,0,0,0.000,0,0,0.069,0.002,0.040,-0.040,-0.040,0.014,0.993,0.011,0.000,0.002,0.002,0.000,0.000,0.000,0.000,0,2,0,1,7,255,960,200,0,0,-89.377,0.719,-31.429
EX0521-092111,17,C01,prep,2172,2172,0,867949.092,0.686,-0.676,0.195,0.188,0,0,0,0,0,0,0,0,0,0.000,0,0,0.069,0.003,0.040,-0.040,-0.040,0.014,0.992,0.012,-0.002,0.002,-0.004,0.000,0.000,0.000,0.000,0,2,0,1,7,255,960,200,0,0,-89.377,0.719,-31.429
EX0521-092111,17,C01,prep,2172,2172,0,867954.091,0.686,-0.676,0.195,0.188,0,0,0,0,0,0,0,0,0,0.000,0,0,0.049,0.003,-0.020,-0.040,0.020,0.014,0.992,0.011,-0.002,0.002,-0.008,0.000,0.000,0.000,0.000,0,2,0,1,7,255,960,200,0,0,-89.377,0.719,-31.429
EX0521-092111,17,C01,prep,2172,2172,0,867959.094,0.686,-0.676,0.195,0.188,0,0,0,0,0,0,0,0,0,0.000,0,0,0.110,0.000,-0.020,-0.100,-0.040,0.015,0.993,0.011,0.000,0.000,-0.008,0.000,0.000,0.000,0.000,0,2,0,1,7,255,960,200,0,0,-89.377,0.719,-31.429
EX0521-092111,17,C01,prep,2172,2172,0,867964.092,0.686,-0.676,0.195,0.188,0,0,0,0,0,0,0,0,0,0.000,0,0,0.060,0.002,-0.020,-0.040,-0.040,0.014,0.993,0.011,0.000,0.002,0.002,0.000,0.000,0.000,0.000,0,2,0,1,7,255,960,200,0,0,-89.377,0.719,-31.429
EX0521-092111,17,C01,prep,2205,2205,0,867969.092,0.686,-0.676,0.195,0.188,0,0,0,0,0,0,0,0,0,0.000,0,0,0.060,0.004,0.040,-0.040,0.020,0.014,0.993,0.012,-0.004,0.000,0.002,0.000,0.000,0.000,0.000,0,2,0,1,7,255,960,200,0,0,-89.377,0.719,-31.429
EX0521-092111,17,C01,prep,2205,2205,0,867974.093,0.686,-0.676,0.195,0.188,0,0,0,0,0,0,0,0,0,0.000,0,0,0.049,0.004,-0.020,-0.040,0.020,0.014,0.993,0.012,-0.004,0.000,0.002,0.000,0.000,0.000,0.000,0,2,0,1,7,255,960,200,0,0,-89.377,0.719,-31.429
EX0521-092111,17,C01,prep,2206,2206,0,867979.092,0.686,-0.676,0.195,0.188,0,0,0,0,0,0,0,0,0,0.000,0,0,0.110,0.004,-0.020,-0.040,-0.100,0.014,0.993,0.011,-0.004,0.000,0.002,0.000,0.000,0.000,0.000,0,2,0,1,7,255,960,200,0,0,-89.377,0.719,-31.429
EX0521-092111,17,C01,prep,2206,2206,0,867984.091,0.686,-0.676,0.195,0.188,0,0,0,0,0,0,0,0,0,0.000,0,0,0.060,0.002,-0.020,-0.040,-0.040,0.014,0.992,0.011,0.000,0.002,0.002,0.000,0.000,0.000,0.000,0,2,0,1,7,255,960,200,0,0,-89.377,0.719,-31.429
EX0521-092111,17,C01,prep,2207,2207,0,867989.092,0.686,-0.676,0.195,0.188,0,0,0,0,0,0,0,0,0,0.000,0,0,0.060,0.002,-0.020,-0.040,-0.040,0.015,0.992,0.011,0.000,0.002,-0.012,0.000,0.000,0.000,0.000,0,2,0,1,7,255,960,200,0,0,-89.377,0.719,-31.429
EX0521-092111,17,C01,prep,2207,2207,0,867994.092,0.686,-0.676,0.195,0.188,0,0,0,0,0,0,0,0,0,0.000,0,0,0.035,0.002,-0.020,0.020,0.020,0.015,0.993,0.012,0.002,0.000,-0.012,0.000,0.000,0.000,0.000,0,2,0,1,7,255,960,200,0,0,-89.377,0.719,-31.429
EX0521-092111,17,C01,prep,2208,2208,0,867999.092,0.686,-0.676,0.195,0.188,0,0,0,0,0,0,0,0,0,0.000,0,0,0.115,0.003,0.040,-0.100,-0.040,0.014,0.994,0.012,0.002,-0.002,0.002,0.000,0.000,0.000,0.000,0,2,0,1,7,255,960,200,0,0,-89.377,0.719,-31.429
EX0521-092111,17,C01,prep,2208,2208,0,868004.092,0.686,-0.676,0.195,0.188,0,0,0,0,0,0,0,0,0,0.000,0,0,0.069,0.003,0.040,-0.040,-0.040,0.014,0.994,0.011,-0.002,-0.002,0.006,0.000,0.000,0.000,0.000,0,2,0,1,7,255,960,200,0,0,-89.377,0.719,-31.429
EX0521-092111,17,C01,prep,2209,2209,0,868009.091,0.686,-0.676,0.195,0.188,0,0,0,0,0,0,0,0,0,0.000,0,0,0.060,0.006,-0.020,-0.040,-0.040,0.013,0.993,0.011,-0.004,0.004,0.006,0.000,0.000,0.000,0.000,0,2,0,1,7,255,960,200,0,0,-89.377,0.719,-31.429
EX0521-092111,17,C01,prep,2209,2209,0,868014.092,0.686,-0.676,0.195,0.188,0,0,0,0,0,0,0,0,0,0.000,0,0,0.092,0.008,-0.080,-0.040,0.020,0.013,0.994,0.011,-0.006,0.006,0.006,0.000,0.000,0.000,0.000,0,2,0,1,7,255,960,200,0,0,-89.377,0.719,-31.429
EX0521-092111,17,C01,prep,2220,2220,0,868019.091,0.686,-0.676,0.195,0.188,0,0,0,0,0,0,0,0,0,0.000,0,0,0.049,0.008,-0.020,-0.040,0.020,0.014,0.994,0.012,-0.006,0.006,0.006,0.000,0.000,0.000,0.000,0,2,0,1,7,255,960,200,0,0,-89.377,0.719,-31.429
EX0521-092111,17,C01,prep,2220,2220,0,868024.092,0.686,-0.676,0.195,0.188,0,0,0,0,0,0,0,0,0,0.000,0,0,0.060,0.002,-0.020,-0.040,-0.040,0.015,0.993,0.011,-0.002,0.000,0.006,0.000,0.000,0.000,0.000,0,2,0,1,7,255,960,200,0,0,-89.377,0.719,-31.429
EX0521-092111,17,C01,prep,2220,2220,0,868029.091,0.686,-0.676,0.195,0.188,0,0,0,0,0,0,0,0,0,0.000,0,0,0.110,0.004,-0.020,-0.040,-0.100,0.015,0.993,0.011,0.004,0.000,0.002,0.000,0.000,0.000,0.000,0,2,0,1,7,255,960,200,0,0,-89.377,0.719,-31.429
EX0521-092111,17,C01,prep,2220,2220,0,868034.092,0.686,-0.676,0.195,0.188,0,0,0,0,0,0,0,0,0,0.000,0,0,0.110,0.004,-0.020,-0.040,-0.100,0.014,0.993,0.012,0.004,0.000,-0.004,0.000,0.000,0.000,0.000,0,2,0,1,7,255,960,200,0,0,-89.377,0.719,-31.429
EX0521-092111,17,C01,prep,2236,2236,0,868039.091,0.686,-0.676,0.195,0.188,0,0,0,0,0,0,0,0,0,0.000,0,0,0.069,0.006,0.040,-0.040,-0.040,0.013,0.994,0.012,-0.006,0.000,-0.004,0.000,0.000,0.000,0.000,0,2,0,1,7,255,960,200,0,0,-89.377,0.719,-31.429
EX0521-092111,17,C01,prep,2236,2236,0,868044.092,0.686,-0.676,0.195,0.188,0,0,0,0,0,0,0,0,0,0.000,0,0,0.060,0.006,-0.020,-0.040,-0.040,0.014,0.993,0.011,-0.006,0.002,0.002,0.000,0.000,0.000,0.000,0,2,0,1,7,255,960,200,0,0,-89.377,0.719,-31.429
EX0521-092111,17,C01,prep,2284,2284,0,868049.092,0.686,-0.676,0.195,0.188,0,0,0,0,0,0,0,0,0,0.000,0,0,0.069,0.002,0.040,-0.040,-0.040,0.015,0.993,0.011,0.000,0.002,0.002,0.000,0.000,0.000,0.000,0,2,0,1,7,255,960,200,0,0,-89.377,0.719,-31.429
EX0521-092111,17,C01,prep,2284,2284,0,868054.091,0.686,-0.676,0.195,0.188,0,0,0,0,0,0,0,0,0,0.000,0,0,0.069,0.000,0.040,-0.040,-0.040,0.014,0.993,0.012,0.000,0.000,0.002,0.000,0.000,0.000,0.000,0,2,0,1,7,255,960,200,0,0,-89.378,0.719,-31.429
EX0521-092111,17,C01,prep,2284,2284,0,868059.092,0.686,-0.676,0.195,0.188,0,0,0,0,0,0,0,0,0,0.000,0,0,0.069,0.002,0.040,-0.040,-0.040,0.015,0.994,0.012,0.002,0.000,0.002,0.000,0.000,0.000,0.000,0,2,0,1,7,255,960,200,0,0,-89.378,0.719,-31.429
EX0521-092111,17,C01,prep,2284,2284,0,868064.092,0.686,-0.676,0.195,0.188,0,0,0,0,0,0,0,0,0,0.000,0,0,0.069,0.002,0.040,-0.040,-0.040,0.014,0.994,0.011,-0.002,0.000,0.006,0.000,0.000,0.000,0.000,0,2,0,1,7,255,960,200,0,0,-89.378,0.719,-31.429
EX0521-092111,17,C01,prep,2284,2284,0,868069.092,0.686,-0.676,0.195,0.188,0,0,0,0,0,0,0,0,0,0.000,0,0,0.060,0.003,0.040,-0.040,0.020,0.013,0.993,0.012,-0.002,0.002,0.006,0.000,0.000,0.000,0.000,0,2,0,1,7,255,960,200,0,0,-89.378,0.719,-31.429
EX0521-092111,17,C01,prep,2284,2284,0,868074.093,0.686,-0.676,0.195,0.188,0,0,0,0,0,0,0,0,0,0.000,0,0,0.069,0.003,0.040,-0.040,-0.040,0.014,0.993,0.011,-0.002,0.002,0.002,0.000,0.000,0.000,0.000,0,2,0,1,7,255,960,200,0,0,-89.378,0.719,-31.429
EX0521-092111,17,C01,prep,2305,2305,0,868079.092,0.686,-0.676,0.195,0.188,0,0,0,0,0,0,0,0,0,0.000,0,0,0.060,0.002,-0.020,-0.040,-0.040,0.014,0.992,0.010,0.000,0.002,-0.004,0.000,0.000,0.000,0.000,0,2,0,1,7,255,960,200,0,0,-89.378,0.719,-31.429
EX0521-092111,17,C01,prep,2305,2305,0,868084.092,0.686,-0.676,0.195,0.188,0,0,0,0,0,0,0,0,0,0.000,0,0,0.069,0.002,0.040,-0.040,-0.040,0.015,0.993,0.012,0.000,0.002,-0.004,0.000,0.000,0.000,0.000,0,2,0,1,7,255,960,200,0,0,-89.378,0.719,-31.429
EX0521-092111,17,C01,prep,2305,2305,0,868089.092,0.686,-0.676,0.195,0.188,0,0,0,0,0,0,0,0,0,0.000,0,0,0.060,0.010,-0.020,-0.040,-0.040,0.016,0.993,0.012,0.006,-0.008,-0.004,0.000,0.000,0.000,0.000,0,2,0,1,7,255,960,200,0,0,-89.378,0.719,-31.429
EX0521-092111,17,C01,prep,2305,2305,0,868094.092,0.686,-0.676,0.195,0.188,0,0,0,0,0,0,0,0,0,0.000,0,0,0.115,0.008,0.040,-0.100,-0.040,0.013,0.993,0.012,0.000,-0.008,-0.004,0.000,0.000,0.000,0.000,0,2,0,1,7,255,960,200,0,0,-89.378,0.719,-31.429
EX0521-092111,17,C01,prep,2305,2305,0,868099.091,0.686,-0.676,0.195,0.188,0,0,0,0,0,0,0,0,0,0.000,0,0,0.069,0.007,0.040,-0.040,-0.040,0.014,0.994,0.012,-0.004,-0.006,0.002,0.000,0.000,0.000,0.000,0,2,0,1,7,255,960,200,0,0,-89.378,0.719,-31.429
EX0521-092111,17,C01,prep,2305,2305,0,868104.092,0.686,-0.676,0.195,0.188,0,0,0,0,0,0,0,0,0,0.000,0,0,0.060,0.004,0.040,-0.040,0.020,0.015,0.994,0.010,-0.004,0.002,0.006,0.000,0.000,0.000,0.000,0,2,0,1,7,255,960,200,0,0,-89.378,0.719,-31.429
EX0521-092111,17,C01,prep,2306,2306,0,868109.091,0.686,-0.676,0.195,0.188,0,0,0,0,0,0,0,0,0,0.000,0,0,0.060,0.006,-0.020,-0.040,-0.040,0.014,0.994,0.010,0.002,0.006,0.006,0.000,0.000,0.000,0.000,0,2,0,1,7,255,960,200,0,0,-89.378,0.719,-31.429
EX0521-092111,17,C01,prep,2306,2306,0,868114.092,0.686,-0.676,0.195,0.188,0,0,0,0,0,0,0,0,0,0.000,0,0,0.049,0.006,-0.020,0.020,-0.040,0.014,0.993,0.011,0.002,0.006,0.006,0.000,0.000,0.000,0.000,0,2,0,1,7,255,960,200,0,0,-89.378,0.719,-31.429
EX0521-092111,17,C01,prep,2317,2317,0,868119.091,0.686,-0.676,0.195,0.188,0,0,0,0,0,0,0,0,0,0.000,0,0,0.110,0.006,-0.020,-0.040,-0.100,0.015,0.993,0.011,0.002,0.006,0.002,0.000,0.000,0.000,0.000,0,2,0,1,7,255,960,200,0,0,-89.378,0.719,-31.429
EX0521-092111,17,C01,prep,2317,2317,0,868124.092,0.686,-0.676,0.195,0.188,0,0,0,0,0,0,0,0,0,0.000,0,0,0.069,0.006,0.040,-0.040,-0.040,0.015,0.993,0.012,0.006,0.000,0.002,0.000,0.000,0.000,0.000,0,2,0,1,7,255,960,200,0,0,-89.378,0.719,-31.429
EX0521-092111,17,C01,prep,2348,2348,0,868129.092,0.686,-0.676,0.195,0.188,0,0,0,0,0,0,0,0,0,0.000,0,0,0.069,0.006,0.040,-0.040,-0.040,0.015,0.994,0.011,0.006,0.000,0.002,0.000,0.000,0.000,0.000,0,2,0,1,7,255,960,200,0,0,-89.378,0.719,-31.429
EX0521-092111,17,C01,prep,2348,2348,0,868134.092,0.686,-0.676,0.195,0.188,0,0,0,0,0,0,0,0,0,0.000,0,0,0.060,0.006,0.040,-0.040,0.020,0.014,0.995,0.011,0.006,0.002,0.006,0.000,0.000,0.000,0.000,0,2,0,1,7,255,960,200,0,0,-89.378,0.719,-31.429
EX0521-092111,17,C01,prep,2348,2348,0,868139.092,0.686,-0.676,0.195,0.188,0,0,0,0,0,0,0,0,0,0.000,0,0,0.069,0.002,0.040,-0.040,-0.040,0.013,0.994,0.012,0.000,0.002,0.006,0.000,0.000,0.000,0.000,0,2,0,1,7,255,960,200,0,0,-89.378,0.719,-31.429
EX0521-092111,17,C01,prep,2348,2348,0,868144.091,0.686,-0.676,0.195,0.188,0,0,0,0,0,0,0,0,0,0.000,0,0,0.060,0.002,0.040,-0.040,0.020,0.015,0.994,0.012,0.000,0.002,0.010,0.000,0.000,0.000,0.000,0,2,0,1,7,255,960,200,0,0,-89.378,0.719,-31.429
EX0521-092111,17,C01,prep,2348,2348,0,868149.092,0.686,-0.676,0.195,0.188,0,0,0,0,0,0,0,0,0,0.000,0,0,0.060,0.006,-0.020,-0.040,-0.040,0.015,0.995,0.010,0.006,0.002,0.010,0.000,0.000,0.000,0.000,0,2,0,1,7,255,960,200,0,0,-89.378,0.719,-31.429
EX0521-092111,17,C01,prep,2348,2348,0,868154.091,0.686,-0.676,0.195,0.188,0,0,0,0,0,0,0,0,0,0.000,0,0,0.069,0.010,0.040,-0.040,-0.040,0.014,0.994,0.010,0.008,0.006,0.010,0.000,0.000,0.000,0.000,0,2,0,1,7,255,960,200,0,0,-89.378,0.719,-31.429
EX0521-092111,17,C01,prep,2380,2380,0,868159.092,0.686,-0.676,0.195,0.188,0,0,0,0,0,0,0,0,0,0.000,0,0,0.060,0.010,-0.020,-0.040,-0.040,0.015,0.993,0.011,0.008,0.006,0.010,0.000,0.000,0.000,0.000,0,2,0,1,7,255,960,200,0,0,-89.378,0.719,-31.429
EX0521-092111,17,C01,prep,2380,2380,0,868164.093,0.686,-0.676,0.195,0.188,0,0,0,0,0,0,0,0,0,0.000,0,0,0.069,0.008,0.040,-0.040,-0.040,0.014,0.992,0.011,0.006,0.006,0.000,0.000,0.000,0.000,0.000,0,2,0,1,7,255,960,200,0,0,-89.378,0.719,-31.429
EX0521-092111,17,C01,prep,2380,2380,0,868169.092,0.686,-0.676,0.195,0.188,0,0,0,0,0,0,0,0,0,0.000,0,0,0.060,0.006,0.040,-0.040,0.020,0.014,0.993,0.011,0.002,0.006,-0.004,0.000,0.000,0.000,0.000,0,2,0,1,7,255,960,200,0,0,-89.378,0.719,-31.429
EX0521-092111,17,C01,prep,2380,2380,0,868174.091,0.686,-0.676,0.195,0.188,0,0,0,0,0,0,0,0,0,0.000,0,0,0.110,0.006,-0.020,-0.100,-0.040,0.015,0.994,0.012,0.002,0.006,-0.004,0.000,0.000,0.000,0.000,0,2,0,1,7,255,960,200,0,0,-89.378,0.719,-31.429
EX0521-092111,17,C01,prep,2380,2380,0,868179.092,0.686,-0.676,0.195,0.188,0,0,0,0,0,0,0,0,0,0.000,0,0,0.069,0.004,0.040,-0.040,-0.040,0.015,0.993,0.010,0.002,0.004,0.000,0.000,0.000,0.000,0.000,0,2,0,1,7,255,960,200,0,0,-89.378,0.719,-31.429
EX0521-092111,17,C01,prep,2380,2380,0,868184.092,0.686,-0.676,0.195,0.188,0,0,0,0,0,0,0,0,0,0.000,0,0,0.069,0.004,0.040,-0.040,-0.040,0.015,0.993,0.011,0.004,-0.002,0.000,0.000,0.000,0.000,0.000,0,2,0,1,7,255,960,200,0,0,-89.378,0.719,-31.429
EX0521-092111,17,C01,prep,2396,2396,0,868189.091,0.686,-0.676,0.195,0.188,0,0,0,0,0,0,0,0,0,0.000,0,0,0.049,0.013,-0.020,-0.040,0.020,0.015,0.993,0.010,0.012,0.004,0.000,0.000,0.000,0.000,0.000,0,2,0,1,7,255,960,200,0,0,-89.378,0.719,-31.429
EX0521-092111,17,C01,prep,2396,2396,0,868194.092,0.686,-0.676,0.195,0.188,0,0,0,0,0,0,0,0,0,0.000,0,0,0.060,0.006,-0.020,-0.040,-0.040,0.014,0.992,0.011,0.004,0.004,-0.004,0.000,0.000,0.000,0.000,0,2,0,1,7,255,960,200,0,0,-89.378,0.719,-31.429
EX0521-092111,17,C01,prep,2396,2396,0,868199.091,0.686,-0.676,0.195,0.188,0,0,0,0,0,0,0,0,0,0.000,0,0,0.069,0.006,0.040,-0.040,-0.040,0.014,0.992,0.012,-0.004,0.004,-0.008,0.000,0.000,0.000,0.000,0,2,0,1,7,255,960,200,0,0,-89.378,0.719,-31.429
EX0521-092111,17,C01,prep,2396,2396,0,868204.092,0.686,-0.676,0.195,0.188,0,0,0,0,0,0,0,0,0,0.000,0,0,0.069,0.004,0.040,-0.040,-0.040,0.015,0.992,0.011,-0.004,0.002,-0.008,0.000,0.000,0.000,0.000,0,2,0,1,7,255,960,200,0,0,-89.378,0.719,-31.429
EX0521-092111,17,C01,prep,2412,2412,0,868209.091,0.686,-0.676,0.195,0.188,0,0,0,0,0,0,0,0,0,0.000,0,0,0.049,0.004,-0.020,-0.040,0.020,0.014,0.993,0.011,-0.004,0.002,-0.008,0.000,0.000,0.000,0.000,0,2,0,1,7,255,960,200,0,0,-89.378,0.719,-31.429
EX0521-092111,17,C01,prep,2412,2412,0,868214.092,0.686,-0.676,0.195,0.188,0,0,0,0,0,0,0,0,0,0.000,0,0,0.060,0.004,-0.020,-0.040,-0.040,0.015,0.993,0.011,0.004,0.002,-0.004,0.000,0.000,0.000,0.000,0,2,0,1,7,255,960,200,0,0,-89.378,0.719,-31.429
EX0521-092111,17,C01,prep,2429,2429,0,868219.091,0.686,-0.676,0.195,0.188,0,0,0,0,0,0,0,0,0,0.000,0,0,0.049,0.004,-0.020,-0.040,0.020,0.014,0.993,0.012,-0.004,-0.002,-0.004,0.000,0.000,0.000,0.000,0,2,0,1,7,255,960,200,0,0,-89.378,0.719,-31.429
EX0521-092111,17,C01,prep,2429,2429,0,868224.092,0.686,-0.676,0.195,0.188,0,0,0,0,0,0,0,0,0,0.000,0,0,0.110,0.004,0.100,-0.040,0.020,0.015,0.993,0.012,0.002,-0.004,-0.004,0.000,0.000,0.000,0.000,0,2,0,1,7,255,960,200,0,0,-89.378,0.719,-31.429
EX0521-092111,17,C01,prep,2429,2429,0,868229.092,0.686,-0.676,0.195,0.188,0,0,0,0,0,0,0,0,0,0.000,0,0,0.060,0.004,-0.020,-0.040,-0.040,0.014,0.993,0.011,0.000,-0.004,-0.004,0.000,0.000,0.000,0.000,0,2,0,1,7,255,960,200,0,0,-89.378,0.719,-31.429
EX0521-092111,17,C01,prep,2429,2429,0,868234.091,0.686,-0.676,0.195,0.188,0,0,0,0,0,0,0,0,0,0.000,0,0,0.143,0.004,-0.020,-0.100,-0.100,0.015,0.994,0.011,0.002,-0.004,0.000,0.000,0.000,0.000,0.000,0,2,0,1,7,255,960,200,0,0,-89.378,0.719,-31.429
EX0521-092111,17,C01,prep,2429,2429,0,868239.092,0.686,-0.676,0.195,0.188,0,0,0,0,0,0,0,0,0,0.000,0,0,0.069,0.002,0.040,-0.040,-0.040,0.014,0.993,0.010,0.000,0.002,0.000,0.000,0.000,0.000,0.000,0,2,0,1,7,255,960,200,0,0,-89.378,0.719,-31.429
EX0521-092111,17,C01,prep,2429,2429,0,868244.091,0.686,-0.676,0.195,0.188,0,0,0,0,0,0,0,0,0,0.000,0,0,0.049,0.006,-0.020,-0.040,0.020,0.015,0.991,0.011,0.006,0.002,0.000,0.000,0.000,0.000,0.000,0,2,0,1,7,255,960,200,0,0,-89.378,0.719,-31.429
EX0521-092111,17,C01,prep,2471,2471,0,868249.092,0.686,-0.676,0.195,0.188,0,0,0,0,0,0,0,0,0,0.000,0,0,0.049,0.002,-0.020,0.020,-0.040,0.013,0.992,0.012,0.000,0.002,-0.008,0.000,0.000,0.000,0.000,0,2,0,1,7,255,960,200,0,0,-89.378,0.719,-31.429
EX0521-092111,17,C01,prep,2471,2471,0,868254.091,0.686,-0.676,0.195,0.188,0,0,0,0,0,0,0,0,0,0.000,0,0,0.060,0.006,-0.020,-0.040,-0.040,0.014,0.994,0.012,-0.006,0.002,-0.008,0.000,0.000,0.000,0.000,0,2,0,1,7,255,960,200,0,0,-89.378,0.719,-31.429
EX0521-092111,17,C01,prep,2472,2472,0,868259.092,0.686,-0.676,0.195,0.188,0,0,0,0,0,0,0,0,0,0.000,0,0,0.049,0.006,-0.020,-0.040,0.020,0.014,0.994,0.012,-0.006,0.000,0.006,0.000,0.000,0.000,0.000,0,2,0,1,7,255,960,200,0,0,-89.378,0.720,-31.429
EX0521-092111,17,C01,prep,2472,2472,0,868264.093,0.686,-0.676,0.195,0.188,0,0,0,0,0,0,0,0,0,0.000,0,0,0.115,0.006,0.040,-0.040,-0.100,0.014,0.993,0.012,-0.006,-0.002,0.006,0.000,0.000,0.000,0.000,0,2,0,1,7,255,960,200,0,0,-89.378,0.720,-31.429
