experiment_id,condition_order_index,condition_id,condition_phase,condition_phase_elapsed_ms,condition_elapsed_ms,is_stimulation_on,t_ms,R_q0,R_q1,R_q2,R_q3,R_heel1,R_mid1,R_fore1,R_heel2,R_fore3,R_mid2,R_fore4,R_fore2,R_cadence,R_speed,R_steps,R_zupt,R_gyroNorm,R_accH,R_gyro_x,R_gyro_y,R_gyro_z,R_acc_x,R_acc_y,R_acc_z,R_nav_ax,R_nav_ay,R_nav_az,R_stepVel,R_stepVelj,R_stepDispRaw,R_stepDispZUPT,R_gaitEvent,R_motorMode,R_motorActive,R_motorAlignment,R_motorRegionMask,R_motorAmplitude,R_motorIntervalMs,R_motorDurationMs,R_motorPhaseMs,R_motorCycleMs,R_roll,R_pitch,R_yaw
EX0521-092111,2,C22,baseline,3951,3951,0,349369.092,0.687,-0.680,0.184,0.179,0,0,0,0,0,0,0,0,0,0.000,0,0,0.049,0.008,0.020,-0.040,0.020,0.015,0.995,0.012,0.006,-0.006,0.004,0.000,0.000,0.000,0.000,0,0,0,0,7,255,0,250,0,0,-89.580,0.501,-29.798
EX0521-092111,2,C22,baseline,3951,3951,0,349374.092,0.687,-0.680,0.184,0.179,0,0,0,0,0,0,0,0,0,0.000,0,0,0.069,0.003,-0.040,-0.040,-0.040,0.014,0.996,0.011,-0.002,-0.002,0.004,0.000,0.000,0.000,0.000,0,0,0,0,7,255,0,250,0,0,-89.580,0.501,-29.798
EX0521-092111,2,C22,baseline,3951,3951,0,349379.092,0.687,-0.680,0.184,0.179,0,0,0,0,0,0,0,0,0,0.000,0,0,0.049,0.003,0.020,-0.040,0.020,0.014,0.995,0.012,-0.002,0.002,0.004,0.000,0.000,0.000,0.000,0,0,0,0,7,255,0,250,0,0,-89.581,0.501,-29.798
EX0521-092111,2,C22,baseline,3951,3951,0,349384.093,0.687,-0.680,0.184,0.179,0,0,0,0,0,0,0,0,0,0.000,0,0,0.060,0.004,0.020,-0.040,-0.040,0.014,0.995,0.011,-0.002,0.004,-0.002,0.000,0.000,0.000,0.000,0,0,0,0,7,255,0,250,0,0,-89.582,0.501,-29.798
EX0521-092111,2,C22,baseline,3985,3985,0,349389.092,0.687,-0.680,0.184,0.179,0,0,0,0,0,0,0,0,0,0.000,0,0,0.049,0.002,0.020,-0.040,0.020,0.016,0.996,0.011,0.000,0.002,-0.002,0.000,0.000,0.000,0.000,0,0,0,0,7,255,0,250,0,0,-89.582,0.501,-29.798
EX0521-092111,2,C22,baseline,3985,3985,0,349394.092,0.687,-0.680,0.184,0.179,0,0,0,0,0,0,0,0,0,0.000,0,0,0.060,0.000,0.020,-0.040,-0.040,0.015,0.995,0.013,0.000,0.000,-0.002,0.000,0.000,0.000,0.000,0,0,0,0,7,255,0,250,0,0,-89.578,0.502,-29.798
EX0521-092111,2,C22,baseline,3986,3986,0,349399.092,0.687,-0.680,0.184,0.179,0,0,0,0,0,0,0,0,0,0.000,0,0,0.060,0.010,0.020,-0.040,-0.040,0.016,0.996,0.011,0.010,-0.002,0.008,0.000,0.000,0.000,0.000,0,0,0,0,7,255,0,250,0,0,-89.579,0.502,-29.798
EX0521-092111,2,C22,baseline,3986,3986,0,349404.092,0.687,-0.680,0.184,0.179,0,0,0,0,0,0,0,0,0,0.000,0,0,0.049,0.003,0.020,-0.040,0.020,0.015,0.993,0.011,0.002,-0.002,-0.002,0.000,0.000,0.000,0.000,0,0,0,0,7,255,0,250,0,0,-89.579,0.502,-29.798
EX0521-092111,2,C22,baseline,3986,3986,0,349409.091,0.687,-0.680,0.184,0.179,0,0,0,0,0,0,0,0,0,0.000,0,0,0.049,0.003,0.020,-0.040,0.020,0.014,0.995,0.012,0.002,0.002,0.004,0.000,0.000,0.000,0.000,0,0,0,0,7,255,0,250,0,0,-89.580,0.501,-29.798
EX0521-092111,2,C22,baseline,3986,3986,0,349414.093,0.687,-0.680,0.184,0.179,0,0,0,0,0,0,0,0,0,0.000,0,0,0.092,0.004,0.080,-0.040,0.020,0.015,0.996,0.011,0.002,0.004,0.004,0.000,0.000,0.000,0.000,0,0,0,0,7,255,0,250,0,0,-89.580,0.501,-29.798
EX0521-092111,2,C22,baseline,4000,4000,0,349419.092,0.687,-0.680,0.184,0.180,0,0,0,0,0,0,0,0,0,0.000,0,0,0.049,0.009,0.020,-0.040,0.020,0.014,0.995,0.012,-0.008,0.004,0.004,0.000,0.000,0.000,0.000,0,0,0,0,7,255,0,250,0,0,-89.581,0.499,-29.798
EX0521-092111,2,C22,baseline,4000,4000,0,349424.091,0.687,-0.680,0.184,0.179,0,0,0,0,0,0,0,0,0,0.000,0,0,0.060,0.004,-0.040,-0.040,0.020,0.015,0.995,0.011,0.004,0.002,0.004,0.000,0.000,0.000,0.000,0,0,0,0,7,255,0,250,0,0,-89.582,0.499,-29.798
EX0521-092111,2,C22,baseline,4000,4000,0,349429.092,0.687,-0.680,0.184,0.179,0,0,0,0,0,0,0,0,0,0.000,0,0,0.049,0.003,0.020,-0.040,0.020,0.014,0.994,0.011,-0.002,0.002,-0.002,0.000,0.000,0.000,0.000,0,0,0,0,7,255,0,250,0,0,-89.582,0.499,-29.798
EX0521-092111,2,C22,baseline,4000,4000,0,349434.092,0.687,-0.680,0.184,0.179,0,0,0,0,0,0,0,0,0,0.000,0,0,0.049,0.002,0.020,-0.040,0.020,0.015,0.995,0.012,-0.002,0.000,-0.002,0.000,0.000,0.000,0.000,0,0,0,0,7,255,0,250,0,0,-89.583,0.500,-29.798
EX0521-092111,2,C22,baseline,4026,4026,0,349439.094,0.687,-0.680,0.184,0.180,0,0,0,0,0,0,0,0,0,0.000,0,0,0.092,0.004,0.080,-0.040,0.020,0.013,0.995,0.011,-0.002,0.004,-0.002,0.000,0.000,0.000,0.000,0,0,0,0,7,255,0,250,0,0,-89.584,0.498,-29.798
EX0521-092111,2,C22,baseline,4026,4026,0,349444.092,0.687,-0.680,0.184,0.180,0,0,0,0,0,0,0,0,0,0.000,0,0,0.130,0.004,0.080,-0.100,0.020,0.014,0.994,0.012,-0.004,0.000,-0.002,0.000,0.000,0.000,0.000,0,0,0,0,7,255,0,250,0,0,-89.584,0.498,-29.798
EX0521-092111,2,C22,baseline,4026,4026,0,349449.091,0.687,-0.680,0.184,0.180,0,0,0,0,0,0,0,0,0,0.000,0,0,0.049,0.004,0.020,-0.040,0.020,0.014,0.995,0.012,-0.004,0.000,-0.002,0.000,0.000,0.000,0.000,0,0,0,0,7,255,0,250,0,0,-89.585,0.498,-29.798
EX0521-092111,2,C22,baseline,4026,4026,0,349454.092,0.687,-0.680,0.184,0.180,0,0,0,0,0,0,0,0,0,0.000,0,0,0.060,0.004,0.020,-0.040,-0.040,0.015,0.994,0.011,-0.004,0.000,-0.006,0.000,0.000,0.000,0.000,0,0,0,0,7,255,0,250,0,0,-89.585,0.498,-29.798
EX0521-092111,2,C22,baseline,4039,4039,0,349459.092,0.687,-0.680,0.184,0.179,0,0,0,0,0,0,0,0,0,0.000,0,0,0.049,0.004,0.020,-0.040,0.020,0.014,0.995,0.011,-0.002,0.004,-0.002,0.000,0.000,0.000,0.000,0,0,0,0,7,255,0,250,0,0,-89.586,0.498,-29.798
EX0521-092111,2,C22,baseline,4039,4039,0,349464.092,0.687,-0.680,0.184,0.179,0,0,0,0,0,0,0,0,0,0.000,0,0,0.049,0.006,0.020,-0.040,0.020,0.014,0.995,0.011,0.000,0.006,0.004,0.000,0.000,0.000,0.000,0,0,0,0,7,255,0,250,0,0,-89.587,0.498,-29.798
EX0521-092111,2,C22,baseline,4050,4050,0,349469.093,0.687,-0.680,0.184,0.179,0,0,0,0,0,0,0,0,0,0.000,0,0,0.104,0.004,0.020,-0.100,0.020,0.015,0.994,0.011,0.000,0.004,0.004,0.000,0.000,0.000,0.000,0,0,0,0,7,255,0,250,0,0,-89.587,0.499,-29.798
EX0521-092111,2,C22,baseline,4050,4050,0,349474.092,0.687,-0.680,0.184,0.179,0,0,0,0,0,0,0,0,0,0.000,0,0,0.049,0.004,0.020,-0.040,0.020,0.014,0.995,0.011,0.000,0.004,0.004,0.000,0.000,0.000,0.000,0,0,0,0,7,255,0,250,0,0,-89.588,0.499,-29.798
EX0521-092111,2,C22,baseline,4050,4050,0,349479.092,0.687,-0.680,0.184,0.179,0,0,0,0,0,0,0,0,0,0.000,0,0,0.060,0.004,0.020,-0.040,-0.040,0.014,0.994,0.011,-0.002,0.004,-0.006,0.000,0.000,0.000,0.000,0,0,0,0,7,255,0,250,0,0,-89.588,0.498,-29.798
EX0521-092111,2,C22,baseline,4050,4050,0,349484.091,0.687,-0.680,0.184,0.179,0,0,0,0,0,0,0,0,0,0.000,0,0,0.035,0.004,0.020,0.020,0.020,0.016,0.994,0.011,-0.002,0.004,-0.006,0.000,0.000,0.000,0.000,0,0,0,0,7,255,0,250,0,0,-89.589,0.499,-29.798
EX0521-092111,2,C22,baseline,4082,4082,0,349489.091,0.687,-0.680,0.184,0.179,0,0,0,0,0,0,0,0,0,0.000,0,0,0.085,0.008,0.080,0.020,0.020,0.015,0.995,0.011,0.008,0.002,-0.006,0.000,0.000,0.000,0.000,0,0,0,0,7,255,0,250,0,0,-89.590,0.499,-29.798
EX0521-092111,2,C22,baseline,4082,4082,0,349494.092,0.687,-0.680,0.184,0.179,0,0,0,0,0,0,0,0,0,0.000,0,0,0.104,0.008,0.020,-0.100,0.020,0.014,0.995,0.012,0.008,-0.002,-0.002,0.000,0.000,0.000,0.000,0,0,0,0,7,255,0,250,0,0,-89.590,0.499,-29.798
EX0521-092111,2,C22,baseline,4082,4082,0,349499.092,0.687,-0.680,0.184,0.179,0,0,0,0,0,0,0,0,0,0.000,0,0,0.060,0.004,-0.040,-0.040,0.020,0.014,0.995,0.011,-0.004,0.002,-0.002,0.000,0.000,0.000,0.000,0,0,0,0,7,255,0,250,0,0,-89.591,0.499,-29.798
EX0521-092111,2,C22,baseline,4082,4082,0,349504.092,0.687,-0.680,0.184,0.179,0,0,0,0,0,0,0,0,0,0.000,0,0,0.049,0.006,0.020,0.020,-0.040,0.015,0.995,0.010,-0.004,0.004,0.004,0.000,0.000,0.000,0.000,0,0,0,0,7,255,0,250,0,0,-89.592,0.499,-29.798
EX0521-092111,2,C22,baseline,4082,4082,0,349509.091,0.687,-0.680,0.184,0.179,0,0,0,0,0,0,0,0,0,0.000,0,0,0.060,0.004,-0.040,-0.040,0.020,0.014,0.996,0.011,-0.002,0.004,0.004,0.000,0.000,0.000,0.000,0,0,0,0,7,255,0,250,0,0,-89.592,0.499,-29.798
EX0521-092111,2,C22,baseline,4082,4082,0,349514.093,0.687,-0.680,0.184,0.179,0,0,0,0,0,0,0,0,0,0.000,0,0,0.272,0.003,-0.100,-0.240,0.080,0.014,0.994,0.012,-0.002,0.002,0.004,0.000,0.000,0.000,0.000,0,0,0,0,7,255,0,250,0,0,-89.588,0.499,-29.798
EX0521-092111,2,C22,baseline,4095,4095,0,349519.092,0.687,-0.680,0.184,0.179,0,0,0,0,0,0,0,0,0,0.000,0,0,0.323,0.004,0.320,0.020,-0.040,0.015,0.995,0.012,-0.002,-0.004,-0.002,0.000,0.000,0.000,0.000,0,0,0,0,7,255,0,250,0,0,-89.589,0.499,-29.798
EX0521-092111,2,C22,baseline,4095,4095,0,349524.091,0.687,-0.680,0.184,0.179,0,0,0,0,0,0,0,0,0,0.000,0,0,0.190,0.004,0.080,0.140,-0.100,0.014,0.998,0.011,-0.002,-0.004,-0.002,0.000,0.000,0.000,0.000,0,0,0,0,7,255,0,250,0,0,-89.589,0.499,-29.798
EX0521-092111,2,C22,baseline,4095,4095,0,349529.091,0.687,-0.680,0.184,0.180,0,0,0,0,0,0,0,0,0,0.000,0,0,0.971,0.004,-0.720,-0.480,0.440,0.015,0.991,0.014,-0.002,-0.004,-0.002,0.000,0.000,0.000,0.000,0,0,0,0,7,255,0,250,0,0,-89.584,0.499,-29.798
EX0521-092111,2,C22,baseline,4095,4095,0,349534.092,0.687,-0.680,0.184,0.179,0,0,0,0,0,0,0,0,0,0.000,0,0,1.286,0.002,1.240,0.020,-0.340,0.016,0.992,0.011,-0.002,0.000,-0.030,0.000,0.000,0.000,0.000,0,0,0,0,7,255,0,250,0,0,-89.591,0.498,-29.798
EX0521-092111,2,C22,baseline,4111,4111,0,349539.092,0.687,-0.680,0.184,0.180,0,0,0,0,0,0,0,0,0,0.000,0,0,0.559,0.002,0.440,0.200,-0.280,0.012,1.002,0.007,0.002,0.000,-0.030,0.000,0.000,0.000,0.000,0,0,0,0,7,255,0,250,0,0,-89.592,0.496,-29.798
EX0521-092111,2,C22,baseline,4111,4111,0,349544.092,0.687,-0.680,0.184,0.180,0,0,0,0,0,0,0,0,0,0.000,0,0,1.965,0.002,-1.880,-0.240,0.520,0.015,0.991,0.014,0.002,0.000,-0.030,0.000,0.000,0.000,0.000,0,0,0,0,7,255,0,250,0,0,-89.581,0.495,-29.798
EX0521-092111,2,C22,baseline,4127,4127,0,349549.091,0.687,-0.680,0.184,0.180,0,0,0,0,0,0,0,0,0,0.000,0,0,0.656,0.024,0.640,0.140,-0.040,0.016,0.987,0.013,0.002,-0.024,-0.040,0.000,0.000,0.000,0.000,0,0,0,0,7,255,0,250,0,0,-89.579,0.496,-29.798
EX0521-092111,2,C22,baseline,4127,4127,0,349554.092,0.687,-0.680,0.184,0.180,0,0,0,0,0,0,0,0,0,0.000,0,0,2.687,0.026,2.460,0.020,-1.080,0.011,1.011,0.009,-0.010,-0.024,-0.040,0.000,0.000,0.000,0.000,0,0,0,0,7,255,0,250,0,0,-89.592,0.489,-29.798
EX0521-092111,2,C22,baseline,4127,4127,0,349559.093,0.687,-0.680,0.184,0.180,0,0,0,0,0,0,0,0,0,0.000,0,0,3.244,0.010,-2.900,-0.460,1.380,0.017,0.973,0.009,0.006,0.008,-0.078,0.000,0.000,0.000,0.000,0,0,0,0,7,255,0,250,0,0,-89.578,0.495,-29.798
EX0521-092111,2,C22,baseline,4127,4127,0,349564.093,0.687,-0.680,0.184,0.180,0,0,0,0,0,0,0,0,0,0.000,0,0,0.944,0.020,0.880,-0.040,-0.340,0.013,1.016,0.012,-0.018,0.008,0.162,0.000,0.000,0.000,0.000,0,0,0,0,7,255,0,250,0,0,-89.583,0.493,-29.798
EX0521-092111,2,C22,baseline,4143,4143,0,349569.091,0.687,-0.680,0.184,0.180,0,0,0,0,0,0,0,0,0,0.000,0,0,3.165,0.004,2.780,0.620,-1.380,0.016,0.981,0.014,0.002,0.004,-0.136,0.000,0.000,0.000,0.000,0,0,0,0,7,255,0,250,0,0,-89.596,0.486,-29.795
EX0521-092111,2,C22,baseline,4143,4143,0,349574.092,0.687,-0.680,0.184,0.180,0,0,0,0,0,0,0,0,0,0.000,0,0,4.857,0.004,-4.300,-0.660,2.160,0.016,0.995,0.006,0.002,0.004,0.002,0.000,0.000,0.000,0.000,0,0,0,0,7,255,0,250,0,0,-89.575,0.496,-29.798
EX0521-092111,2,C22,baseline,4159,4159,0,349579.092,0.687,-0.680,0.184,0.180,0,0,0,1,0,0,0,0,0,0.000,0,0,3.480,0.008,3.140,0.020,-1.500,0.012,1.010,0.014,0.002,-0.008,0.002,0.000,0.000,0.000,0.000,0,0,0,0,7,255,0,250,0,0,-89.589,0.487,-29.798
EX0521-092111,2,C22,baseline,4159,4159,0,349584.091,0.687,-0.680,0.184,0.180,0,0,0,0,0,0,0,0,0,0.000,0,0,0.255,0.014,-0.100,0.080,0.220,0.017,0.966,0.014,0.012,-0.008,0.002,0.000,0.000,0.000,0.000,0,0,0,0,7,255,0,250,0,0,-89.584,0.488,-29.798
EX0521-092111,2,C22,baseline,4191,4191,0,349589.091,0.687,-0.680,0.184,0.180,0,0,0,0,0,0,0,0,0,0.000,0,0,2.439,0.008,-2.240,-0.220,0.940,0.013,1.016,0.009,0.000,-0.008,0.150,0.000,0.000,0.000,0.000,0,0,0,0,7,255,0,250,0,0,-89.573,0.491,-29.798
EX0521-092111,2,C22,baseline,4191,4191,0,349594.092,0.687,-0.680,0.184,0.180,0,0,0,0,0,0,0,0,0,0.000,0,0,1.211,0.008,1.060,0.080,-0.580,0.015,0.988,0.011,0.008,-0.002,-0.062,0.000,0.000,0.000,0.000,0,0,0,0,7,255,0,250,0,0,-89.579,0.487,-29.798
EX0521-092111,2,C22,baseline,4191,4191,0,349599.092,0.687,-0.680,0.184,0.180,0,0,0,0,0,0,0,0,0,0.000,0,0,0.378,0.029,-0.160,-0.040,0.340,0.013,0.997,0.005,0.008,0.028,0.024,0.000,0.000,0.000,0.000,0,0,0,0,7,255,0,250,0,0,-89.580,0.485,-29.798
EX0521-092111,2,C22,baseline,4191,4191,0,349604.092,0.687,-0.680,0.184,0.180,0,0,0,0,0,0,0,0,0,0.000,0,0,2.223,0.008,1.980,0.140,-1.000,0.013,1.005,0.012,0.008,0.002,0.024,0.000,0.000,0.000,0.000,0,0,0,0,7,255,0,250,0,0,-89.590,0.479,-29.798
EX0521-092111,2,C22,baseline,4191,4191,0,349609.092,0.687,-0.680,0.184,0.180,0,0,0,0,0,0,0,0,0,0.000,0,0,1.424,0.004,-1.260,0.320,0.580,0.020,0.970,0.020,0.004,0.002,0.024,0.000,0.000,0.000,0.000,0,0,0,0,7,255,0,250,0,0,-89.581,0.478,-29.798
EX0521-092111,2,C22,baseline,4191,4191,0,349614.093,0.687,-0.680,0.184,0.180,0,0,0,0,0,0,0,0,0,0.000,0,0,0.992,0.006,-0.780,-0.480,0.380,0.014,1.010,0.012,-0.004,-0.004,0.106,0.000,0.000,0.000,0.000,0,0,0,0,7,255,0,250,0,0,-89.578,0.477,-29.798
EX0521-092111,2,C22,baseline,4207,4207,0,349619.092,0.687,-0.680,0.184,0.180,0,0,0,0,0,0,0,0,0,0.000,0,0,1.661,0.006,0.700,1.480,-0.280,0.008,0.987,0.005,-0.004,-0.004,-0.072,0.000,0.000,0.000,0.000,0,0,0,0,7,255,0,250,0,0,-89.582,0.476,-29.791
EX0521-092111,2,C22,baseline,4207,4207,0,349624.091,0.687,-0.680,0.184,0.180,0,0,0,0,0,0,0,0,0,0.000,0,0,1.898,0.006,-1.020,-1.520,0.500,0.019,0.998,0.012,-0.004,-0.004,0.036,0.000,0.000,0.000,0.000,0,0,0,0,7,255,0,250,0,0,-89.577,0.475,-29.798
EX0521-092111,2,C22,baseline,4207,4207,0,349629.091,0.687,-0.680,0.184,0.180,0,0,0,0,0,0,0,0,0,0.000,0,0,1.750,0.018,1.120,1.240,-0.520,0.011,1.002,0.013,-0.018,0.000,0.036,0.000,0.000,0.000,0.000,0,0,0,0,7,255,0,250,0,0,-89.582,0.474,-29.792
EX0521-092111,2,C22,baseline,4207,4207,0,349634.092,0.687,-0.680,0.184,0.180,0,0,0,0,0,0,0,0,0,0.000,0,0,0.916,0.020,-0.720,-0.420,0.380,0.015,0.986,0.009,0.020,0.000,0.036,0.000,0.000,0.000,0.000,0,0,0,0,7,255,0,250,0,0,-89.579,0.473,-29.792
EX0521-092111,2,C22,baseline,4207,4207,0,349639.092,0.687,-0.680,0.184,0.180,0,0,0,0,0,0,0,0,0,0.000,0,0,1.482,0.002,0.200,-1.460,-0.160,0.015,1.005,0.014,-0.002,0.000,0.078,0.000,0.000,0.000,0.000,0,0,0,0,7,255,0,250,0,0,-89.577,0.472,-29.799
EX0521-092111,2,C22,baseline,4207,4207,0,349644.092,0.687,-0.680,0.184,0.180,0,0,0,0,0,0,0,0,0,0.000,0,0,0.822,0.022,0.560,0.560,-0.220,0.017,0.987,0.009,0.020,0.010,-0.070,0.000,0.000,0.000,0.000,0,0,0,0,7,255,0,250,0,0,-89.578,0.471,-29.799
EX0521-092111,2,C22,baseline,4223,4223,0,349649.092,0.687,-0.680,0.184,0.180,0,0,0,0,0,0,0,0,0,0.000,0,0,1.153,0.022,-1.020,0.200,0.500,0.016,0.996,0.014,0.004,-0.022,0.012,0.000,0.000,0.000,0.000,0,0,0,0,7,255,0,250,0,0,-89.571,0.471,-29.799
EX0521-092111,2,C22,baseline,4223,4223,0,349654.092,0.687,-0.680,0.184,0.180,0,0,0,0,0,0,0,0,0,0.000,0,0,0.906,0.006,0.820,-0.180,-0.340,0.014,0.995,0.011,0.004,0.004,0.006,0.000,0.000,0.000,0.000,0,0,0,0,7,255,0,250,0,0,-89.576,0.470,-29.799
EX0521-092111,2,C22,baseline,4223,4223,0,349659.092,0.687,-0.680,0.184,0.180,0,0,0,0,0,0,0,0,0,0.000,0,0,0.692,0.022,-0.520,-0.220,0.400,0.015,0.991,0.014,0.002,-0.022,0.006,0.000,0.000,0.000,0.000,0,0,0,0,7,255,0,250,0,0,-89.571,0.470,-29.799
EX0521-092111,2,C22,baseline,4223,4223,0,349664.091,0.687,-0.680,0.184,0.180,0,0,0,0,0,0,0,0,0,0.000,0,0,0.580,0.004,-0.160,-0.540,0.140,0.015,1.000,0.010,0.002,0.004,0.006,0.000,0.000,0.000,0.000,0,0,0,0,7,255,0,250,0,0,-89.572,0.470,-29.799
EX0521-092111,2,C22,baseline,4240,4240,0,349669.091,0.687,-0.680,0.184,0.180,0,0,0,0,0,0,0,0,0,0.000,0,0,0.857,0.015,0.140,-0.840,-0.100,0.014,0.992,0.010,0.006,0.014,-0.022,0.000,0.000,0.000,0.000,0,0,0,0,7,255,0,250,0,0,-89.572,0.469,-29.804
EX0521-092111,2,C22,baseline,4240,4240,0,349674.092,0.687,-0.680,0.184,0.180,0,0,0,0,0,0,0,0,0,0.000,0,0,0.345,0.017,-0.280,0.020,0.200,0.016,0.998,0.012,0.010,0.014,0.034,0.000,0.000,0.000,0.000,0,0,0,0,7,255,0,250,0,0,-89.573,0.470,-29.804
EX0521-092111,2,C22,baseline,4262,4262,0,349679.092,0.687,-0.680,0.184,0.180,0,0,0,0,0,0,0,0,0,0.000,0,0,0.510,0.016,0.460,0.020,-0.220,0.016,0.993,0.009,0.010,0.012,-0.018,0.000,0.000,0.000,0.000,0,0,0,0,7,255,0,250,0,0,-89.573,0.471,-29.803
EX0521-092111,2,C22,baseline,4262,4262,0,349684.091,0.687,-0.680,0.184,0.180,0,0,0,0,0,0,0,0,0,0.000,0,0,0.346,0.010,-0.280,-0.040,0.200,0.012,0.995,0.013,0.010,-0.002,0.006,0.000,0.000,0.000,0.000,0,0,0,0,7,255,0,250,0,0,-89.569,0.469,-29.804
EX0521-092111,2,C22,baseline,4262,4262,0,349689.091,0.687,-0.680,0.184,0.180,0,0,0,0,0,0,0,0,0,0.000,0,0,0.147,0.006,0.140,0.020,-0.040,0.014,0.997,0.011,-0.002,0.006,0.006,0.000,0.000,0.000,0.000,0,0,0,0,7,255,0,250,0,0,-89.569,0.469,-29.804
EX0521-092111,2,C22,baseline,4262,4262,0,349694.092,0.687,-0.680,0.184,0.180,0,0,0,0,0,0,0,0,0,0.000,0,0,0.294,0.006,0.080,-0.280,-0.040,0.014,0.993,0.010,-0.002,0.006,0.006,0.000,0.000,0.000,0.000,0,0,0,0,7,255,0,250,0,0,-89.570,0.469,-29.804
EX0521-092111,2,C22,baseline,4288,4288,0,349699.092,0.687,-0.680,0.184,0.180,0,0,0,0,0,0,0,0,0,0.000,0,0,0.205,0.006,-0.100,-0.160,0.080,0.012,0.997,0.014,-0.002,0.006,0.020,0.000,0.000,0.000,0.000,0,0,0,0,7,255,0,250,0,0,-89.565,0.468,-29.804
EX0521-092111,2,C22,baseline,4288,4288,0,349704.092,0.687,-0.680,0.184,0.180,0,0,0,0,0,0,0,0,0,0.000,0,0,0.134,0.006,0.080,-0.100,-0.040,0.015,0.994,0.011,0.006,0.000,-0.004,0.000,0.000,0.000,0.000,0,0,0,0,7,255,0,250,0,0,-89.566,0.468,-29.804
EX0521-092111,2,C22,baseline,4288,4288,0,349709.091,0.687,-0.680,0.184,0.180,0,0,0,0,0,0,0,0,0,0.000,0,0,0.060,0.006,0.020,-0.040,-0.040,0.014,0.995,0.012,-0.006,-0.002,0.002,0.000,0.000,0.000,0.000,0,0,0,0,7,255,0,250,0,0,-89.566,0.468,-29.804
EX0521-092111,2,C22,baseline,4288,4288,0,349714.093,0.687,-0.680,0.184,0.180,0,0,0,0,0,0,0,0,0,0.000,0,0,0.147,0.002,0.140,0.020,-0.040,0.014,0.997,0.011,0.002,0.000,0.002,0.000,0.000,0.000,0.000,0,0,0,0,7,255,0,250,0,0,-89.567,0.468,-29.804
EX0521-092111,2,C22,baseline,4288,4288,0,349719.092,0.687,-0.680,0.184,0.180,0,0,0,0,0,0,0,0,0,0.000,0,0,0.134,0.006,0.080,-0.100,-0.040,0.015,0.994,0.011,0.002,0.006,0.002,0.000,0.000,0.000,0.000,0,0,0,0,7,255,0,250,0,0,-89.568,0.468,-29.804
EX0521-092111,2,C22,baseline,4288,4288,0,349724.091,0.687,-0.680,0.184,0.180,0,0,0,0,0,0,0,0,0,0.000,0,0,0.166,0.014,-0.040,-0.160,0.020,0.016,0.995,0.009,0.010,0.010,0.006,0.000,0.000,0.000,0.000,0,0,0,0,7,255,0,250,0,0,-89.568,0.469,-29.804
EX0521-092111,2,C22,baseline,4304,4304,0,349729.091,0.687,-0.680,0.184,0.180,0,0,0,0,0,0,0,0,0,0.000,0,0,0.110,0.012,-0.040,-0.100,0.020,0.013,0.995,0.012,0.010,0.006,0.000,0.000,0.000,0.000,0.000,0,0,0,0,7,255,0,250,0,0,-89.569,0.469,-29.804
EX0521-092111,2,C22,baseline,4304,4304,0,349734.092,0.687,-0.680,0.184,0.180,0,0,0,0,0,0,0,0,0,0.000,0,0,0.049,0.004,-0.040,0.020,0.020,0.015,0.995,0.012,0.002,0.004,0.000,0.000,0.000,0.000,0.000,0,0,0,0,7,255,0,250,0,0,-89.569,0.469,-29.804
EX0521-092111,2,C22,baseline,4304,4304,0,349739.092,0.687,-0.680,0.184,0.180,0,0,0,0,0,0,0,0,0,0.000,0,0,0.049,0.008,0.020,-0.040,0.020,0.015,0.994,0.012,0.002,-0.008,0.000,0.000,0.000,0.000,0.000,0,0,0,0,7,255,0,250,0,0,-89.570,0.470,-29.803
EX0521-092111,2,C22,baseline,4304,4304,0,349744.092,0.687,-0.680,0.184,0.180,0,0,0,0,0,0,0,0,0,0.000,0,0,0.235,0.008,0.020,-0.220,0.080,0.013,0.995,0.012,0.002,-0.008,0.000,0.000,0.000,0.000,0.000,0,0,0,0,7,255,0,250,0,0,-89.571,0.468,-29.804
EX0521-092111,2,C22,baseline,4319,4319,0,349749.092,0.687,-0.680,0.184,0.180,0,0,0,0,0,0,0,0,0,0.000,0,0,0.601,0.010,0.020,-0.600,0.020,0.015,0.996,0.013,0.000,-0.010,0.006,0.000,0.000,0.000,0.000,0,0,0,0,7,255,0,250,0,0,-89.566,0.468,-29.806
EX0521-092111,2,C22,baseline,4319,4319,0,349754.092,0.687,-0.680,0.184,0.180,0,0,0,0,0,0,0,0,0,0.000,0,0,0.784,0.002,0.020,-0.780,0.080,0.014,0.996,0.010,0.000,0.002,0.010,0.000,0.000,0.000,0.000,0,0,0,0,7,255,0,250,0,0,-89.567,0.469,-29.810
EX0521-092111,2,C22,baseline,4340,4340,0,349759.092,0.687,-0.680,0.184,0.180,0,0,0,0,0,0,0,0,0,0.000,0,0,0.541,0.017,0.020,-0.540,0.020,0.015,0.993,0.009,0.006,0.016,0.010,0.000,0.000,0.000,0.000,0,0,0,0,7,255,0,250,0,0,-89.568,0.469,-29.810
EX0521-092111,2,C22,baseline,4340,4340,0,349764.093,0.687,-0.680,0.184,0.180,0,0,0,0,0,0,0,0,0,0.000,0,0,0.108,0.024,0.080,-0.060,-0.040,0.016,0.993,0.011,0.018,0.016,-0.014,0.000,0.000,0.000,0.000,0,0,0,0,7,255,0,250,0,0,-89.568,0.470,-29.810
EX0521-092111,2,C22,baseline,4340,4340,0,349769.091,0.687,-0.680,0.184,0.180,0,0,0,0,0,0,0,0,0,0.000,0,0,0.108,0.019,0.080,-0.060,-0.040,0.015,0.996,0.012,0.018,-0.006,-0.014,0.000,0.000,0.000,0.000,0,0,0,0,7,255,0,250,0,0,-89.569,0.470,-29.810
EX0521-092111,2,C22,baseline,4340,4340,0,349774.092,0.687,-0.680,0.184,0.180,0,0,0,0,0,0,0,0,0,0.000,0,0,0.185,0.010,-0.040,-0.180,0.020,0.014,0.995,0.010,0.008,-0.006,0.006,0.000,0.000,0.000,0.000,0,0,0,0,7,255,0,250,0,0,-89.570,0.470,-29.810
EX0521-092111,2,C22,baseline,4352,4352,0,349779.092,0.687,-0.680,0.184,0.180,0,0,0,0,0,0,0,0,0,0.000,0,0,0.244,0.010,-0.040,-0.240,0.020,0.015,0.993,0.010,0.008,0.006,0.006,0.000,0.000,0.000,0.000,0,0,0,0,7,255,0,250,0,0,-89.570,0.471,-29.810
EX0521-092111,2,C22,baseline,4352,4352,0,349784.091,0.687,-0.680,0.184,0.180,0,0,0,0,0,0,0,0,0,0.000,0,0,0.247,0.013,-0.040,-0.240,-0.040,0.015,0.994,0.011,0.012,0.006,-0.004,0.000,0.000,0.000,0.000,0,0,0,0,7,255,0,250,0,0,-89.571,0.471,-29.810
EX0521-092111,2,C22,baseline,4383,4383,0,349789.092,0.687,-0.680,0.184,0.180,0,0,0,0,0,0,0,0,0,0.000,0,0,0.244,0.012,0.020,-0.240,-0.040,0.014,0.994,0.012,0.012,0.002,-0.008,0.000,0.000,0.000,0.000,0,0,0,0,7,255,0,250,0,0,-89.571,0.471,-29.810
EX0521-092111,2,C22,baseline,4383,4383,0,349794.092,0.687,-0.680,0.184,0.180,0,0,0,0,0,0,0,0,0,0.000,0,0,0.185,0.003,-0.040,-0.180,0.020,0.014,0.994,0.012,-0.002,-0.002,-0.008,0.000,0.000,0.000,0.000,0,0,0,0,7,255,0,250,0,0,-89.572,0.471,-29.810
EX0521-092111,2,C22,baseline,4383,4383,0,349799.092,0.687,-0.680,0.184,0.180,0,0,0,0,0,0,0,0,0,0.000,0,0,0.123,0.004,0.020,-0.120,0.020,0.013,0.994,0.012,-0.004,-0.002,-0.008,0.000,0.000,0.000,0.000,0,0,0,0,7,255,0,250,0,0,-89.573,0.470,-29.810
EX0521-092111,2,C22,baseline,4383,4383,0,349804.092,0.687,-0.680,0.184,0.180,0,0,0,0,0,0,0,0,0,0.000,0,0,0.123,0.003,0.020,-0.120,0.020,0.015,0.995,0.011,-0.002,0.002,-0.004,0.000,0.000,0.000,0.000,0,0,0,0,7,255,0,250,0,0,-89.573,0.470,-29.810
EX0521-092111,2,C22,baseline,4383,4383,0,349809.092,0.687,-0.680,0.184,0.180,0,0,0,0,0,0,0,0,0,0.000,0,0,0.146,0.003,0.020,-0.120,0.080,0.014,0.994,0.011,0.002,0.002,-0.004,0.000,0.000,0.000,0.000,0,0,0,0,7,255,0,250,0,0,-89.574,0.470,-29.810
EX0521-092111,2,C22,baseline,4383,4383,0,349814.093,0.687,-0.680,0.184,0.180,0,0,0,0,0,0,0,0,0,0.000,0,0,0.198,0.003,0.080,-0.180,0.020,0.015,0.996,0.013,0.002,0.002,0.006,0.000,0.000,0.000,0.000,0,0,0,0,7,255,0,250,0,0,-89.570,0.471,-29.810
EX0521-092111,2,C22,baseline,4406,4406,0,349819.092,0.687,-0.680,0.184,0.180,0,0,0,0,0,0,0,0,0,0.000,0,0,0.242,0.003,0.020,-0.240,0.020,0.014,0.995,0.011,-0.002,0.002,0.000,0.000,0.000,0.000,0.000,0,0,0,0,7,255,0,250,0,0,-89.570,0.471,-29.810
EX0521-092111,2,C22,baseline,4406,4406,0,349824.091,0.687,-0.680,0.184,0.180,0,0,0,0,0,0,0,0,0,0.000,0,0,0.361,0.002,0.020,-0.360,0.020,0.016,0.995,0.011,-0.002,0.000,0.006,0.000,0.000,0.000,0.000,0,0,0,0,7,255,0,250,0,0,-89.571,0.471,-29.810
EX0521-092111,2,C22,baseline,4406,4406,0,349829.092,0.687,-0.680,0.184,0.180,0,0,0,0,0,0,0,0,0,0.000,0,0,0.421,0.012,0.020,-0.420,0.020,0.015,0.994,0.010,0.010,0.006,0.000,0.000,0.000,0.000,0.000,0,0,0,0,7,255,0,250,0,0,-89.572,0.472,-29.810
EX0521-092111,2,C22,baseline,4406,4406,0,349834.092,0.687,-0.680,0.184,0.180,0,0,0,0,0,0,0,0,0,0.000,0,0,0.428,0.010,0.080,-0.420,0.020,0.015,0.994,0.011,0.010,0.000,-0.004,0.000,0.000,0.000,0.000,0,0,0,0,7,255,0,250,0,0,-89.572,0.472,-29.810
EX0521-092111,2,C22,baseline,4406,4406,0,349839.092,0.687,-0.680,0.184,0.180,0,0,0,0,0,0,0,0,0,0.000,0,0,0.198,0.006,0.080,-0.180,0.020,0.015,0.995,0.011,0.006,0.000,-0.004,0.000,0.000,0.000,0.000,0,0,0,0,7,255,0,250,0,0,-89.573,0.472,-29.810
EX0521-092111,2,C22,baseline,4406,4406,0,349844.092,0.687,-0.680,0.184,0.180,0,0,0,0,0,0,0,0,0,0.000,0,0,0.075,0.006,0.020,0.060,-0.040,0.015,0.995,0.011,0.006,0.000,0.000,0.000,0.000,0.000,0.000,0,0,0,0,7,255,0,250,0,0,-89.573,0.473,-29.810
EX0521-092111,2,C22,baseline,4415,4415,0,349849.091,0.687,-0.680,0.184,0.180,0,0,0,0,0,0,0,0,0,0.000,0,0,0.166,0.012,0.080,0.140,-0.040,0.016,0.994,0.011,0.012,0.000,0.000,0.000,0.000,0.000,0.000,0,0,0,0,7,255,0,250,0,0,-89.574,0.473,-29.810
EX0521-092111,2,C22,baseline,4415,4415,0,349854.092,0.687,-0.680,0.184,0.180,0,0,0,0,0,0,0,0,0,0.000,0,0,0.202,0.012,0.020,0.200,0.020,0.015,0.994,0.011,0.012,0.002,-0.004,0.000,0.000,0.000,0.000,0,0,0,0,7,255,0,250,0,0,-89.575,0.474,-29.810
EX0521-092111,2,C22,baseline,4440,4440,0,349859.092,0.687,-0.680,0.184,0.180,0,0,0,0,0,0,0,0,0,0.000,0,0,0.147,0.010,-0.040,0.140,0.020,0.014,0.994,0.010,0.010,0.002,-0.004,0.000,0.000,0.000,0.000,0,0,0,0,7,255,0,250,0,0,-89.575,0.474,-29.810
EX0521-092111,2,C22,baseline,4440,4440,0,349864.091,0.687,-0.680,0.184,0.180,0,0,0,0,0,0,0,0,0,0.000,0,0,0.060,0.004,-0.040,0.020,-0.040,0.015,0.996,0.012,0.004,0.002,-0.004,0.000,0.000,0.000,0.000,0,0,0,0,7,255,0,250,0,0,-89.576,0.474,-29.810
EX0521-092111,2,C22,baseline,4440,4440,0,349869.091,0.687,-0.680,0.184,0.180,0,0,0,0,0,0,0,0,0,0.000,0,0,0.049,0.004,-0.040,0.020,0.020,0.015,0.994,0.011,0.004,0.002,-0.004,0.000,0.000,0.000,0.000,0,0,0,0,7,255,0,250,0,0,-89.576,0.475,-29.810
EX0521-092111,2,C22,baseline,4440,4440,0,349874.092,0.687,-0.680,0.184,0.180,0,0,0,0,0,0,0,0,0,0.000,0,0,0.085,0.006,0.080,0.020,0.020,0.015,0.996,0.012,0.004,-0.004,0.010,0.000,0.000,0.000,0.000,0,0,0,0,7,255,0,250,0,0,-89.577,0.475,-29.810
EX0521-092111,2,C22,baseline,4447,4447,0,349879.092,0.687,-0.680,0.184,0.180,0,0,0,0,0,0,0,0,0,0.000,0,0,0.085,0.004,0.020,0.020,0.080,0.015,0.994,0.012,0.002,-0.004,-0.004,0.000,0.000,0.000,0.000,0,0,0,0,7,255,0,250,0,0,-89.578,0.475,-29.810
EX0521-092111,2,C22,baseline,4447,4447,0,349884.091,0.687,-0.680,0.184,0.180,0,0,0,0,0,0,0,0,0,0.000,0,0,0.092,0.004,-0.040,0.080,0.020,0.014,0.995,0.012,0.002,-0.004,0.006,0.000,0.000,0.000,0.000,0,0,0,0,7,255,0,250,0,0,-89.578,0.475,-29.810
EX0521-092111,2,C22,baseline,4477,4477,0,349889.092,0.687,-0.680,0.184,0.180,0,0,0,0,0,0,0,0,0,0.000,0,0,0.092,0.004,-0.040,0.020,0.080,0.015,0.995,0.012,-0.002,-0.004,0.000,0.000,0.000,0.000,0.000,0,0,0,0,7,255,0,250,0,0,-89.579,0.476,-29.810
EX0521-092111,2,C22,baseline,4477,4477,0,349894.092,0.687,-0.680,0.184,0.180,0,0,0,0,0,0,0,0,0,0.000,0,0,0.128,0.006,-0.040,-0.120,0.020,0.014,0.995,0.012,-0.004,-0.004,0.006,0.000,0.000,0.000,0.000,0,0,0,0,7,255,0,250,0,0,-89.579,0.476,-29.810
EX0521-092111,2,C22,baseline,4480,4480,0,349899.092,0.687,-0.680,0.184,0.180,0,0,0,0,0,0,0,0,0,0.000,0,0,0.185,0.004,-0.040,-0.180,0.020,0.015,0.995,0.012,-0.002,-0.004,0.006,0.000,0.000,0.000,0.000,0,0,0,0,7,255,0,250,0,0,-89.580,0.476,-29.810
EX0521-092111,2,C22,baseline,4480,4480,0,349904.092,0.687,-0.680,0.184,0.180,0,0,0,0,23,0,0,0,0,0.000,0,0,0.185,0.004,-0.040,-0.180,0.020,0.015,0.995,0.012,-0.002,-0.004,0.006,0.000,0.000,0.000,0.000,0,0,0,0,7,255,0,250,0,0,-89.581,0.476,-29.810
EX0521-092111,2,C22,baseline,4480,4480,0,349909.092,0.687,-0.680,0.184,0.180,0,0,0,0,0,0,0,0,0,0.000,0,0,0.162,0.004,0.020,-0.160,0.020,0.014,0.996,0.011,-0.002,-0.004,0.006,0.000,0.000,0.000,0.000,0,0,0,0,7,255,0,250,0,0,-89.581,0.476,-29.810
EX0521-092111,2,C22,baseline,4480,4480,0,349914.093,0.687,-0.680,0.184,0.180,0,0,0,0,0,0,0,0,0,0.000,0,0,0.235,0.003,0.020,-0.220,0.080,0.014,0.996,0.011,-0.002,0.002,0.010,0.000,0.000,0.000,0.000,0,0,0,0,7,255,0,250,0,0,-89.582,0.476,-29.810
EX0521-092111,2,C22,baseline,4511,4511,0,349919.092,0.687,-0.680,0.184,0.180,0,0,0,0,0,0,0,0,0,0.000,0,0,0.222,0.008,0.020,-0.220,0.020,0.014,0.995,0.010,-0.002,0.008,0.010,0.000,0.000,0.000,0.000,0,0,0,0,7,255,0,250,0,0,-89.583,0.476,-29.810
EX0521-092111,2,C22,baseline,4511,4511,0,349924.091,0.687,-0.680,0.184,0.180,0,0,0,0,0,0,0,0,0,0.000,0,0,0.235,0.012,0.020,-0.220,0.080,0.014,0.995,0.010,0.000,0.012,0.006,0.000,0.000,0.000,0.000,0,0,0,0,7,255,0,250,0,0,-89.583,0.476,-29.810
EX0521-092111,2,C22,baseline,4511,4511,0,349929.092,0.687,-0.680,0.184,0.180,0,0,0,0,0,0,0,0,0,0.000,0,0,0.235,0.012,0.080,-0.220,0.020,0.015,0.994,0.012,0.000,0.012,0.006,0.000,0.000,0.000,0.000,0,0,0,0,7,255,0,250,0,0,-89.584,0.477,-29.810
EX0521-092111,2,C22,baseline,4511,4511,0,349934.092,0.687,-0.680,0.184,0.180,0,0,0,0,0,0,0,0,0,0.000,0,0,0.180,0.000,0.080,-0.160,0.020,0.015,0.995,0.011,0.000,0.000,0.006,0.000,0.000,0.000,0.000,0,0,0,0,7,255,0,250,0,0,-89.584,0.477,-29.810
EX0521-092111,2,C22,baseline,4511,4511,0,349939.092,0.687,-0.680,0.184,0.180,0,0,0,0,0,0,0,0,0,0.000,0,0,0.180,0.010,0.020,-0.160,0.080,0.015,0.995,0.011,0.010,0.000,0.000,0.000,0.000,0.000,0.000,0,0,0,0,7,255,0,250,0,0,-89.585,0.477,-29.810
EX0521-092111,2,C22,baseline,4511,4511,0,349944.092,0.687,-0.680,0.184,0.180,0,0,0,0,0,0,0,0,0,0.000,0,0,0.110,0.010,0.020,-0.100,-0.040,0.015,0.995,0.011,0.010,0.000,0.000,0.000,0.000,0.000,0.000,0,0,0,0,7,255,0,250,0,0,-89.586,0.478,-29.810
EX0521-092111,2,C22,baseline,4527,4527,0,349949.092,0.687,-0.680,0.184,0.180,0,0,0,0,0,0,0,0,0,0.000,0,0,0.104,0.002,0.020,-0.100,0.020,0.015,0.995,0.012,0.002,0.000,0.000,0.000,0.000,0.000,0.000,0,0,0,0,7,255,0,250,0,0,-89.582,0.478,-29.810
EX0521-092111,2,C22,baseline,4527,4527,0,349954.092,0.687,-0.680,0.184,0.180,0,0,0,0,0,0,0,0,0,0.000,0,0,0.110,0.002,0.020,-0.100,-0.040,0.015,0.994,0.011,0.002,0.000,0.000,0.000,0.000,0.000,0.000,0,0,0,0,7,255,0,250,0,0,-89.582,0.478,-29.810
EX0521-092111,2,C22,baseline,4527,4527,0,349959.093,0.687,-0.680,0.184,0.180,0,0,0,0,0,0,0,0,0,0.000,0,0,0.035,0.012,0.020,0.020,0.020,0.016,0.995,0.011,0.010,-0.006,0.000,0.000,0.000,0.000,0.000,0,0,0,0,7,255,0,250,0,0,-89.583,0.479,-29.810
EX0521-092111,2,C22,baseline,4527,4527,0,349964.093,0.687,-0.680,0.184,0.180,0,0,0,0,0,0,0,0,0,0.000,0,0,0.060,0.010,-0.040,0.020,-0.040,0.014,0.996,0.011,0.010,0.002,0.000,0.000,0.000,0.000,0.000,0,0,0,0,7,255,0,250,0,0,-89.584,0.479,-29.810
EX0521-092111,2,C22,baseline,4543,4543,0,349969.092,0.687,-0.680,0.184,0.180,0,0,0,0,0,0,0,0,0,0.000,0,0,0.085,0.004,0.080,0.020,0.020,0.014,0.996,0.012,-0.004,-0.002,0.010,0.000,0.000,0.000,0.000,0,0,0,0,7,255,0,250,0,0,-89.584,0.479,-29.810
EX0521-092111,2,C22,baseline,4543,4543,0,349974.092,0.687,-0.680,0.184,0.180,0,0,0,0,0,0,0,0,0,0.000,0,0,0.035,0.009,0.020,0.020,0.020,0.015,0.996,0.010,-0.004,0.008,0.010,0.000,0.000,0.000,0.000,0,0,0,0,7,255,0,250,0,0,-89.585,0.479,-29.810
EX0521-092111,2,C22,baseline,4543,4543,0,349979.092,0.687,-0.680,0.184,0.180,0,0,0,0,0,0,0,0,0,0.000,0,0,0.060,0.002,0.020,-0.040,-0.040,0.015,0.995,0.012,0.000,-0.002,0.010,0.000,0.000,0.000,0.000,0,0,0,0,7,255,0,250,0,0,-89.585,0.480,-29.810
EX0521-092111,2,C22,baseline,4543,4543,0,349984.091,0.687,-0.680,0.184,0.180,0,0,0,0,0,0,0,0,0,0.000,0,0,0.049,0.007,-0.040,0.020,0.020,0.016,0.995,0.011,0.006,-0.004,0.000,0.000,0.000,0.000,0.000,0,0,0,0,7,255,0,250,0,0,-89.586,0.480,-29.810
EX0521-092111,2,C22,baseline,4559,4559,0,349989.092,0.687,-0.680,0.184,0.180,0,0,0,0,0,0,0,0,0,0.000,0,0,0.049,0.004,-0.040,0.020,0.020,0.014,0.995,0.011,0.000,-0.004,0.000,0.000,0.000,0.000,0.000,0,0,0,0,7,255,0,250,0,0,-89.587,0.480,-29.810
EX0521-092111,2,C22,baseline,4559,4559,0,349994.092,0.687,-0.680,0.184,0.180,0,0,0,0,0,0,0,0,0,0.000,0,0,0.049,0.008,-0.040,0.020,0.020,0.015,0.995,0.011,0.008,0.000,0.000,0.000,0.000,0.000,0.000,0,0,0,0,7,255,0,250,0,0,-89.587,0.481,-29.810
EX0521-092111,2,C22,baseline,4592,4592,0,349999.092,0.687,-0.680,0.184,0.180,0,0,0,0,0,0,0,0,0,0.000,0,0,0.060,0.002,-0.040,-0.040,0.020,0.015,0.995,0.012,-0.002,0.000,0.004,0.000,0.000,0.000,0.000,0,0,0,0,7,255,0,250,0,0,-89.583,0.481,-29.810
EX0521-092111,2,C22,baseline,4592,4592,0,350004.092,0.687,-0.680,0.184,0.180,0,0,0,0,0,0,0,0,0,0.000,0,0,0.049,0.003,0.020,-0.040,0.020,0.013,0.995,0.012,-0.002,-0.002,0.000,0.000,0.000,0.000,0.000,0,0,0,0,7,255,0,250,0,0,-89.584,0.479,-29.810
EX0521-092111,2,C22,baseline,4592,4592,0,350009.092,0.687,-0.680,0.184,0.180,0,0,0,0,0,0,0,0,0,0.000,0,0,0.104,0.011,0.020,-0.100,0.020,0.014,0.995,0.012,-0.010,-0.004,0.000,0.000,0.000,0.000,0.000,0,0,0,0,7,255,0,250,0,0,-89.580,0.479,-29.810
EX0521-092111,2,C22,baseline,4592,4592,0,350014.093,0.687,-0.680,0.184,0.180,0,0,0,0,0,0,0,0,0,0.000,0,0,0.110,0.011,-0.040,-0.100,0.020,0.015,0.995,0.012,-0.010,-0.004,0.000,0.000,0.000,0.000,0.000,0,0,0,0,7,255,0,250,0,0,-89.581,0.480,-29.810
EX0521-092111,2,C22,baseline,4592,4592,0,350019.092,0.687,-0.680,0.184,0.180,0,0,0,0,0,0,0,0,0,0.000,0,0,0.104,0.009,0.020,-0.100,0.020,0.014,0.996,0.012,-0.008,-0.004,0.000,0.000,0.000,0.000,0.000,0,0,0,0,7,255,0,250,0,0,-89.581,0.480,-29.810
EX0521-092111,2,C22,baseline,4592,4592,0,350024.091,0.687,-0.680,0.184,0.180,0,0,0,0,0,0,0,0,0,0.000,0,0,0.110,0.009,-0.040,-0.100,0.020,0.014,0.996,0.012,-0.008,-0.004,0.010,0.000,0.000,0.000,0.000,0,0,0,0,7,255,0,250,0,0,-89.582,0.480,-29.810
EX0521-092111,2,C22,baseline,4607,4607,0,350029.092,0.687,-0.680,0.184,0.180,0,0,0,0,0,0,0,0,0,0.000,0,0,0.104,0.008,0.020,-0.100,0.020,0.015,0.996,0.011,-0.008,0.000,0.010,0.000,0.000,0.000,0.000,0,0,0,0,7,255,0,250,0,0,-89.582,0.480,-29.810
EX0521-092111,2,C22,baseline,4607,4607,0,350034.092,0.687,-0.680,0.184,0.180,0,0,0,0,0,0,0,0,0,0.000,0,0,0.110,0.011,0.020,-0.100,-0.040,0.013,0.994,0.011,-0.010,0.004,0.010,0.000,0.000,0.000,0.000,0,0,0,0,7,255,0,250,0,0,-89.583,0.479,-29.810
EX0521-092111,2,C22,baseline,4607,4607,0,350039.091,0.687,-0.680,0.184,0.180,0,0,0,0,0,0,0,0,0,0.000,0,0,0.104,0.006,0.020,-0.100,0.020,0.015,0.994,0.011,0.004,0.004,-0.006,0.000,0.000,0.000,0.000,0,0,0,0,7,255,0,250,0,0,-89.584,0.479,-29.810
EX0521-092111,2,C22,baseline,4607,4607,0,350044.092,0.687,-0.680,0.184,0.180,0,0,0,0,0,0,0,0,0,0.000,0,0,0.049,0.006,0.020,-0.040,0.020,0.014,0.994,0.012,-0.004,0.004,-0.010,0.000,0.000,0.000,0.000,0,0,0,0,7,255,0,250,0,0,-89.584,0.479,-29.810
EX0521-092111,2,C22,baseline,4623,4623,0,350049.092,0.687,-0.680,0.184,0.180,0,0,0,0,0,0,0,0,0,0.000,0,0,0.049,0.003,0.020,-0.040,0.020,0.015,0.996,0.012,-0.002,-0.002,-0.010,0.000,0.000,0.000,0.000,0,0,0,0,7,255,0,250,0,0,-89.585,0.479,-29.810
EX0521-092111,2,C22,baseline,4623,4623,0,350054.092,0.687,-0.680,0.184,0.180,0,0,0,0,0,0,0,0,0,0.000,0,0,0.104,0.008,0.020,-0.100,0.020,0.015,0.994,0.012,-0.002,-0.008,-0.004,0.000,0.000,0.000,0.000,0,0,0,0,7,255,0,250,0,0,-89.581,0.479,-29.810
EX0521-092111,2,C22,baseline,4639,4639,0,350059.093,0.687,-0.680,0.184,0.180,0,0,0,0,0,0,0,0,0,0.000,0,0,0.049,0.008,0.020,-0.040,0.020,0.015,0.996,0.011,-0.002,-0.008,0.010,0.000,0.000,0.000,0.000,0,0,0,0,7,255,0,250,0,0,-89.582,0.480,-29.810
EX0521-092111,2,C22,baseline,4639,4639,0,350064.091,0.687,-0.680,0.184,0.180,0,0,0,0,0,0,0,0,0,0.000,0,0,0.060,0.003,0.020,-0.040,-0.040,0.014,0.995,0.012,-0.002,-0.002,0.004,0.000,0.000,0.000,0.000,0,0,0,0,7,255,0,250,0,0,-89.582,0.480,-29.810
EX0521-092111,2,C22,baseline,4639,4639,0,350069.092,0.687,-0.680,0.184,0.180,0,0,0,0,0,0,0,0,0,0.000,0,0,0.123,0.004,0.020,-0.120,0.020,0.013,0.996,0.012,-0.004,-0.002,0.010,0.000,0.000,0.000,0.000,0,0,0,0,7,255,0,250,0,0,-89.583,0.479,-29.810
EX0521-092111,2,C22,baseline,4639,4639,0,350074.093,0.687,-0.680,0.184,0.180,0,0,0,0,0,0,0,0,0,0.000,0,0,0.035,0.006,0.020,0.020,0.020,0.014,0.995,0.012,-0.006,-0.002,0.004,0.000,0.000,0.000,0.000,0,0,0,0,7,255,0,250,0,0,-89.583,0.479,-29.810
EX0521-092111,2,C22,baseline,4639,4639,0,350079.091,0.687,-0.680,0.184,0.180,0,0,0,0,0,0,0,0,0,0.000,0,0,0.264,0.008,0.020,0.260,-0.040,0.014,0.996,0.012,-0.008,0.000,0.008,0.000,0.000,0.000,0.000,0,0,0,0,7,255,0,250,0,0,-89.584,0.479,-29.810
EX0521-092111,2,C22,baseline,4639,4639,0,350084.091,0.687,-0.680,0.184,0.180,0,0,0,0,0,0,0,0,0,0.000,0,0,0.352,0.006,0.140,0.320,-0.040,0.014,0.995,0.011,-0.006,0.000,0.004,0.000,0.000,0.000,0.000,0,0,0,0,7,255,0,250,0,0,-89.585,0.479,-29.810
EX0521-092111,2,C22,baseline,4687,4687,0,350089.093,0.687,-0.680,0.184,0.180,0,0,0,0,0,0,0,0,0,0.000,0,0,0.254,0.009,0.200,-0.120,-0.100,0.015,0.995,0.010,-0.004,0.008,0.004,0.000,0.000,0.000,0.000,0,0,0,0,7,255,0,250,0,0,-89.585,0.479,-29.810
EX0521-092111,2,C22,baseline,4687,4687,0,350094.092,0.687,-0.680,0.184,0.180,0,0,0,0,0,0,0,0,0,0.000,0,0,0.336,0.016,0.320,0.020,-0.100,0.018,0.993,0.013,0.014,0.008,0.004,0.000,0.000,0.000,0.000,0,0,0,0,7,255,0,250,0,0,-89.581,0.480,-29.810
EX0521-092111,2,C22,baseline,4687,4687,0,350099.091,0.687,-0.680,0.184,0.180,0,0,0,0,0,0,0,0,0,0.000,0,0,0.637,0.016,0.140,0.620,-0.040,0.015,0.992,0.012,0.014,-0.008,-0.020,0.000,0.000,0.000,0.000,0,0,0,0,7,255,0,250,0,0,-89.581,0.480,-29.807
EX0521-092111,2,C22,baseline,4687,4687,0,350104.093,0.687,-0.680,0.184,0.180,0,0,0,0,0,0,0,0,0,0.000,0,0,0.298,0.008,-0.220,0.200,0.020,0.011,0.993,0.013,-0.002,-0.008,-0.020,0.000,0.000,0.000,0.000,0,0,0,0,7,255,0,250,0,0,-89.577,0.479,-29.807
EX0521-092111,2,C22,prep,27,27,0,350109.092,0.687,-0.680,0.184,0.180,0,0,0,0,0,0,0,0,0,0.000,0,0,0.562,0.008,-0.340,0.440,0.080,0.015,1.000,0.012,-0.002,-0.008,-0.014,0.000,0.000,0.000,0.000,0,0,0,0,7,255,0,250,0,0,-89.577,0.479,-29.807
EX0521-092111,2,C22,prep,27,27,0,350114.092,0.687,-0.680,0.184,0.180,0,0,0,0,0,0,0,0,0,0.000,0,0,0.665,0.004,0.380,0.500,-0.220,0.014,1.005,0.007,0.002,0.004,0.048,0.000,0.000,0.000,0.000,0,0,0,0,7,255,0,250,0,0,-89.578,0.479,-29.807
EX0521-092111,2,C22,prep,27,27,0,350119.091,0.687,-0.680,0.184,0.180,0,0,0,0,0,0,0,0,0,0.000,0,0,1.265,0.042,1.120,-0.480,-0.340,0.017,0.995,0.004,0.014,0.040,0.048,0.000,0.000,0.000,0.000,0,0,0,0,7,255,0,250,0,0,-89.584,0.479,-29.807
EX0521-092111,2,C22,prep,27,27,0,350124.091,0.687,-0.680,0.184,0.180,0,0,0,0,0,0,0,0,0,0.000,0,0,0.393,0.042,-0.340,0.140,0.140,0.017,0.983,0.020,0.014,0.040,0.002,0.000,0.000,0.000,0.000,0,0,0,0,7,255,0,250,0,0,-89.574,0.479,-29.807
EX0521-092111,2,C22,prep,27,27,0,350129.092,0.687,-0.680,0.184,0.180,0,0,0,0,0,0,0,0,0,0.000,0,0,1.634,0.024,-1.500,-0.100,0.640,0.014,0.997,0.014,-0.016,-0.018,0.002,0.000,0.000,0.000,0.000,0,0,0,0,7,255,0,250,0,0,-89.565,0.482,-29.807
EX0521-092111,2,C22,prep,27,27,0,350134.092,0.687,-0.680,0.184,0.180,0,0,0,0,0,0,0,0,0,0.000,0,0,0.916,0.024,0.820,0.080,-0.400,0.014,1.000,0.009,-0.016,-0.018,0.018,0.000,0.000,0.000,0.000,0,0,0,0,7,255,0,250,0,0,-89.570,0.481,-29.807
EX0521-092111,2,C22,prep,27,27,0,350139.091,0.687,-0.680,0.184,0.180,0,0,0,0,0,0,0,0,0,0.000,0,0,0.298,0.016,-0.220,0.020,0.200,0.017,0.983,0.012,0.004,-0.016,0.018,0.000,0.000,0.000,0.000,0,0,0,0,7,255,0,250,0,0,-89.570,0.481,-29.807
EX0521-092111,2,C22,prep,27,27,0,350144.092,0.687,-0.680,0.184,0.180,0,0,0,0,0,0,0,0,0,0.000,0,0,0.381,0.024,-0.340,-0.100,0.140,0.012,1.012,0.010,0.004,0.024,0.046,0.000,0.000,0.000,0.000,0,0,0,0,7,255,0,250,0,0,-89.571,0.480,-29.807
EX0521-092111,2,C22,prep,31,31,0,350149.092,0.687,-0.680,0.184,0.180,0,0,0,0,0,0,0,0,0,0.000,0,0,1.540,0.018,1.420,0.140,-0.580,0.016,0.987,0.010,0.016,0.008,-0.074,0.000,0.000,0.000,0.000,0,0,0,0,7,255,0,250,0,0,-89.579,0.476,-29.807
EX0521-092111,2,C22,prep,31,31,0,350154.092,0.687,-0.680,0.184,0.180,0,0,0,0,0,0,0,0,0,0.000,0,0,1.816,0.008,-1.560,-0.300,0.880,0.015,0.996,0.012,-0.002,0.008,0.012,0.000,0.000,0.000,0.000,0,0,0,0,7,255,0,250,0,0,-89.571,0.480,-29.807
EX0521-092111,2,C22,prep,53,53,0,350159.094,0.687,-0.680,0.184,0.180,0,0,0,0,0,0,0,0,0,0.000,0,0,2.544,0.003,2.220,0.320,-1.200,0.013,1.001,0.012,-0.002,-0.002,0.012,0.000,0.000,0.000,0.000,0,0,0,0,7,255,0,250,0,0,-89.583,0.472,-29.807
EX0521-092111,2,C22,prep,53,53,0,350164.091,0.687,-0.680,0.184,0.180,0,0,0,0,0,0,0,0,0,0.000,0,0,2.483,0.006,-2.180,-0.400,1.120,0.016,0.979,0.012,-0.002,-0.006,0.012,0.000,0.000,0.000,0.000,0,0,0,0,7,255,0,250,0,0,-89.571,0.477,-29.807
EX0521-092111,2,C22,prep,53,53,0,350169.092,0.687,-0.680,0.184,0.180,0,0,0,0,0,0,0,0,0,0.000,0,0,1.827,0.014,1.620,0.200,-0.820,0.011,1.014,0.010,-0.014,-0.002,0.066,0.000,0.000,0.000,0.000,0,0,0,0,7,255,0,250,0,0,-89.580,0.471,-29.807
EX0521-092111,2,C22,prep,53,53,0,350174.092,0.687,-0.680,0.184,0.180,0,0,0,0,0,0,0,0,0,0.000,0,0,1.625,0.020,-1.380,-0.400,0.760,0.018,0.977,0.012,0.012,-0.016,-0.160,0.000,0.000,0.000,0.000,0,0,0,0,7,255,0,250,0,0,-89.572,0.475,-29.807
EX0521-092111,2,C22,prep,63,63,0,350179.091,0.687,-0.680,0.184,0.180,0,0,0,0,0,0,0,0,0,0.000,0,0,0.872,0.032,0.760,0.260,-0.340,0.012,1.009,0.009,-0.012,0.030,0.136,0.000,0.000,0.000,0.000,0,0,0,0,7,255,0,250,0,0,-89.577,0.473,-29.807
EX0521-092111,2,C22,prep,63,63,0,350184.091,0.687,-0.680,0.184,0.180,0,0,0,0,0,0,0,0,0,0.000,0,0,0.648,0.013,-0.460,-0.400,0.220,0.016,0.992,0.011,0.012,-0.006,-0.032,0.000,0.000,0.000,0.000,0,0,0,0,7,255,0,250,0,0,-89.577,0.474,-29.807
EX0521-092111,2,C22,prep,95,95,0,350189.092,0.687,-0.680,0.184,0.180,0,0,0,0,0,0,0,0,0,0.000,0,0,0.273,0.013,0.080,0.260,0.020,0.017,0.986,0.013,0.012,-0.006,-0.032,0.000,0.000,0.000,0.000,0,0,0,0,7,255,0,250,0,0,-89.573,0.474,-29.807
EX0521-092111,2,C22,prep,95,95,0,350194.092,0.687,-0.680,0.184,0.180,0,0,0,0,0,0,0,0,0,0.000,0,0,0.629,0.013,0.520,-0.100,-0.340,0.012,1.010,0.009,0.012,-0.006,-0.032,0.000,0.000,0.000,0.000,0,0,0,0,7,255,0,250,0,0,-89.574,0.473,-29.807
EX0521-092111,2,C22,prep,95,95,0,350199.091,0.687,-0.680,0.184,0.180,0,0,0,0,0,0,0,0,0,0.000,0,0,1.127,0.026,-0.960,-0.280,0.520,0.018,0.977,0.014,0.014,-0.022,-0.082,0.000,0.000,0.000,0.000,0,0,0,0,7,255,0,250,0,0,-89.567,0.472,-29.807
EX0521-092111,2,C22,prep,95,95,0,350204.093,0.687,-0.680,0.184,0.180,0,0,0,0,0,0,0,0,0,0.000,0,0,1.596,0.014,1.420,0.440,-0.580,0.014,1.004,0.010,0.000,0.014,0.094,0.000,0.000,0.000,0.000,0,0,0,0,7,255,0,250,0,0,-89.575,0.468,-29.807
EX0521-092111,2,C22,prep,95,95,0,350209.092,0.687,-0.680,0.184,0.180,0,0,0,0,0,0,0,0,0,0.000,0,0,1.578,0.019,-1.380,-0.420,0.640,0.015,0.993,0.010,0.016,0.010,-0.020,0.000,0.000,0.000,0.000,0,0,0,0,7,255,0,250,0,0,-89.569,0.471,-29.807
EX0521-092111,2,C22,prep,95,95,0,350214.092,0.687,-0.680,0.184,0.180,0,0,0,0,0,0,0,0,0,0.000,0,0,0.205,0.010,0.200,-0.040,0.020,0.016,0.986,0.015,0.000,0.010,-0.020,0.000,0.000,0.000,0.000,0,0,0,0,7,255,0,250,0,0,-89.563,0.471,-29.807
EX0521-092111,2,C22,prep,121,121,0,350219.091,0.687,-0.680,0.184,0.180,0,0,0,0,0,0,0,0,0,0.000,0,0,2.166,0.010,1.920,0.440,-0.900,0.012,1.005,0.010,-0.002,0.010,-0.020,0.000,0.000,0.000,0.000,0,0,0,0,7,255,0,250,0,0,-89.573,0.465,-29.807
EX0521-092111,2,C22,prep,121,121,0,350224.091,0.687,-0.680,0.184,0.180,0,0,0,0,0,0,0,0,0,0.000,0,0,2.774,0.003,-2.480,-0.540,1.120,0.016,0.988,0.011,-0.002,0.002,-0.068,0.000,0.000,0.000,0.000,0,0,0,0,7,255,0,250,0,0,-89.561,0.470,-29.807
EX0521-092111,2,C22,prep,122,122,0,350229.092,0.687,-0.680,0.184,0.180,0,0,0,0,0,0,0,0,0,0.000,0,0,0.755,0.008,0.700,-0.040,-0.280,0.013,0.994,0.015,-0.008,0.002,-0.006,0.000,0.000,0.000,0.000,0,0,0,0,7,255,0,250,0,0,-89.559,0.470,-29.807
EX0521-092111,2,C22,prep,122,122,0,350234.092,0.687,-0.680,0.184,0.180,0,0,0,0,0,0,0,0,0,0.000,0,0,1.808,0.016,1.660,0.320,-0.640,0.015,0.994,0.009,0.016,0.002,-0.010,0.000,0.000,0.000,0.000,0,0,0,0,7,255,0,250,0,0,-89.568,0.466,-29.807
EX0521-092111,2,C22,prep,122,122,0,350239.091,0.687,-0.680,0.184,0.180,0,0,0,0,0,0,0,0,0,0.000,0,0,2.014,0.022,-1.880,-0.180,0.700,0.014,0.998,0.009,0.012,0.018,-0.006,0.000,0.000,0.000,0.000,0,0,0,0,7,255,0,250,0,0,-89.559,0.468,-29.807
EX0521-092111,2,C22,prep,122,122,0,350244.092,0.687,-0.680,0.184,0.180,0,0,0,0,0,0,0,0,0,0.000,0,0,0.287,0.022,0.200,-0.180,-0.100,0.016,0.993,0.015,0.012,0.018,-0.010,0.000,0.000,0.000,0.000,0,0,0,0,7,255,0,250,0,0,-89.553,0.469,-29.807
EX0521-092111,2,C22,prep,127,127,0,350249.092,0.687,-0.680,0.184,0.180,0,0,0,0,0,0,0,0,0,0.000,0,0,0.946,0.010,0.940,-0.040,-0.100,0.015,0.988,0.011,0.010,0.000,-0.014,0.000,0.000,0.000,0.000,0,0,0,0,7,255,0,250,0,0,-89.558,0.468,-29.807
EX0521-092111,2,C22,prep,127,127,0,350254.092,0.687,-0.680,0.184,0.180,0,0,0,0,0,0,0,0,0,0.000,0,0,0.756,0.010,0.640,-0.040,-0.400,0.012,1.009,0.006,0.010,0.000,-0.014,0.000,0.000,0.000,0.000,0,0,0,0,7,255,0,250,0,0,-89.562,0.467,-29.807
EX0521-092111,2,C22,prep,143,143,0,350259.091,0.687,-0.680,0.184,0.180,0,0,0,0,0,0,0,0,0,0.000,0,0,1.968,0.010,-1.880,0.020,0.580,0.017,0.981,0.015,0.010,0.000,-0.066,0.000,0.000,0.000,0.000,0,0,0,0,7,255,0,250,0,0,-89.551,0.466,-29.807
EX0521-092111,2,C22,prep,143,143,0,350264.091,0.687,-0.680,0.184,0.180,0,0,0,0,0,0,0,0,0,0.000,0,0,0.420,0.030,0.380,0.080,-0.160,0.015,0.999,0.015,0.010,-0.028,0.042,0.000,0.000,0.000,0.000,0,0,0,0,7,255,0,250,0,0,-89.545,0.466,-29.807
EX0521-092111,2,C22,prep,164,164,0,350269.092,0.687,-0.680,0.184,0.180,0,0,0,0,0,0,0,0,0,0.000,0,0,1.249,0.030,1.180,-0.300,-0.280,0.015,0.994,0.010,0.012,-0.028,-0.012,0.000,0.000,0.000,0.000,0,0,0,0,7,255,0,250,0,0,-89.551,0.465,-29.807
EX0521-092111,2,C22,prep,164,164,0,350274.092,0.687,-0.680,0.184,0.180,0,0,0,0,0,0,0,0,0,0.000,0,0,1.100,0.021,-0.900,-0.360,0.520,0.014,0.997,0.008,0.014,0.016,0.018,0.000,0.000,0.000,0.000,0,0,0,0,7,255,0,250,0,0,-89.548,0.464,-29.807
EX0521-092111,2,C22,prep,164,164,0,350279.091,0.687,-0.680,0.184,0.180,0,0,0,0,0,0,0,0,0,0.000,0,0,0.308,0.021,0.080,0.200,-0.220,0.015,0.996,0.013,0.014,0.016,0.008,0.000,0.000,0.000,0.000,0,0,0,0,7,255,0,250,0,0,-89.543,0.465,-29.807
EX0521-092111,2,C22,prep,164,164,0,350284.091,0.687,-0.680,0.184,0.180,0,0,0,0,0,0,0,0,0,0.000,0,0,0.360,0.008,-0.160,0.320,-0.040,0.015,0.991,0.012,0.006,-0.006,0.008,0.000,0.000,0.000,0.000,0,0,0,0,7,255,0,250,0,0,-89.544,0.465,-29.807
EX0521-092111,2,C22,prep,165,165,0,350289.092,0.687,-0.680,0.184,0.180,0,0,0,0,0,0,0,0,0,0.000,0,0,0.221,0.006,-0.100,-0.180,0.080,0.014,0.999,0.012,0.002,-0.006,0.008,0.000,0.000,0.000,0.000,0,0,0,0,7,255,0,250,0,0,-89.545,0.465,-29.807
EX0521-092111,2,C22,prep,165,165,0,350294.092,0.687,-0.680,0.184,0.180,0,0,0,0,0,0,0,0,0,0.000,0,0,0.412,0.008,0.200,-0.360,0.020,0.016,0.992,0.013,0.006,-0.006,-0.030,0.000,0.000,0.000,0.000,0,0,0,0,7,255,0,250,0,0,-89.545,0.466,-29.807
EX0521-092111,2,C22,prep,199,199,0,350299.091,0.687,-0.680,0.184,0.180,0,0,0,0,0,0,0,0,0,0.000,0,0,0.400,0.010,0.380,-0.120,-0.040,0.015,0.995,0.010,0.008,0.006,-0.002,0.000,0.000,0.000,0.000,0,0,0,0,7,255,0,250,0,0,-89.546,0.466,-29.807
EX0521-092111,2,C22,prep,199,199,0,350304.093,0.687,-0.680,0.184,0.180,0,0,0,0,0,0,0,0,0,0.000,0,0,0.151,0.017,-0.040,0.140,-0.040,0.015,0.997,0.010,0.012,0.012,-0.002,0.000,0.000,0.000,0.000,0,0,0,0,7,255,0,250,0,0,-89.546,0.467,-29.807
EX0521-092111,2,C22,prep,200,200,0,350309.092,0.687,-0.680,0.184,0.180,0,0,0,0,0,0,0,0,0,0.000,0,0,0.670,0.017,-0.640,0.140,0.140,0.016,0.989,0.013,0.012,0.012,-0.002,0.000,0.000,0.000,0.000,0,0,0,0,7,255,0,250,0,0,-89.539,0.467,-29.807
EX0521-092111,2,C22,prep,200,200,0,350314.092,0.687,-0.680,0.184,0.180,0,0,0,0,0,0,0,0,0,0.000,0,0,0.279,0.008,0.260,0.020,-0.100,0.015,0.997,0.013,0.006,-0.006,0.022,0.000,0.000,0.000,0.000,0,0,0,0,7,255,0,250,0,0,-89.540,0.468,-29.807
EX0521-092111,2,C22,prep,200,200,0,350319.091,0.687,-0.680,0.184,0.180,0,0,0,0,0,0,0,0,0,0.000,0,0,0.341,0.008,0.260,-0.220,0.020,0.015,0.994,0.011,0.006,-0.006,-0.010,0.000,0.000,0.000,0.000,0,0,0,0,7,255,0,250,0,0,-89.540,0.468,-29.807
EX0521-092111,2,C22,prep,200,200,0,350324.092,0.687,-0.680,0.184,0.180,0,0,0,0,0,0,0,0,0,0.000,0,0,0.422,0.014,-0.220,-0.300,0.200,0.015,0.995,0.010,0.010,0.010,-0.002,0.000,0.000,0.000,0.000,0,0,0,0,7,255,0,250,0,0,-89.541,0.468,-29.807
EX0521-092111,2,C22,prep,207,207,0,350329.092,0.687,-0.680,0.184,0.180,0,0,0,0,0,0,0,0,0,0.000,0,0,0.290,0.018,0.260,0.080,-0.100,0.015,0.994,0.010,0.012,0.014,-0.010,0.000,0.000,0.000,0.000,0,0,0,0,7,255,0,250,0,0,-89.541,0.469,-29.807
EX0521-092111,2,C22,prep,207,207,0,350334.092,0.687,-0.680,0.184,0.180,0,0,0,0,0,0,0,0,0,0.000,0,0,0.402,0.018,-0.340,0.200,0.080,0.014,0.993,0.011,0.012,0.014,-0.010,0.000,0.000,0.000,0.000,0,0,0,0,7,255,0,250,0,0,-89.542,0.469,-29.807
EX0521-092111,2,C22,prep,229,229,0,350339.091,0.687,-0.680,0.184,0.180,0,0,0,0,0,0,0,0,0,0.000,0,0,0.170,0.014,-0.160,-0.040,-0.040,0.014,0.995,0.012,0.000,0.014,-0.010,0.000,0.000,0.000,0.000,0,0,0,0,7,255,0,250,0,0,-89.543,0.469,-29.807
EX0521-092111,2,C22,prep,229,229,0,350344.092,0.687,-0.680,0.184,0.180,0,0,0,0,0,0,0,0,0,0.000,0,0,0.308,0.002,0.260,-0.160,-0.040,0.015,0.993,0.012,0.000,0.002,-0.016,0.000,0.000,0.000,0.000,0,0,0,0,7,255,0,250,0,0,-89.543,0.469,-29.807
EX0521-092111,2,C22,prep,229,229,0,350349.092,0.687,-0.680,0.184,0.180,0,0,0,0,0,0,0,0,0,0.000,0,0,0.341,0.006,0.260,-0.220,0.020,0.015,0.996,0.011,0.006,0.002,0.004,0.000,0.000,0.000,0.000,0,0,0,0,7,255,0,250,0,0,-89.544,0.470,-29.807
EX0521-092111,2,C22,prep,229,229,0,350354.092,0.687,-0.680,0.184,0.180,0,0,0,0,0,0,0,0,0,0.000,0,0,0.143,0.011,-0.100,-0.100,0.020,0.015,0.995,0.010,0.008,0.008,-0.002,0.000,0.000,0.000,0.000,0,0,0,0,7,255,0,250,0,0,-89.544,0.470,-29.807
EX0521-092111,2,C22,prep,239,239,0,350359.095,0.687,-0.680,0.184,0.180,0,0,0,0,0,0,0,0,0,0.000,0,0,0.214,0.011,-0.160,0.140,0.020,0.014,0.992,0.012,0.008,0.008,-0.002,0.000,0.000,0.000,0.000,0,0,0,0,7,255,0,250,0,0,-89.545,0.470,-29.807
EX0521-092111,2,C22,prep,239,239,0,350364.092,0.687,-0.680,0.184,0.180,0,0,0,0,0,0,0,0,0,0.000,0,0,0.120,0.004,0.080,0.080,-0.040,0.013,0.997,0.012,0.000,0.004,-0.002,0.000,0.000,0.000,0.000,0,0,0,0,7,255,0,250,0,0,-89.546,0.470,-29.807
EX0521-092111,2,C22,prep,266,266,0,350369.092,0.687,-0.680,0.184,0.180,0,0,0,0,0,0,0,0,0,0.000,0,0,0.110,0.002,-0.040,-0.100,0.020,0.014,0.995,0.012,0.000,0.002,0.004,0.000,0.000,0.000,0.000,0,0,0,0,7,255,0,250,0,0,-89.546,0.470,-29.807
EX0521-092111,2,C22,prep,266,266,0,350374.091,0.687,-0.680,0.184,0.180,0,0,0,0,0,0,0,0,0,0.000,0,0,0.213,0.004,0.080,-0.180,0.080,0.014,0.993,0.011,-0.002,0.004,0.004,0.000,0.000,0.000,0.000,0,0,0,0,7,255,0,250,0,0,-89.547,0.470,-29.807
EX0521-092111,2,C22,prep,267,267,0,350379.091,0.687,-0.680,0.184,0.180,0,0,0,0,0,0,0,0,0,0.000,0,0,0.338,0.008,0.320,-0.040,-0.100,0.014,0.994,0.011,0.000,0.008,-0.006,0.000,0.000,0.000,0.000,0,0,0,0,7,255,0,250,0,0,-89.547,0.471,-29.807
EX0521-092111,2,C22,prep,267,267,0,350384.092,0.687,-0.680,0.184,0.180,0,0,0,0,0,0,0,0,0,0.000,0,0,0.408,0.009,-0.400,0.020,0.080,0.015,0.995,0.011,0.004,0.008,-0.006,0.000,0.000,0.000,0.000,0,0,0,0,7,255,0,250,0,0,-89.548,0.471,-29.807
EX0521-092111,2,C22,prep,297,297,0,350389.092,0.687,-0.680,0.184,0.180,0,0,0,0,0,0,0,0,0,0.000,0,0,0.110,0.004,-0.100,0.020,-0.040,0.014,0.995,0.012,0.004,0.002,0.000,0.000,0.000,0.000,0.000,0,0,0,0,7,255,0,250,0,0,-89.549,0.471,-29.807
EX0521-092111,2,C22,prep,297,297,0,350394.091,0.687,-0.680,0.184,0.180,0,0,0,0,0,0,0,0,0,0.000,0,0,0.151,0.004,0.140,-0.040,-0.040,0.014,0.996,0.011,0.004,0.002,0.000,0.000,0.000,0.000,0.000,0,0,0,0,7,255,0,250,0,0,-89.549,0.471,-29.807
EX0521-092111,2,C22,prep,297,297,0,350399.092,0.687,-0.680,0.184,0.180,0,0,0,0,0,0,0,0,0,0.000,0,0,0.254,0.003,0.020,-0.240,0.080,0.015,0.996,0.012,0.002,0.002,0.008,0.000,0.000,0.000,0.000,0,0,0,0,7,255,0,250,0,0,-89.550,0.472,-29.807
EX0521-092111,2,C22,prep,297,297,0,350404.093,0.687,-0.680,0.184,0.180,0,0,0,0,0,0,0,0,0,0.000,0,0,0.198,0.008,0.080,-0.180,0.020,0.014,0.994,0.011,0.002,0.008,0.008,0.000,0.000,0.000,0.000,0,0,0,0,7,255,0,250,0,0,-89.551,0.472,-29.807
EX0521-092111,2,C22,prep,298,298,0,350409.092,0.687,-0.680,0.184,0.180,0,0,0,0,0,0,0,0,0,0.000,0,0,0.092,0.003,0.080,-0.040,0.020,0.014,0.995,0.012,-0.002,0.002,0.000,0.000,0.000,0.000,0.000,0,0,0,0,7,255,0,250,0,0,-89.551,0.472,-29.807
EX0521-092111,2,C22,prep,298,298,0,350414.091,0.687,-0.680,0.184,0.180,0,0,0,0,0,0,0,0,0,0.000,0,0,0.130,0.006,-0.100,0.080,0.020,0.014,0.995,0.011,-0.002,0.006,0.000,0.000,0.000,0.000,0.000,0,0,0,0,7,255,0,250,0,0,-89.552,0.472,-29.807
EX0521-092111,2,C22,prep,332,332,0,350419.091,0.687,-0.680,0.184,0.180,0,0,0,0,0,0,0,0,0,0.000,0,0,0.162,0.004,-0.160,0.020,0.020,0.014,0.995,0.012,-0.002,0.004,0.000,0.000,0.000,0.000,0.000,0,0,0,0,7,255,0,250,0,0,-89.552,0.472,-29.807
EX0521-092111,2,C22,prep,332,332,0,350424.092,0.687,-0.680,0.184,0.180,0,0,0,0,0,0,0,0,0,0.000,0,0,0.134,0.004,0.080,-0.100,-0.040,0.014,0.995,0.012,-0.002,0.004,0.000,0.000,0.000,0.000,0.000,0,0,0,0,7,255,0,250,0,0,-89.553,0.472,-29.807
EX0521-092111,2,C22,prep,332,332,0,350429.092,0.687,-0.680,0.184,0.180,0,0,0,0,0,0,0,0,0,0.000,0,0,0.214,0.002,0.140,-0.160,0.020,0.015,0.994,0.011,-0.002,0.000,0.000,0.000,0.000,0.000,0.000,0,0,0,0,7,255,0,250,0,0,-89.554,0.473,-29.807
EX0521-092111,2,C22,prep,332,332,0,350434.091,0.687,-0.680,0.184,0.180,0,0,0,0,0,0,0,0,0,0.000,0,0,0.134,0.002,-0.040,-0.100,0.080,0.014,0.993,0.012,-0.002,0.000,-0.010,0.000,0.000,0.000,0.000,0,0,0,0,7,255,0,250,0,0,-89.554,0.473,-29.807
EX0521-092111,2,C22,prep,332,332,0,350439.091,0.687,-0.680,0.184,0.180,0,0,0,0,0,0,0,0,0,0.000,0,0,0.151,0.008,-0.040,0.140,-0.040,0.015,0.995,0.011,0.008,0.000,-0.010,0.000,0.000,0.000,0.000,0,0,0,0,7,255,0,250,0,0,-89.555,0.473,-29.807
EX0521-092111,2,C22,prep,332,332,0,350444.092,0.687,-0.680,0.184,0.180,0,0,0,0,0,0,0,0,0,0.000,0,0,0.035,0.008,0.020,0.020,0.020,0.015,0.995,0.011,0.008,0.000,0.000,0.000,0.000,0.000,0.000,0,0,0,0,7,255,0,250,0,0,-89.555,0.474,-29.807
EX0521-092111,2,C22,prep,332,332,0,350449.092,0.687,-0.680,0.184,0.180,0,0,0,0,0,0,0,0,0,0.000,0,0,0.110,0.008,-0.040,-0.100,0.020,0.014,0.995,0.012,0.008,0.000,0.000,0.000,0.000,0.000,0.000,0,0,0,0,7,255,0,250,0,0,-89.556,0.474,-29.807
EX0521-092111,2,C22,prep,332,332,0,350454.091,0.687,-0.680,0.184,0.180,0,0,0,0,0,0,0,0,0,0.000,0,0,0.180,0.006,0.080,-0.160,0.020,0.014,0.995,0.012,-0.006,0.000,0.000,0.000,0.000,0.000,0.000,0,0,0,0,7,255,0,250,0,0,-89.557,0.474,-29.807
EX0521-092111,2,C22,prep,335,335,0,350459.091,0.687,-0.680,0.184,0.180,0,0,0,0,0,0,0,0,0,0.000,0,0,0.092,0.006,0.080,-0.040,0.020,0.015,0.994,0.011,-0.006,0.002,0.000,0.000,0.000,0.000,0.000,0,0,0,0,7,255,0,250,0,0,-89.557,0.474,-29.807
EX0521-092111,2,C22,prep,335,335,0,350464.092,0.687,-0.680,0.184,0.180,0,0,0,0,0,0,0,0,0,0.000,0,0,0.110,0.004,-0.100,-0.040,0.020,0.014,0.994,0.011,0.000,0.004,-0.010,0.000,0.000,0.000,0.000,0,0,0,0,7,255,0,250,0,0,-89.558,0.474,-29.807
EX0521-092111,2,C22,prep,361,361,0,350469.092,0.687,-0.680,0.184,0.180,0,0,0,0,0,0,0,0,0,0.000,0,0,0.104,0.004,0.020,0.020,-0.100,0.014,0.994,0.012,0.000,0.004,-0.010,0.000,0.000,0.000,0.000,0,0,0,0,7,255,0,250,0,0,-89.558,0.475,-29.807
EX0521-092111,2,C22,prep,361,361,0,350474.091,0.687,-0.680,0.184,0.180,0,0,0,0,0,0,0,0,0,0.000,0,0,0.049,0.002,0.020,0.020,-0.040,0.015,0.995,0.012,-0.002,0.000,-0.010,0.000,0.000,0.000,0.000,0,0,0,0,7,255,0,250,0,0,-89.559,0.475,-29.807
EX0521-092111,2,C22,prep,361,361,0,350479.091,0.687,-0.680,0.184,0.180,0,0,0,0,0,0,0,0,0,0.000,0,0,0.130,0.002,0.020,-0.100,0.080,0.014,0.995,0.011,-0.002,0.000,0.004,0.000,0.000,0.000,0.000,0,0,0,0,7,255,0,250,0,0,-89.560,0.475,-29.807
EX0521-092111,2,C22,prep,361,361,0,350484.092,0.687,-0.680,0.184,0.180,0,0,0,0,0,0,0,0,0,0.000,0,0,0.134,0.000,0.080,-0.100,-0.040,0.015,0.994,0.011,0.000,0.000,0.004,0.000,0.000,0.000,0.000,0,0,0,0,7,255,0,250,0,0,-89.560,0.475,-29.807
EX0521-092111,2,C22,prep,398,398,0,350489.092,0.687,-0.680,0.184,0.180,0,0,0,0,0,0,0,0,0,0.000,0,0,0.060,0.000,0.020,-0.040,-0.040,0.014,0.995,0.013,0.000,0.000,0.000,0.000,0.000,0.000,0.000,0,0,0,0,7,255,0,250,0,0,-89.556,0.476,-29.807
EX0521-092111,2,C22,prep,398,398,0,350494.091,0.687,-0.680,0.184,0.180,0,0,0,0,0,0,0,0,0,0.000,0,0,0.104,0.008,-0.100,0.020,0.020,0.016,0.995,0.010,0.008,0.000,0.000,0.000,0.000,0.000,0.000,0,0,0,0,7,255,0,250,0,0,-89.557,0.476,-29.807
EX0521-092111,2,C22,prep,398,398,0,350499.091,0.687,-0.680,0.184,0.180,0,0,0,0,0,0,0,0,0,0.000,0,0,0.035,0.011,0.020,0.020,0.020,0.015,0.994,0.014,-0.008,-0.008,0.000,0.000,0.000,0.000,0.000,0,0,0,0,7,255,0,250,0,0,-89.552,0.476,-29.807
EX0521-092111,2,C22,prep,398,398,0,350504.093,0.687,-0.680,0.184,0.180,0,0,0,0,0,0,0,0,0,0.000,0,0,0.177,0.008,0.140,-0.100,-0.040,0.014,0.995,0.012,-0.008,0.000,0.000,0.000,0.000,0.000,0.000,0,0,0,0,7,255,0,250,0,0,-89.553,0.477,-29.807
EX0521-092111,2,C22,prep,399,399,0,350509.092,0.687,-0.680,0.184,0.180,0,0,0,0,0,0,0,0,0,0.000,0,0,0.130,0.008,0.080,-0.100,0.020,0.014,0.994,0.012,-0.008,0.000,-0.004,0.000,0.000,0.000,0.000,0,0,0,0,7,255,0,250,0,0,-89.553,0.477,-29.807
EX0521-092111,2,C22,prep,399,399,0,350514.091,0.687,-0.680,0.184,0.180,0,0,0,0,0,0,0,0,0,0.000,0,0,0.060,0.003,-0.040,-0.040,0.020,0.014,0.995,0.011,-0.002,0.002,0.000,0.000,0.000,0.000,0.000,0,0,0,0,7,255,0,250,0,0,-89.554,0.477,-29.807
EX0521-092111,2,C22,prep,427,427,0,350519.092,0.687,-0.680,0.184,0.180,0,0,0,0,0,0,0,0,0,0.000,0,0,0.049,0.006,0.020,0.020,-0.040,0.014,0.993,0.011,-0.002,0.006,-0.010,0.000,0.000,0.000,0.000,0,0,0,0,7,255,0,250,0,0,-89.555,0.477,-29.807
EX0521-092111,2,C22,prep,427,427,0,350524.092,0.687,-0.680,0.184,0.180,0,0,0,0,0,0,0,0,0,0.000,0,0,0.049,0.007,0.020,0.020,-0.040,0.014,0.995,0.012,-0.004,0.006,0.000,0.000,0.000,0.000,0.000,0,0,0,0,7,255,0,250,0,0,-89.555,0.477,-29.807
EX0521-092111,2,C22,prep,427,427,0,350529.092,0.687,-0.680,0.184,0.180,0,0,0,0,0,0,0,0,0,0.000,0,0,0.060,0.006,0.020,-0.040,-0.040,0.015,0.995,0.011,-0.004,0.004,0.000,0.000,0.000,0.000,0.000,0,0,0,0,7,255,0,250,0,0,-89.556,0.477,-29.807
EX0521-092111,2,C22,prep,427,427,0,350534.091,0.687,-0.680,0.184,0.180,0,0,0,0,0,0,0,0,0,0.000,0,0,0.130,0.004,0.080,-0.100,0.020,0.014,0.994,0.011,0.000,0.004,0.000,0.000,0.000,0.000,0.000,0,0,0,0,7,255,0,250,0,0,-89.556,0.477,-29.807
EX0521-092111,2,C22,prep,427,427,0,350539.091,0.687,-0.680,0.184,0.180,0,0,0,0,0,0,0,0,0,0.000,0,0,0.049,0.002,0.020,-0.040,0.020,0.014,0.995,0.012,0.000,0.002,0.000,0.000,0.000,0.000,0.000,0,0,0,0,7,255,0,250,0,0,-89.557,0.477,-29.807
EX0521-092111,2,C22,prep,427,427,0,350544.092,0.687,-0.680,0.184,0.180,0,0,0,0,0,0,0,0,0,0.000,0,0,0.060,0.002,-0.040,-0.040,0.020,0.016,0.994,0.011,0.000,-0.002,-0.010,0.000,0.000,0.000,0.000,0,0,0,0,7,255,0,250,0,0,-89.558,0.478,-29.807
EX0521-092111,2,C22,prep,428,428,0,350549.092,0.687,-0.680,0.184,0.180,0,0,0,0,0,0,0,0,0,0.000,0,0,0.060,0.002,-0.040,0.020,-0.040,0.015,0.995,0.012,0.000,-0.002,0.000,0.000,0.000,0.000,0.000,0,0,0,0,7,255,0,250,0,0,-89.558,0.478,-29.807
EX0521-092111,2,C22,prep,428,428,0,350554.091,0.687,-0.680,0.184,0.180,0,0,0,0,0,0,0,0,0,0.000,0,0,0.049,0.004,0.020,-0.040,0.020,0.014,0.994,0.010,0.004,-0.002,-0.004,0.000,0.000,0.000,0.000,0,0,0,0,7,255,0,250,0,0,-89.559,0.478,-29.807
EX0521-092111,2,C22,prep,461,461,0,350559.095,0.687,-0.680,0.184,0.180,0,0,0,0,0,0,0,0,0,0.000,0,0,0.130,0.010,0.020,-0.100,0.080,0.014,0.994,0.011,0.000,0.010,-0.004,0.000,0.000,0.000,0.000,0,0,0,0,7,255,0,250,0,0,-89.559,0.478,-29.807
EX0521-092111,2,C22,prep,461,461,0,350564.092,0.687,-0.680,0.184,0.180,0,0,0,0,0,0,0,0,0,0.000,0,0,0.134,0.010,0.080,-0.100,-0.040,0.015,0.995,0.013,-0.002,0.010,-0.004,0.000,0.000,0.000,0.000,0,0,0,0,7,255,0,250,0,0,-89.555,0.479,-29.807
EX0521-092111,2,C22,prep,461,461,0,350569.092,0.687,-0.680,0.184,0.180,0,0,0,0,0,0,0,0,0,0.000,0,0,0.060,0.010,0.020,-0.040,-0.040,0.015,0.994,0.010,-0.002,0.010,-0.004,0.000,0.000,0.000,0.000,0,0,0,0,7,255,0,250,0,0,-89.556,0.479,-29.807
EX0521-092111,2,C22,prep,461,461,0,350574.091,0.687,-0.680,0.184,0.180,0,0,0,0,0,0,0,0,0,0.000,0,0,0.130,0.009,-0.100,0.020,0.080,0.015,0.993,0.011,0.008,0.004,-0.004,0.000,0.000,0.000,0.000,0,0,0,0,7,255,0,250,0,0,-89.557,0.479,-29.807
EX0521-092111,2,C22,prep,462,462,0,350579.092,0.687,-0.680,0.184,0.180,0,0,0,0,0,0,0,0,0,0.000,0,0,0.049,0.009,0.020,-0.040,0.020,0.015,0.994,0.012,0.008,0.004,-0.008,0.000,0.000,0.000,0.000,0,0,0,0,7,255,0,250,0,0,-89.557,0.480,-29.807
EX0521-092111,2,C22,prep,462,462,0,350584.092,0.687,-0.680,0.184,0.180,0,0,0,0,0,0,0,0,0,0.000,0,0,0.104,0.006,0.020,-0.100,0.020,0.014,0.995,0.013,-0.002,-0.006,-0.008,0.000,0.000,0.000,0.000,0,0,0,0,7,255,0,250,0,0,-89.553,0.480,-29.807
EX0521-092111,2,C22,prep,463,463,0,350589.092,0.687,-0.680,0.184,0.180,0,0,0,0,0,0,0,0,0,0.000,0,0,0.104,0.007,0.020,-0.100,0.020,0.014,0.995,0.012,-0.004,-0.006,0.000,0.000,0.000,0.000,0.000,0,0,0,0,7,255,0,250,0,0,-89.554,0.480,-29.807
EX0521-092111,2,C22,prep,463,463,0,350594.091,0.687,-0.680,0.184,0.180,0,0,0,0,0,0,0,0,0,0.000,0,0,0.104,0.004,0.020,-0.100,0.020,0.015,0.996,0.011,-0.004,0.002,0.000,0.000,0.000,0.000,0.000,0,0,0,0,7,255,0,250,0,0,-89.555,0.480,-29.807
EX0521-092111,2,C22,prep,497,497,0,350599.092,0.687,-0.680,0.184,0.180,0,0,0,0,0,0,0,0,0,0.000,0,0,0.060,0.009,-0.040,-0.040,0.020,0.014,0.996,0.011,-0.004,0.008,0.010,0.000,0.000,0.000,0.000,0,0,0,0,7,255,0,250,0,0,-89.555,0.480,-29.807
EX0521-092111,2,C22,prep,497,497,0,350604.093,0.687,-0.680,0.184,0.180,0,0,0,0,0,0,0,0,0,0.000,0,0,0.060,0.008,-0.040,-0.040,0.020,0.014,0.995,0.011,0.000,0.008,0.010,0.000,0.000,0.000,0.000,0,0,0,0,7,255,0,250,0,0,-89.556,0.480,-29.807
EX0521-092111,2,C22,prep,497,497,0,350609.092,0.687,-0.680,0.184,0.180,0,0,0,0,0,0,0,0,0,0.000,0,0,0.049,0.008,0.020,-0.040,0.020,0.014,0.994,0.010,0.000,0.008,0.006,0.000,0.000,0.000,0.000,0,0,0,0,7,255,0,250,0,0,-89.556,0.481,-29.807
EX0521-092111,2,C22,prep,497,497,0,350614.091,0.687,-0.680,0.184,0.180,0,0,0,0,0,0,0,0,0,0.000,0,0,0.130,0.006,0.080,-0.100,0.020,0.014,0.995,0.011,0.000,0.006,0.000,0.000,0.000,0.000,0.000,0,0,0,0,7,255,0,250,0,0,-89.557,0.481,-29.807
EX0521-092111,2,C22,prep,498,498,0,350619.092,0.687,-0.680,0.184,0.180,0,0,0,0,0,0,0,0,0,0.000,0,0,0.104,0.008,0.020,-0.100,0.020,0.014,0.995,0.011,0.002,0.008,0.000,0.000,0.000,0.000,0.000,0,0,0,0,7,255,0,250,0,0,-89.558,0.481,-29.807
EX0521-092111,2,C22,prep,498,498,0,350624.092,0.687,-0.680,0.184,0.180,0,0,0,0,0,0,0,0,0,0.000,0,0,0.049,0.006,0.020,-0.040,0.020,0.014,0.994,0.011,-0.002,0.006,0.000,0.000,0.000,0.000,0.000,0,0,0,0,7,255,0,250,0,0,-89.558,0.481,-29.807
EX0521-092111,2,C22,prep,511,511,0,350629.091,0.687,-0.680,0.184,0.180,0,0,0,0,0,0,0,0,0,0.000,0,0,0.049,0.004,0.020,0.020,-0.040,0.014,0.994,0.011,-0.002,0.004,-0.004,0.000,0.000,0.000,0.000,0,0,0,0,7,255,0,250,0,0,-89.559,0.481,-29.807
EX0521-092111,2,C22,prep,511,511,0,350634.091,0.687,-0.680,0.184,0.180,0,0,0,0,0,0,0,0,0,0.000,0,0,0.060,0.004,-0.040,0.020,-0.040,0.015,0.994,0.012,-0.002,0.004,-0.008,0.000,0.000,0.000,0.000,0,0,0,0,7,255,0,250,0,0,-89.559,0.481,-29.807
EX0521-092111,2,C22,prep,529,529,0,350639.092,0.687,-0.680,0.184,0.180,0,0,0,0,0,0,0,0,0,0.000,0,0,0.130,0.003,0.080,-0.100,0.020,0.013,0.994,0.012,-0.002,0.002,-0.004,0.000,0.000,0.000,0.000,0,0,0,0,7,255,0,250,0,0,-89.560,0.480,-29.807
EX0521-092111,2,C22,prep,529,529,0,350644.092,0.687,-0.680,0.184,0.180,0,0,0,0,0,0,0,0,0,0.000,0,0,0.104,0.002,0.020,-0.100,0.020,0.015,0.994,0.011,0.000,0.002,-0.004,0.000,0.000,0.000,0.000,0,0,0,0,7,255,0,250,0,0,-89.561,0.480,-29.807
EX0521-092111,2,C22,prep,530,530,0,350649.091,0.687,-0.680,0.184,0.180,0,0,0,0,0,0,0,0,0,0.000,0,0,0.049,0.006,0.020,-0.040,0.020,0.014,0.995,0.011,0.002,0.006,-0.004,0.000,0.000,0.000,0.000,0,0,0,0,7,255,0,250,0,0,-89.561,0.480,-29.807
EX0521-092111,2,C22,prep,530,530,0,350654.091,0.687,-0.680,0.184,0.180,0,0,0,0,0,0,0,0,0,0.000,0,0,0.069,0.006,-0.040,-0.040,-0.040,0.015,0.994,0.012,0.002,0.006,-0.004,0.000,0.000,0.000,0.000,0,0,0,0,7,255,0,250,0,0,-89.562,0.480,-29.807
EX0521-092111,2,C22,prep,543,543,0,350659.092,0.687,-0.680,0.184,0.180,0,0,0,0,0,0,0,0,0,0.000,0,0,0.049,0.008,0.020,-0.040,0.020,0.015,0.995,0.012,0.002,-0.008,0.000,0.000,0.000,0.000,0.000,0,0,0,0,7,255,0,250,0,0,-89.562,0.481,-29.807
EX0521-092111,2,C22,prep,543,543,0,350664.092,0.687,-0.680,0.184,0.180,0,0,0,0,0,0,0,0,0,0.000,0,0,0.049,0.008,0.020,-0.040,0.020,0.016,0.995,0.011,0.002,-0.008,0.000,0.000,0.000,0.000,0.000,0,0,0,0,7,255,0,250,0,0,-89.563,0.481,-29.807
EX0521-092111,2,C22,prep,565,565,0,350669.091,0.687,-0.680,0.184,0.180,0,0,0,0,0,0,0,0,0,0.000,0,0,0.123,0.007,0.020,-0.120,0.020,0.015,0.996,0.012,0.004,-0.006,0.006,0.000,0.000,0.000,0.000,0,0,0,0,7,255,0,250,0,0,-89.564,0.482,-29.807
EX0521-092111,2,C22,prep,565,565,0,350674.091,0.687,-0.680,0.184,0.180,0,0,0,0,0,0,0,0,0,0.000,0,0,0.049,0.006,0.020,-0.040,0.020,0.015,0.995,0.011,0.004,-0.004,0.006,0.000,0.000,0.000,0.000,0,0,0,0,7,255,0,250,0,0,-89.564,0.482,-29.807
EX0521-092111,2,C22,prep,566,566,0,350679.092,0.687,-0.680,0.184,0.180,0,0,0,0,0,0,0,0,0,0.000,0,0,0.092,0.004,0.080,0.020,-0.040,0.014,0.994,0.012,0.004,0.002,0.000,0.000,0.000,0.000,0.000,0,0,0,0,7,255,0,250,0,0,-89.565,0.482,-29.807
EX0521-092111,2,C22,prep,566,566,0,350684.092,0.687,-0.680,0.184,0.180,0,0,0,0,0,0,0,0,0,0.000,0,0,0.049,0.004,0.020,-0.040,0.020,0.014,0.994,0.011,-0.002,0.004,-0.004,0.000,0.000,0.000,0.000,0,0,0,0,7,255,0,250,0,0,-89.566,0.482,-29.807
EX0521-092111,2,C22,prep,595,595,0,350689.091,0.687,-0.680,0.184,0.180,0,0,0,0,0,0,0,0,0,0.000,0,0,0.049,0.006,0.020,-0.040,0.020,0.014,0.995,0.012,-0.006,0.002,-0.004,0.000,0.000,0.000,0.000,0,0,0,0,7,255,0,250,0,0,-89.566,0.482,-29.807
EX0521-092111,2,C22,prep,595,595,0,350694.091,0.687,-0.680,0.184,0.180,0,0,0,0,0,0,0,0,0,0.000,0,0,0.146,0.007,0.080,-0.120,0.020,0.014,0.994,0.011,-0.006,0.004,-0.004,0.000,0.000,0.000,0.000,0,0,0,0,7,255,0,250,0,0,-89.567,0.482,-29.807
EX0521-092111,2,C22,prep,596,596,0,350699.092,0.687,-0.680,0.184,0.180,0,0,0,0,0,0,0,0,0,0.000,0,0,0.146,0.008,0.080,-0.120,0.020,0.014,0.995,0.011,-0.006,0.006,0.000,0.000,0.000,0.000,0.000,0,0,0,0,7,255,0,250,0,0,-89.567,0.482,-29.807
EX0521-092111,2,C22,prep,596,596,0,350704.093,0.687,-0.680,0.184,0.180,0,0,0,0,0,0,0,0,0,0.000,0,0,0.049,0.006,0.020,-0.040,0.020,0.015,0.994,0.012,-0.002,0.006,-0.004,0.000,0.000,0.000,0.000,0,0,0,0,7,255,0,250,0,0,-89.568,0.483,-29.807
EX0521-092111,2,C22,prep,596,596,0,350709.091,0.687,-0.680,0.184,0.180,0,0,0,0,0,0,0,0,0,0.000,0,0,0.069,0.000,-0.040,-0.040,-0.040,0.015,0.994,0.011,0.000,0.000,-0.004,0.000,0.000,0.000,0.000,0,0,0,0,7,255,0,250,0,0,-89.569,0.483,-29.807
EX0521-092111,2,C22,prep,596,596,0,350714.091,0.687,-0.680,0.184,0.180,0,0,0,0,0,0,0,0,0,0.000,0,0,0.069,0.004,-0.040,-0.040,-0.040,0.015,0.994,0.012,0.000,-0.004,-0.008,0.000,0.000,0.000,0.000,0,0,0,0,7,255,0,250,0,0,-89.569,0.483,-29.807
EX0521-092111,2,C22,prep,607,607,0,350719.092,0.687,-0.680,0.184,0.180,0,0,0,0,0,0,0,0,0,0.000,0,0,0.049,0.000,0.020,-0.040,0.020,0.014,0.994,0.012,0.000,0.000,-0.008,0.000,0.000,0.000,0.000,0,0,0,0,7,255,0,250,0,0,-89.570,0.483,-29.807
EX0521-092111,2,C22,prep,607,607,0,350724.092,0.687,-0.680,0.184,0.180,0,0,0,0,0,0,0,0,0,0.000,0,0,0.104,0.000,0.020,-0.100,0.020,0.015,0.995,0.011,0.000,0.000,-0.004,0.000,0.000,0.000,0.000,0,0,0,0,7,255,0,250,0,0,-89.570,0.484,-29.807
EX0521-092111,2,C22,prep,607,607,0,350729.091,0.687,-0.680,0.184,0.180,0,0,0,0,0,0,0,0,0,0.000,0,0,0.049,0.000,0.020,-0.040,0.020,0.015,0.996,0.012,0.000,0.000,0.000,0.000,0.000,0.000,0.000,0,0,0,0,7,255,0,250,0,0,-89.571,0.484,-29.807
EX0521-092111,2,C22,prep,607,607,0,350734.091,0.687,-0.680,0.184,0.180,0,0,0,0,0,0,0,0,0,0.000,0,0,0.110,0.004,0.020,-0.100,-0.040,0.015,0.994,0.012,0.000,-0.004,0.000,0.000,0.000,0.000,0.000,0,0,0,0,7,255,0,250,0,0,-89.572,0.484,-29.807
EX0521-092111,2,C22,prep,627,627,0,350739.092,0.687,-0.680,0.184,0.180,0,0,0,0,0,0,0,0,0,0.000,0,0,0.060,0.004,0.020,-0.040,-0.040,0.014,0.994,0.012,0.000,-0.004,-0.004,0.000,0.000,0.000,0.000,0,0,0,0,7,255,0,250,0,0,-89.572,0.484,-29.807
EX0521-092111,2,C22,prep,627,627,0,350744.092,0.687,-0.680,0.184,0.180,0,0,0,0,0,0,0,0,0,0.000,0,0,0.060,0.004,0.020,-0.040,-0.040,0.014,0.995,0.010,0.000,-0.004,-0.004,0.000,0.000,0.000,0.000,0,0,0,0,7,255,0,250,0,0,-89.573,0.484,-29.807
EX0521-092111,2,C22,prep,627,627,0,350749.091,0.687,-0.680,0.184,0.180,0,0,0,0,0,0,0,0,0,0.000,0,0,0.104,0.003,0.020,-0.100,0.020,0.015,0.995,0.011,0.002,-0.002,0.000,0.000,0.000,0.000,0.000,0,0,0,0,7,255,0,250,0,0,-89.573,0.485,-29.807
EX0521-092111,2,C22,prep,627,627,0,350754.091,0.687,-0.680,0.184,0.180,0,0,0,0,0,0,0,0,0,0.000,0,0,0.049,0.003,0.020,-0.040,0.020,0.015,0.995,0.012,0.002,-0.002,0.000,0.000,0.000,0.000,0.000,0,0,0,0,7,255,0,250,0,0,-89.574,0.485,-29.807
EX0521-092111,2,C22,prep,639,639,0,350759.095,0.687,-0.680,0.184,0.180,0,0,0,0,0,0,0,0,0,0.000,0,0,0.049,0.003,0.020,-0.040,0.020,0.012,0.993,0.012,-0.002,-0.002,0.000,0.000,0.000,0.000,0.000,0,0,0,0,7,255,0,250,0,0,-89.575,0.484,-29.807
EX0521-092111,2,C22,prep,639,639,0,350764.092,0.687,-0.680,0.184,0.180,0,0,0,0,0,0,0,0,0,0.000,0,0,0.060,0.003,-0.040,-0.040,0.020,0.014,0.994,0.011,-0.002,0.002,-0.008,0.000,0.000,0.000,0.000,0,0,0,0,7,255,0,250,0,0,-89.575,0.484,-29.807
EX0521-092111,2,C22,prep,663,663,0,350769.091,0.687,-0.680,0.184,0.180,0,0,0,0,0,0,0,0,0,0.000,0,0,0.049,0.003,0.020,-0.040,0.020,0.014,0.995,0.011,-0.002,0.002,-0.008,0.000,0.000,0.000,0.000,0,0,0,0,7,255,0,250,0,0,-89.576,0.484,-29.807
EX0521-092111,2,C22,prep,663,663,0,350774.092,0.687,-0.680,0.184,0.180,0,0,0,0,0,0,0,0,0,0.000,0,0,0.123,0.003,0.020,-0.120,0.020,0.013,0.995,0.011,-0.002,0.002,0.006,0.000,0.000,0.000,0.000,0,0,0,0,7,255,0,250,0,0,-89.576,0.482,-29.807
EX0521-092111,2,C22,prep,663,663,0,350779.092,0.687,-0.680,0.184,0.180,0,0,0,0,0,0,0,0,0,0.000,0,0,0.123,0.006,0.020,-0.120,0.020,0.014,0.994,0.011,-0.002,0.006,0.006,0.000,0.000,0.000,0.000,0,0,0,0,7,255,0,250,0,0,-89.577,0.482,-29.807
EX0521-092111,2,C22,prep,663,663,0,350784.092,0.687,-0.680,0.184,0.180,0,0,0,0,0,0,0,0,0,0.000,0,0,0.069,0.006,-0.040,-0.040,-0.040,0.015,0.995,0.012,0.000,0.006,0.000,0.000,0.000,0.000,0.000,0,0,0,0,7,255,0,250,0,0,-89.578,0.483,-29.807
EX0521-092111,2,C22,prep,694,694,0,350789.091,0.687,-0.680,0.184,0.180,0,0,0,0,0,0,0,0,0,0.000,0,0,0.098,0.006,0.080,-0.040,-0.040,0.015,0.994,0.012,0.000,-0.006,-0.004,0.000,0.000,0.000,0.000,0,0,0,0,7,255,0,250,0,0,-89.578,0.483,-29.807
EX0521-092111,2,C22,prep,694,694,0,350794.092,0.687,-0.680,0.184,0.180,0,0,0,0,0,0,0,0,0,0.000,0,0,0.035,0.006,0.020,0.020,0.020,0.013,0.995,0.011,0.000,-0.006,0.000,0.000,0.000,0.000,0.000,0,0,0,0,7,255,0,250,0,0,-89.579,0.481,-29.807
EX0521-092111,2,C22,prep,695,695,0,350799.092,0.687,-0.680,0.184,0.180,0,0,0,0,0,0,0,0,0,0.000,0,0,0.060,0.006,0.020,-0.040,-0.040,0.014,0.994,0.011,0.000,0.006,-0.008,0.000,0.000,0.000,0.000,0,0,0,0,7,255,0,250,0,0,-89.580,0.482,-29.807
EX0521-092111,2,C22,prep,695,695,0,350804.093,0.687,-0.680,0.184,0.180,0,0,0,0,0,0,0,0,0,0.000,0,0,0.049,0.010,0.020,-0.040,0.020,0.014,0.995,0.012,-0.008,0.006,0.000,0.000,0.000,0.000,0.000,0,0,0,0,7,255,0,250,0,0,-89.580,0.482,-29.807
EX0521-092111,2,C22,prep,732,732,0,350809.091,0.687,-0.680,0.184,0.180,0,0,0,0,0,0,0,0,0,0.000,0,0,0.049,0.008,0.020,-0.040,0.020,0.013,0.994,0.012,-0.008,-0.002,-0.004,0.000,0.000,0.000,0.000,0,0,0,0,7,255,0,250,0,0,-89.581,0.480,-29.807
EX0521-092111,2,C22,prep,732,732,0,350814.092,0.687,-0.680,0.184,0.180,0,0,0,0,0,0,0,0,0,0.000,0,0,0.060,0.009,0.020,-0.040,-0.040,0.014,0.994,0.012,-0.008,-0.004,-0.004,0.000,0.000,0.000,0.000,0,0,0,0,7,255,0,250,0,0,-89.581,0.480,-29.807
EX0521-092111,2,C22,prep,732,732,0,350819.092,0.687,-0.680,0.184,0.180,0,0,0,0,0,0,0,0,0,0.000,0,0,0.049,0.006,0.020,-0.040,0.020,0.015,0.995,0.012,-0.004,-0.004,-0.004,0.000,0.000,0.000,0.000,0,0,0,0,7,255,0,250,0,0,-89.582,0.481,-29.807
EX0521-092111,2,C22,prep,732,732,0,350824.091,0.687,-0.680,0.184,0.180,0,0,0,0,0,0,0,0,0,0.000,0,0,0.060,0.006,0.020,-0.040,-0.040,0.014,0.994,0.012,-0.004,-0.004,-0.004,0.000,0.000,0.000,0.000,0,0,0,0,7,255,0,250,0,0,-89.583,0.481,-29.807
EX0521-092111,2,C22,prep,732,732,0,350829.091,0.687,-0.680,0.184,0.180,0,0,0,0,0,0,0,0,0,0.000,0,0,0.098,0.008,0.080,-0.040,-0.040,0.015,0.994,0.012,-0.002,-0.008,-0.004,0.000,0.000,0.000,0.000,0,0,0,0,7,255,0,250,0,0,-89.583,0.481,-29.807
EX0521-092111,2,C22,prep,732,732,0,350834.092,0.687,-0.680,0.184,0.180,0,0,0,0,0,0,0,0,0,0.000,0,0,0.110,0.009,0.020,-0.100,-0.040,0.015,0.995,0.012,0.004,-0.008,-0.004,0.000,0.000,0.000,0.000,0,0,0,0,7,255,0,250,0,0,-89.584,0.482,-29.807
EX0521-092111,2,C22,prep,732,732,0,350839.092,0.687,-0.680,0.184,0.180,0,0,0,0,0,0,0,0,0,0.000,0,0,0.049,0.009,0.020,-0.040,0.020,0.014,0.994,0.012,0.004,-0.008,-0.004,0.000,0.000,0.000,0.000,0,0,0,0,7,255,0,250,0,0,-89.584,0.482,-29.807
EX0521-092111,2,C22,prep,732,732,0,350844.092,0.687,-0.680,0.184,0.180,0,0,0,0,0,0,0,0,0,0.000,0,0,0.049,0.008,-0.040,0.020,0.020,0.015,0.995,0.013,-0.002,-0.008,0.002,0.000,0.000,0.000,0.000,0,0,0,0,7,255,0,250,0,0,-89.580,0.482,-29.807
EX0521-092111,2,C22,prep,735,735,0,350849.091,0.687,-0.680,0.184,0.180,0,0,0,0,0,0,0,0,0,0.000,0,0,0.060,0.008,0.020,-0.040,-0.040,0.015,0.995,0.012,-0.002,-0.008,0.006,0.000,0.000,0.000,0.000,0,0,0,0,7,255,0,250,0,0,-89.581,0.483,-29.807
EX0521-092111,2,C22,prep,735,735,0,350854.092,0.687,-0.680,0.184,0.180,0,0,0,0,0,0,0,0,0,0.000,0,0,0.104,0.008,0.020,-0.100,0.020,0.014,0.994,0.012,-0.002,-0.008,0.006,0.000,0.000,0.000,0.000,0,0,0,0,7,255,0,250,0,0,-89.581,0.483,-29.807
EX0521-092111,2,C22,prep,735,735,0,350859.092,0.687,-0.680,0.184,0.180,0,0,0,0,0,0,0,0,0,0.000,0,0,0.049,0.006,0.020,-0.040,0.020,0.014,0.994,0.011,-0.006,0.000,-0.004,0.000,0.000,0.000,0.000,0,0,0,0,7,255,0,250,0,0,-89.582,0.483,-29.807
EX0521-092111,2,C22,prep,735,735,0,350864.091,0.687,-0.680,0.184,0.180,0,0,0,0,0,0,0,0,0,0.000,0,0,0.049,0.006,-0.040,0.020,0.020,0.015,0.994,0.012,-0.006,0.000,-0.004,0.000,0.000,0.000,0.000,0,0,0,0,7,255,0,250,0,0,-89.583,0.483,-29.807
EX0521-092111,2,C22,prep,756,756,0,350869.091,0.687,-0.680,0.184,0.180,0,0,0,0,0,0,0,0,0,0.000,0,0,0.049,0.004,0.020,-0.040,0.020,0.015,0.995,0.011,0.000,-0.004,-0.004,0.000,0.000,0.000,0.000,0,0,0,0,7,255,0,250,0,0,-89.583,0.483,-29.807
EX0521-092111,2,C22,prep,756,756,0,350874.092,0.687,-0.680,0.184,0.180,0,0,0,0,0,0,0,0,0,0.000,0,0,0.060,0.008,-0.040,-0.040,0.020,0.016,0.995,0.011,0.006,-0.006,0.002,0.000,0.000,0.000,0.000,0,0,0,0,7,255,0,250,0,0,-89.584,0.484,-29.807
EX0521-092111,2,C22,prep,756,756,0,350879.092,0.687,-0.680,0.184,0.180,0,0,0,0,0,0,0,0,0,0.000,0,0,0.049,0.007,0.020,-0.040,0.020,0.015,0.994,0.011,0.006,-0.004,0.002,0.000,0.000,0.000,0.000,0,0,0,0,7,255,0,250,0,0,-89.584,0.484,-29.807
EX0521-092111,2,C22,prep,756,756,0,350884.091,0.687,-0.680,0.184,0.180,0,0,0,0,0,0,0,0,0,0.000,0,0,0.110,0.007,0.020,-0.100,-0.040,0.014,0.996,0.012,0.006,-0.004,0.002,0.000,0.000,0.000,0.000,0,0,0,0,7,255,0,250,0,0,-89.585,0.484,-29.807
EX0521-092111,2,C22,prep,770,770,0,350889.091,0.687,-0.680,0.184,0.180,0,0,0,0,0,0,0,0,0,0.000,0,0,0.049,0.007,0.020,-0.040,0.020,0.014,0.993,0.012,-0.006,-0.004,-0.008,0.000,0.000,0.000,0.000,0,0,0,0,7,255,0,250,0,0,-89.581,0.485,-29.807
EX0521-092111,2,C22,prep,770,770,0,350894.092,0.687,-0.680,0.184,0.180,0,0,0,0,0,0,0,0,0,0.000,0,0,0.060,0.008,0.020,-0.040,-0.040,0.013,0.994,0.011,-0.008,-0.002,-0.004,0.000,0.000,0.000,0.000,0,0,0,0,7,255,0,250,0,0,-89.582,0.483,-29.807
EX0521-092111,2,C22,prep,796,796,0,350899.092,0.687,-0.680,0.184,0.180,0,0,0,0,0,0,0,0,0,0.000,0,0,0.049,0.009,0.020,0.020,-0.040,0.014,0.995,0.011,-0.008,0.004,-0.004,0.000,0.000,0.000,0.000,0,0,0,0,7,255,0,250,0,0,-89.582,0.483,-29.807
EX0521-092111,2,C22,prep,796,796,0,350904.093,0.687,-0.680,0.184,0.180,0,0,0,0,0,0,0,0,0,0.000,0,0,0.049,0.007,0.020,-0.040,0.020,0.014,0.995,0.011,-0.006,0.004,0.006,0.000,0.000,0.000,0.000,0,0,0,0,7,255,0,250,0,0,-89.583,0.483,-29.807
EX0521-092111,2,C22,prep,796,796,0,350909.091,0.687,-0.680,0.184,0.180,0,0,0,0,0,0,0,0,0,0.000,0,0,0.049,0.007,0.020,-0.040,-0.020,0.014,0.995,0.011,-0.006,0.004,0.006,0.000,0.000,0.000,0.000,0,0,0,0,7,255,0,250,0,0,-89.583,0.483,-29.807
EX0521-092111,2,C22,prep,796,796,0,350914.092,0.687,-0.680,0.184,0.180,0,0,0,0,0,0,0,0,0,0.000,0,0,0.115,0.007,-0.040,-0.100,0.040,0.015,0.993,0.011,-0.006,0.004,0.006,0.000,0.000,0.000,0.000,0,0,0,0,7,255,0,250,0,0,-89.584,0.483,-29.807
EX0521-092111,2,C22,prep,797,797,0,350919.092,0.687,-0.680,0.184,0.180,0,0,0,0,0,0,0,0,0,0.000,0,0,0.049,0.003,0.020,-0.040,-0.020,0.014,0.995,0.011,-0.002,0.002,0.002,0.000,0.000,0.000,0.000,0,0,0,0,7,255,0,250,0,0,-89.585,0.484,-29.807
EX0521-092111,2,C22,prep,797,797,0,350924.091,0.687,-0.680,0.184,0.180,0,0,0,0,0,0,0,0,0,0.000,0,0,0.098,0.008,0.080,-0.040,0.040,0.016,0.994,0.011,0.008,0.000,-0.004,0.000,0.000,0.000,0.000,0,0,0,0,7,255,0,250,0,0,-89.585,0.484,-29.807
EX0521-092111,2,C22,prep,831,831,0,350929.092,0.687,-0.680,0.184,0.180,0,0,0,0,0,0,0,0,0,0.000,0,0,0.060,0.003,0.020,-0.040,0.040,0.015,0.995,0.011,0.002,-0.002,0.002,0.000,0.000,0.000,0.000,0,0,0,0,7,255,0,250,0,0,-89.586,0.484,-29.807
EX0521-092111,2,C22,prep,831,831,0,350934.092,0.687,-0.680,0.184,0.180,0,0,0,0,0,0,0,0,0,0.000,0,0,0.049,0.003,0.020,-0.040,-0.020,0.014,0.995,0.011,0.002,-0.002,0.002,0.000,0.000,0.000,0.000,0,0,0,0,7,255,0,250,0,0,-89.587,0.485,-29.807
EX0521-092111,2,C22,prep,831,831,0,350939.092,0.687,-0.680,0.184,0.180,0,0,0,0,0,0,0,0,0,0.000,0,0,0.098,0.003,0.080,-0.040,0.040,0.015,0.995,0.011,0.002,-0.002,0.006,0.000,0.000,0.000,0.000,0,0,0,0,7,255,0,250,0,0,-89.587,0.485,-29.807
EX0521-092111,2,C22,prep,831,831,0,350944.092,0.687,-0.680,0.184,0.180,0,0,0,0,0,0,0,0,0,0.000,0,0,0.049,0.002,0.020,-0.040,-0.020,0.015,0.994,0.011,0.000,-0.002,0.006,0.000,0.000,0.000,0.000,0,0,0,0,7,255,0,250,0,0,-89.588,0.485,-29.807
EX0521-092111,2,C22,prep,833,833,0,350949.092,0.687,-0.680,0.184,0.180,0,0,0,0,0,0,0,0,0,0.000,0,0,0.060,0.004,0.020,-0.040,0.040,0.015,0.995,0.012,0.002,-0.004,0.002,0.000,0.000,0.000,0.000,0,0,0,0,7,255,0,250,0,0,-89.588,0.486,-29.807
EX0521-092111,2,C22,prep,833,833,0,350954.092,0.687,-0.680,0.184,0.180,0,0,0,0,0,0,0,0,0,0.000,0,0,0.060,0.008,0.020,-0.040,0.040,0.015,0.993,0.012,0.000,-0.008,-0.008,0.000,0.000,0.000,0.000,0,0,0,0,7,255,0,250,0,0,-89.584,0.486,-29.807
EX0521-092111,2,C22,prep,861,861,0,350959.095,0.687,-0.680,0.184,0.180,0,0,0,0,0,0,0,0,0,0.000,0,0,0.049,0.009,0.020,-0.040,0.020,0.014,0.994,0.012,-0.004,-0.008,-0.004,0.000,0.000,0.000,0.000,0,0,0,0,7,255,0,250,0,0,-89.580,0.486,-29.807
EX0521-092111,2,C22,prep,861,861,0,350964.091,0.687,-0.680,0.184,0.180,0,0,0,0,0,0,0,0,0,0.000,0,0,0.123,0.008,0.020,-0.120,0.020,0.014,0.995,0.011,-0.006,-0.006,-0.004,0.000,0.000,0.000,0.000,0,0,0,0,7,255,0,250,0,0,-89.581,0.486,-29.807
EX0521-092111,2,C22,prep,861,861,0,350969.092,0.687,-0.680,0.184,0.180,0,0,0,0,0,0,0,0,0,0.000,0,0,0.049,0.008,0.020,-0.040,0.020,0.014,0.994,0.012,-0.008,0.000,-0.004,0.000,0.000,0.000,0.000,0,0,0,0,7,255,0,250,0,0,-89.582,0.486,-29.807
EX0521-092111,2,C22,prep,861,861,0,350974.092,0.687,-0.680,0.184,0.180,0,0,0,0,0,0,0,0,0,0.000,0,0,0.049,0.007,0.020,-0.040,0.020,0.014,0.994,0.011,-0.006,0.004,-0.004,0.000,0.000,0.000,0.000,0,0,0,0,7,255,0,250,0,0,-89.582,0.486,-29.807
EX0521-092111,2,C22,prep,862,862,0,350979.091,0.687,-0.680,0.184,0.180,0,0,0,0,0,0,0,0,0,0.000,0,0,0.060,0.004,0.020,-0.040,-0.040,0.015,0.996,0.012,-0.004,0.000,-0.004,0.000,0.000,0.000,0.000,0,0,0,0,7,255,0,250,0,0,-89.583,0.486,-29.807
EX0521-092111,2,C22,prep,862,862,0,350984.091,0.687,-0.680,0.184,0.180,0,0,0,0,0,0,0,0,0,0.000,0,0,0.049,0.006,0.020,-0.040,0.020,0.015,0.995,0.012,-0.004,-0.004,0.002,0.000,0.000,0.000,0.000,0,0,0,0,7,255,0,250,0,0,-89.584,0.486,-29.807
EX0521-092111,2,C22,prep,896,896,0,350989.092,0.687,-0.680,0.184,0.180,0,0,0,0,0,0,0,0,0,0.000,0,0,0.123,0.004,0.020,-0.120,0.020,0.015,0.994,0.011,0.000,-0.004,0.002,0.000,0.000,0.000,0.000,0,0,0,0,7,255,0,250,0,0,-89.584,0.487,-29.807
EX0521-092111,2,C22,prep,896,896,0,350994.092,0.687,-0.680,0.184,0.180,0,0,0,0,0,0,0,0,0,0.000,0,0,0.069,0.000,-0.040,-0.040,-0.040,0.014,0.993,0.011,0.000,0.000,-0.004,0.000,0.000,0.000,0.000,0,0,0,0,7,255,0,250,0,0,-89.585,0.487,-29.807
EX0521-092111,2,C22,prep,896,896,0,350999.091,0.687,-0.680,0.184,0.180,0,0,0,0,0,0,0,0,0,0.000,0,0,0.069,0.002,-0.040,-0.040,-0.040,0.015,0.995,0.011,0.002,0.000,-0.004,0.000,0.000,0.000,0.000,0,0,0,0,7,255,0,250,0,0,-89.585,0.487,-29.807
EX0521-092111,2,C22,prep,896,896,0,351004.093,0.687,-0.680,0.184,0.180,0,0,0,0,0,0,0,0,0,0.000,0,0,0.069,0.006,-0.040,-0.040,-0.040,0.016,0.995,0.010,0.006,0.000,0.002,0.000,0.000,0.000,0.000,0,0,0,0,7,255,0,250,0,0,-89.586,0.488,-29.807
EX0521-092111,2,C22,prep,896,896,0,351009.092,0.687,-0.680,0.184,0.180,0,0,0,0,0,0,0,0,0,0.000,0,0,0.069,0.006,-0.040,-0.040,-0.040,0.015,0.995,0.011,0.006,0.000,0.002,0.000,0.000,0.000,0.000,0,0,0,0,7,255,0,250,0,0,-89.587,0.488,-29.807
EX0521-092111,2,C22,prep,896,896,0,351014.092,0.687,-0.680,0.184,0.180,0,0,0,0,0,0,0,0,0,0.000,0,0,0.060,0.008,0.020,-0.040,-0.040,0.015,0.995,0.011,0.008,0.000,0.006,0.000,0.000,0.000,0.000,0,0,0,0,7,255,0,250,0,0,-89.587,0.488,-29.807
EX0521-092111,2,C22,prep,911,911,0,351019.091,0.687,-0.680,0.184,0.180,0,0,0,0,0,0,0,0,0,0.000,0,0,0.060,0.006,0.020,-0.040,-0.040,0.015,0.995,0.011,0.006,0.000,0.006,0.000,0.000,0.000,0.000,0,0,0,0,7,255,0,250,0,0,-89.588,0.489,-29.807
EX0521-092111,2,C22,prep,911,911,0,351024.091,0.687,-0.680,0.184,0.180,0,0,0,0,0,0,0,0,0,0.000,0,0,0.035,0.006,0.020,0.020,0.020,0.015,0.996,0.012,0.006,0.000,0.006,0.000,0.000,0.000,0.000,0,0,0,0,7,255,0,250,0,0,-89.588,0.489,-29.807
EX0521-092111,2,C22,prep,911,911,0,351029.092,0.687,-0.680,0.184,0.180,0,0,0,0,0,0,0,0,0,0.000,0,0,0.049,0.008,0.020,-0.040,0.020,0.016,0.994,0.012,0.006,-0.006,0.006,0.000,0.000,0.000,0.000,0,0,0,0,7,255,0,250,0,0,-89.589,0.490,-29.807
EX0521-092111,2,C22,prep,911,911,0,351034.092,0.687,-0.680,0.184,0.180,0,0,0,0,0,0,0,0,0,0.000,0,0,0.049,0.006,0.020,0.020,-0.040,0.014,0.995,0.012,-0.002,-0.006,0.006,0.000,0.000,0.000,0.000,0,0,0,0,7,255,0,250,0,0,-89.590,0.490,-29.807
EX0521-092111,2,C22,prep,911,911,0,351039.091,0.687,-0.680,0.184,0.180,0,0,0,0,0,0,0,0,0,0.000,0,0,0.049,0.002,0.020,-0.040,0.020,0.015,0.995,0.011,0.000,-0.002,0.006,0.000,0.000,0.000,0.000,0,0,0,0,7,255,0,250,0,0,-89.590,0.490,-29.807
EX0521-092111,2,C22,prep,911,911,0,351044.092,0.687,-0.680,0.184,0.180,0,0,0,0,0,0,0,0,0,0.000,0,0,0.060,0.006,-0.040,-0.040,0.020,0.014,0.995,0.012,-0.006,-0.002,0.006,0.000,0.000,0.000,0.000,0,0,0,0,7,255,0,250,0,0,-89.591,0.490,-29.807
EX0521-092111,2,C22,prep,927,927,0,351049.092,0.687,-0.680,0.184,0.180,0,0,0,0,0,0,0,0,0,0.000,0,0,0.110,0.004,0.020,-0.100,-0.040,0.015,0.995,0.012,-0.004,-0.002,0.006,0.000,0.000,0.000,0.000,0,0,0,0,7,255,0,250,0,0,-89.587,0.490,-29.807
EX0521-092111,2,C22,prep,927,927,0,351054.092,0.687,-0.680,0.184,0.180,0,0,0,0,0,0,0,0,0,0.000,0,0,0.049,0.006,0.020,-0.040,0.020,0.014,0.994,0.011,-0.006,-0.002,0.006,0.000,0.000,0.000,0.000,0,0,0,0,7,255,0,250,0,0,-89.587,0.490,-29.807
EX0521-092111,2,C22,prep,943,943,0,351059.091,0.687,-0.680,0.184,0.180,0,0,0,0,0,0,0,0,0,0.000,0,0,0.060,0.007,-0.040,-0.040,0.020,0.014,0.994,0.011,-0.004,0.006,-0.004,0.000,0.000,0.000,0.000,0,0,0,0,7,255,0,250,0,0,-89.588,0.490,-29.807
EX0521-092111,2,C22,prep,943,943,0,351064.093,0.687,-0.680,0.184,0.180,0,0,0,0,0,0,0,0,0,0.000,0,0,0.060,0.008,-0.040,-0.040,0.020,0.014,0.993,0.012,-0.006,0.006,-0.004,0.000,0.000,0.000,0.000,0,0,0,0,7,255,0,250,0,0,-89.589,0.490,-29.807
EX0521-092111,2,C22,prep,943,943,0,351069.092,0.687,-0.680,0.184,0.180,0,0,0,0,0,0,0,0,0,0.000,0,0,0.060,0.003,0.020,-0.040,-0.040,0.015,0.994,0.012,-0.002,-0.002,-0.008,0.000,0.000,0.000,0.000,0,0,0,0,7,255,0,250,0,0,-89.589,0.491,-29.807
EX0521-092111,2,C22,prep,943,943,0,351074.092,0.687,-0.680,0.184,0.180,0,0,0,0,0,0,0,0,0,0.000,0,0,0.069,0.008,-0.040,-0.040,-0.040,0.014,0.994,0.012,-0.006,-0.006,-0.008,0.000,0.000,0.000,0.000,0,0,0,0,7,255,0,250,0,0,-89.585,0.491,-29.807
EX0521-092111,2,C22,prep,965,965,0,351079.091,0.687,-0.680,0.184,0.180,0,0,0,0,0,0,0,0,0,0.000,0,0,0.049,0.006,0.020,-0.040,0.020,0.016,0.995,0.011,-0.002,-0.006,-0.004,0.000,0.000,0.000,0.000,0,0,0,0,7,255,0,250,0,0,-89.586,0.491,-29.807
EX0521-092111,2,C22,prep,965,965,0,351084.092,0.687,-0.680,0.184,0.180,0,0,0,0,0,0,0,0,0,0.000,0,0,0.049,0.007,0.020,-0.040,0.020,0.014,0.995,0.011,-0.006,-0.004,0.002,0.000,0.000,0.000,0.000,0,0,0,0,7,255,0,250,0,0,-89.586,0.491,-29.807
EX0521-092111,2,C22,prep,998,998,0,351089.092,0.687,-0.680,0.184,0.180,0,0,0,0,0,0,0,0,0,0.000,0,0,0.060,0.004,-0.040,-0.040,0.020,0.015,0.994,0.013,-0.002,-0.004,0.002,0.000,0.000,0.000,0.000,0,0,0,0,7,255,0,250,0,0,-89.582,0.491,-29.807
EX0521-092111,2,C22,prep,998,998,0,351094.091,0.687,-0.680,0.184,0.180,0,0,0,0,0,0,0,0,0,0.000,0,0,0.069,0.006,-0.040,-0.040,-0.040,0.014,0.995,0.012,-0.006,-0.002,0.002,0.000,0.000,0.000,0.000,0,0,0,0,7,255,0,250,0,0,-89.583,0.492,-29.807
EX0521-092111,2,C22,prep,998,998,0,351099.091,0.687,-0.680,0.184,0.180,0,0,0,0,0,0,0,0,0,0.000,0,0,0.060,0.003,0.020,-0.040,-0.040,0.015,0.995,0.011,-0.002,-0.002,0.002,0.000,0.000,0.000,0.000,0,0,0,0,7,255,0,250,0,0,-89.583,0.492,-29.807
EX0521-092111,2,C22,prep,998,998,0,351104.093,0.687,-0.680,0.184,0.180,0,0,0,0,0,0,0,0,0,0.000,0,0,0.104,0.006,0.020,-0.100,0.020,0.014,0.995,0.012,-0.006,-0.002,0.002,0.000,0.000,0.000,0.000,0,0,0,0,7,255,0,250,0,0,-89.584,0.492,-29.807
EX0521-092111,2,C22,prep,999,999,0,351109.092,0.687,-0.680,0.184,0.180,0,0,0,0,0,0,0,0,0,0.000,0,0,0.069,0.006,-0.040,-0.040,-0.040,0.014,0.995,0.011,-0.006,0.002,0.002,0.000,0.000,0.000,0.000,0,0,0,0,7,255,0,250,0,0,-89.585,0.492,-29.807
EX0521-092111,2,C22,prep,999,999,0,351114.091,0.687,-0.680,0.184,0.180,0,0,0,0,0,0,0,0,0,0.000,0,0,0.104,0.006,0.020,-0.100,0.020,0.015,0.995,0.011,-0.006,0.000,0.002,0.000,0.000,0.000,0.000,0,0,0,0,7,255,0,250,0,0,-89.585,0.492,-29.807
EX0521-092111,2,C22,prep,1030,1030,0,351119.091,0.687,-0.680,0.184,0.180,0,0,0,0,0,0,0,0,0,0.000,0,0,0.060,0.000,0.020,-0.040,-0.040,0.015,0.995,0.012,0.000,0.000,0.002,0.000,0.000,0.000,0.000,0,0,0,0,7,255,0,250,0,0,-89.586,0.493,-29.807
EX0521-092111,2,C22,prep,1030,1030,0,351124.092,0.687,-0.680,0.184,0.180,0,0,0,0,0,0,0,0,0,0.000,0,0,0.049,0.000,0.020,0.020,-0.040,0.014,0.994,0.011,0.000,0.000,0.002,0.000,0.000,0.000,0.000,0,0,0,0,7,255,0,250,0,0,-89.586,0.493,-29.807
EX0521-092111,2,C22,prep,1030,1030,0,351129.092,0.687,-0.680,0.184,0.180,0,0,0,0,0,0,0,0,0,0.000,0,0,0.104,0.003,0.020,-0.100,0.020,0.015,0.993,0.011,0.002,-0.002,-0.004,0.000,0.000,0.000,0.000,0,0,0,0,7,255,0,250,0,0,-89.587,0.493,-29.807
EX0521-092111,2,C22,prep,1030,1030,0,351134.091,0.687,-0.680,0.184,0.180,0,0,0,0,0,0,0,0,0,0.000,0,0,0.060,0.003,-0.040,-0.040,0.020,0.015,0.995,0.011,0.002,0.002,-0.004,0.000,0.000,0.000,0.000,0,0,0,0,7,255,0,250,0,0,-89.588,0.493,-29.807
EX0521-092111,2,C22,prep,1030,1030,0,351139.092,0.687,-0.680,0.184,0.180,0,0,0,0,0,0,0,0,0,0.000,0,0,0.060,0.003,0.020,-0.040,-0.040,0.015,0.995,0.012,0.002,-0.002,0.002,0.000,0.000,0.000,0.000,0,0,0,0,7,255,0,250,0,0,-89.588,0.493,-29.807
EX0521-092111,2,C22,prep,1030,1030,0,351144.092,0.687,-0.680,0.184,0.180,0,0,0,0,0,0,0,0,0,0.000,0,0,0.049,0.004,0.020,-0.040,0.020,0.015,0.994,0.012,-0.002,-0.004,0.002,0.000,0.000,0.000,0.000,0,0,0,0,7,255,0,250,0,0,-89.589,0.494,-29.807
EX0521-092111,2,C22,prep,1030,1030,0,351149.092,0.687,-0.680,0.184,0.180,0,0,0,0,0,0,0,0,0,0.000,0,0,0.049,0.004,0.020,-0.040,0.020,0.016,0.995,0.012,-0.002,-0.004,0.002,0.000,0.000,0.000,0.000,0,0,0,0,7,255,0,250,0,0,-89.585,0.494,-29.807
EX0521-092111,2,C22,prep,1030,1030,0,351154.091,0.687,-0.680,0.184,0.180,0,0,0,0,0,0,0,0,0,0.000,0,0,0.085,0.004,0.080,0.020,0.020,0.015,0.994,0.012,-0.002,-0.004,-0.004,0.000,0.000,0.000,0.000,0,0,0,0,7,255,0,250,0,0,-89.585,0.495,-29.807
EX0521-092111,2,C22,prep,1039,1039,0,351159.095,0.687,-0.680,0.184,0.180,0,0,0,0,0,0,0,0,0,0.000,0,0,0.066,0.004,0.020,-0.060,0.020,0.014,0.994,0.012,-0.002,-0.004,-0.004,0.000,0.000,0.000,0.000,0,0,0,0,7,255,0,250,0,0,-89.586,0.495,-29.807
EX0521-092111,2,C22,prep,1039,1039,0,351164.092,0.687,-0.680,0.184,0.180,0,0,0,0,0,0,0,0,0,0.000,0,0,0.082,0.002,-0.040,-0.060,-0.040,0.014,0.995,0.011,-0.002,0.000,-0.004,0.000,0.000,0.000,0.000,0,0,0,0,7,255,0,250,0,0,-89.587,0.495,-29.807
EX0521-092111,2,C22,prep,1062,1062,0,351169.092,0.687,-0.680,0.184,0.180,0,0,0,0,0,0,0,0,0,0.000,0,0,0.082,0.006,-0.040,-0.060,-0.040,0.014,0.995,0.012,-0.006,0.000,0.002,0.000,0.000,0.000,0.000,0,0,0,0,7,255,0,250,0,0,-89.587,0.495,-29.807
EX0521-092111,2,C22,prep,1062,1062,0,351174.091,0.687,-0.680,0.184,0.180,0,0,0,0,0,0,0,0,0,0.000,0,0,0.075,0.006,0.020,-0.060,-0.040,0.014,0.995,0.011,-0.002,0.006,0.002,0.000,0.000,0.000,0.000,0,0,0,0,7,255,0,250,0,0,-89.588,0.495,-29.807
EX0521-092111,2,C22,prep,1062,1062,0,351179.092,0.687,-0.680,0.184,0.180,0,0,0,0,0,0,0,0,0,0.000,0,0,0.066,0.004,0.020,-0.060,0.020,0.014,0.994,0.011,-0.004,0.002,0.002,0.000,0.000,0.000,0.000,0,0,0,0,7,255,0,250,0,0,-89.588,0.495,-29.807
EX0521-092111,2,C22,prep,1062,1062,0,351184.092,0.687,-0.680,0.184,0.180,0,0,0,0,0,0,0,0,0,0.000,0,0,0.146,0.003,0.080,-0.120,0.020,0.015,0.994,0.011,-0.002,0.002,-0.004,0.000,0.000,0.000,0.000,0,0,0,0,7,255,0,250,0,0,-89.589,0.495,-29.807
EX0521-092111,2,C22,prep,1062,1062,0,351189.092,0.687,-0.680,0.184,0.180,0,0,0,0,0,0,0,0,0,0.000,0,0,0.066,0.006,0.020,-0.060,0.020,0.016,0.994,0.011,0.006,0.002,-0.004,0.000,0.000,0.000,0.000,0,0,0,0,7,255,0,250,0,0,-89.590,0.496,-29.807
EX0521-092111,2,C22,prep,1062,1062,0,351194.091,0.687,-0.680,0.184,0.180,0,0,0,0,0,0,0,0,0,0.000,0,0,0.066,0.008,0.020,-0.060,0.020,0.014,0.994,0.012,0.006,-0.006,-0.008,0.000,0.000,0.000,0.000,0,0,0,0,7,255,0,250,0,0,-89.586,0.496,-29.807
EX0521-092111,2,C22,prep,1099,1099,0,351199.092,0.687,-0.680,0.184,0.180,0,0,0,0,0,0,0,0,0,0.000,0,0,0.066,0.006,0.020,-0.060,0.020,0.015,0.995,0.013,-0.002,-0.006,-0.008,0.000,0.000,0.000,0.000,0,0,0,0,7,255,0,250,0,0,-89.581,0.496,-29.807
EX0521-092111,2,C22,prep,1099,1099,0,351204.093,0.687,-0.680,0.184,0.180,0,0,0,0,0,0,0,0,0,0.000,0,0,0.075,0.006,-0.040,-0.060,0.020,0.014,0.995,0.011,-0.002,-0.006,0.002,0.000,0.000,0.000,0.000,0,0,0,0,7,255,0,250,0,0,-89.582,0.496,-29.807
EX0521-092111,2,C22,prep,1100,1100,0,351209.091,0.687,-0.680,0.184,0.180,0,0,0,0,0,0,0,0,0,0.000,0,0,0.075,0.003,0.020,-0.060,-0.040,0.015,0.995,0.011,-0.002,-0.002,0.006,0.000,0.000,0.000,0.000,0,0,0,0,7,255,0,250,0,0,-89.582,0.497,-29.807
EX0521-092111,2,C22,prep,1100,1100,0,351214.091,0.687,-0.680,0.184,0.180,0,0,0,0,0,0,0,0,0,0.000,0,0,0.128,0.003,0.020,-0.120,-0.040,0.014,0.994,0.012,-0.002,-0.002,0.002,0.000,0.000,0.000,0.000,0,0,0,0,7,255,0,250,0,0,-89.583,0.497,-29.807
EX0521-092111,2,C22,prep,1100,1100,0,351219.092,0.687,-0.680,0.184,0.180,0,0,0,0,0,0,0,0,0,0.000,0,0,0.066,0.006,0.020,-0.060,0.020,0.015,0.994,0.012,-0.004,-0.004,-0.004,0.000,0.000,0.000,0.000,0,0,0,0,7,255,0,250,0,0,-89.579,0.497,-29.807
EX0521-092111,2,C22,prep,1100,1100,0,351224.092,0.687,-0.680,0.184,0.180,0,0,0,0,0,0,0,0,0,0.000,0,0,0.066,0.006,0.020,-0.060,0.020,0.015,0.995,0.012,-0.004,-0.004,-0.004,0.000,0.000,0.000,0.000,0,0,0,0,7,255,0,250,0,0,-89.580,0.497,-29.807
EX0521-092111,2,C22,prep,1127,1127,0,351229.091,0.687,-0.680,0.184,0.180,0,0,0,0,0,0,0,0,0,0.000,0,0,0.102,0.004,0.080,-0.060,0.020,0.014,0.996,0.011,-0.004,-0.002,0.002,0.000,0.000,0.000,0.000,0,0,0,0,7,255,0,250,0,0,-89.580,0.497,-29.807
EX0521-092111,2,C22,prep,1127,1127,0,351234.091,0.687,-0.680,0.184,0.180,0,0,0,0,0,0,0,0,0,0.000,0,0,0.075,0.002,-0.040,-0.060,0.020,0.016,0.994,0.011,-0.002,0.000,0.002,0.000,0.000,0.000,0.000,0,0,0,0,7,255,0,250,0,0,-89.581,0.497,-29.807
EX0521-092111,2,C22,prep,1127,1127,0,351239.092,0.687,-0.680,0.184,0.180,0,0,0,0,0,0,0,0,0,0.000,0,0,0.066,0.008,0.020,-0.060,0.020,0.014,0.994,0.012,-0.008,0.002,-0.004,0.000,0.000,0.000,0.000,0,0,0,0,7,255,0,250,0,0,-89.582,0.497,-29.807
EX0521-092111,2,C22,prep,1127,1127,0,351244.092,0.687,-0.680,0.184,0.180,0,0,0,0,0,0,0,0,0,0.000,0,0,0.066,0.008,0.020,-0.060,0.020,0.016,0.994,0.011,0.008,0.000,-0.004,0.000,0.000,0.000,0.000,0,0,0,0,7,255,0,250,0,0,-89.582,0.498,-29.807
EX0521-092111,2,C22,prep,1128,1128,0,351249.091,0.687,-0.680,0.184,0.180,0,0,0,0,0,0,0,0,0,0.000,0,0,0.146,0.004,0.080,-0.120,0.020,0.015,0.994,0.012,0.002,-0.004,-0.004,0.000,0.000,0.000,0.000,0,0,0,0,7,255,0,250,0,0,-89.583,0.498,-29.807
EX0521-092111,2,C22,prep,1128,1128,0,351254.091,0.687,-0.680,0.184,0.180,0,0,0,0,0,0,0,0,0,0.000,0,0,0.123,0.004,0.020,-0.120,0.020,0.014,0.995,0.011,0.002,-0.004,-0.004,0.000,0.000,0.000,0.000,0,0,0,0,7,255,0,250,0,0,-89.583,0.498,-29.807
EX0521-092111,2,C22,prep,1163,1163,0,351259.092,0.687,-0.680,0.184,0.180,0,0,0,0,0,0,0,0,0,0.000,0,0,0.130,0.010,0.080,-0.100,0.020,0.015,0.995,0.010,0.002,0.010,0.006,0.000,0.000,0.000,0.000,0,0,0,0,7,255,0,250,0,0,-89.584,0.498,-29.807
EX0521-092111,2,C22,prep,1163,1163,0,351264.092,0.687,-0.680,0.184,0.180,0,0,0,0,0,0,0,0,0,0.000,0,0,0.060,0.010,0.020,-0.040,-0.040,0.015,0.995,0.011,0.002,0.010,0.006,0.000,0.000,0.000,0.000,0,0,0,0,7,255,0,250,0,0,-89.585,0.499,-29.807
EX0521-092111,2,C22,prep,1164,1164,0,351269.091,0.687,-0.680,0.184,0.180,0,0,0,0,0,0,0,0,0,0.000,0,0,0.060,0.004,-0.040,0.020,-0.040,0.015,0.994,0.012,0.002,0.004,0.002,0.000,0.000,0.000,0.000,0,0,0,0,7,255,0,250,0,0,-89.585,0.499,-29.807
EX0521-092111,2,C22,prep,1164,1164,0,351274.092,0.687,-0.680,0.184,0.180,0,0,0,0,0,0,0,0,0,0.000,0,0,0.115,0.004,-0.040,-0.100,-0.040,0.016,0.995,0.011,0.002,-0.004,0.002,0.000,0.000,0.000,0.000,0,0,0,0,7,255,0,250,0,0,-89.586,0.499,-29.807
EX0521-092111,2,C22,prep,1164,1164,0,351279.092,0.687,-0.680,0.184,0.180,0,0,0,0,0,0,0,0,0,0.000,0,0,0.104,0.004,0.020,-0.100,0.020,0.014,0.994,0.012,0.002,-0.004,-0.004,0.000,0.000,0.000,0.000,0,0,0,0,7,255,0,250,0,0,-89.586,0.499,-29.807
EX0521-092111,2,C22,prep,1164,1164,0,351284.092,0.687,-0.680,0.184,0.180,0,0,0,0,0,0,0,0,0,0.000,0,0,0.092,0.004,0.080,-0.040,0.020,0.015,0.995,0.012,0.000,-0.004,0.002,0.000,0.000,0.000,0.000,0,0,0,0,7,255,0,250,0,0,-89.583,0.500,-29.807
EX0521-092111,2,C22,prep,1198,1198,0,351289.091,0.687,-0.680,0.184,0.180,0,0,0,0,0,0,0,0,0,0.000,0,0,0.049,0.007,0.020,-0.040,0.020,0.015,0.995,0.012,-0.004,-0.006,0.006,0.000,0.000,0.000,0.000,0,0,0,0,7,255,0,250,0,0,-89.583,0.500,-29.807
EX0521-092111,2,C22,prep,1198,1198,0,351294.092,0.687,-0.680,0.184,0.180,0,0,0,0,0,0,0,0,0,0.000,0,0,0.110,0.007,-0.040,-0.100,0.020,0.014,0.994,0.012,-0.004,-0.006,0.006,0.000,0.000,0.000,0.000,0,0,0,0,7,255,0,250,0,0,-89.579,0.500,-29.807
EX0521-092111,2,C22,prep,1198,1198,0,351299.092,0.687,-0.680,0.184,0.180,0,0,0,0,0,0,0,0,0,0.000,0,0,0.060,0.006,0.020,-0.040,-0.040,0.014,0.995,0.012,-0.006,-0.002,0.002,0.000,0.000,0.000,0.000,0,0,0,0,7,255,0,250,0,0,-89.580,0.500,-29.807
EX0521-092111,2,C22,prep,1198,1198,0,351304.093,0.687,-0.680,0.184,0.180,0,0,0,0,0,0,0,0,0,0.000,0,0,0.035,0.006,0.020,0.020,0.020,0.015,0.995,0.011,-0.006,0.000,0.002,0.000,0.000,0.000,0.000,0,0,0,0,7,255,0,250,0,0,-89.580,0.500,-29.807
EX0521-092111,2,C22,prep,1198,1198,0,351309.091,0.687,-0.680,0.184,0.180,0,0,0,0,0,0,0,0,0,0.000,0,0,0.098,0.008,-0.040,-0.040,0.080,0.014,0.995,0.011,-0.006,0.006,0.002,0.000,0.000,0.000,0.000,0,0,0,0,7,255,0,250,0,0,-89.581,0.500,-29.807
EX0521-092111,2,C22,prep,1198,1198,0,351314.092,0.687,-0.680,0.184,0.180,0,0,0,0,0,0,0,0,0,0.000,0,0,0.049,0.006,0.020,-0.040,0.020,0.015,0.994,0.011,0.002,0.006,0.002,0.000,0.000,0.000,0.000,0,0,0,0,7,255,0,250,0,0,-89.582,0.500,-29.807
EX0521-092111,2,C22,prep,1224,1224,0,351319.092,0.687,-0.680,0.184,0.180,0,0,0,0,0,0,0,0,0,0.000,0,0,0.134,0.006,0.080,-0.100,-0.040,0.014,0.995,0.012,-0.006,0.000,0.006,0.000,0.000,0.000,0.000,0,0,0,0,7,255,0,250,0,0,-89.582,0.500,-29.807
EX0521-092111,2,C22,prep,1224,1224,0,351324.091,0.687,-0.680,0.184,0.180,0,0,0,0,0,0,0,0,0,0.000,0,0,0.060,0.000,0.020,-0.040,-0.040,0.015,0.994,0.011,0.000,0.000,-0.008,0.000,0.000,0.000,0.000,0,0,0,0,7,255,0,250,0,0,-89.583,0.501,-29.807
EX0521-092111,2,C22,prep,1224,1224,0,351329.091,0.687,-0.680,0.184,0.180,0,0,0,0,0,0,0,0,0,0.000,0,0,0.049,0.004,0.020,-0.040,0.020,0.014,0.994,0.011,-0.004,0.002,-0.008,0.000,0.000,0.000,0.000,0,0,0,0,7,255,0,250,0,0,-89.584,0.501,-29.807
EX0521-092111,2,C22,prep,1224,1224,0,351334.092,0.687,-0.680,0.184,0.180,0,0,0,0,0,0,0,0,0,0.000,0,0,0.049,0.004,0.020,-0.040,0.020,0.015,0.995,0.011,0.000,0.004,-0.008,0.000,0.000,0.000,0.000,0,0,0,0,7,255,0,250,0,0,-89.584,0.501,-29.807
EX0521-092111,2,C22,prep,1224,1224,0,351339.092,0.687,-0.680,0.184,0.180,0,0,0,0,0,0,0,0,0,0.000,0,0,0.060,0.006,0.020,-0.040,-0.040,0.014,0.994,0.011,-0.004,0.004,-0.004,0.000,0.000,0.000,0.000,0,0,0,0,7,255,0,250,0,0,-89.585,0.501,-29.807
EX0521-092111,2,C22,prep,1224,1224,0,351344.092,0.687,-0.680,0.184,0.180,0,0,0,0,0,0,0,0,0,0.000,0,0,0.092,0.006,0.080,-0.040,0.020,0.014,0.995,0.011,-0.004,0.004,0.002,0.000,0.000,0.000,0.000,0,0,0,0,7,255,0,250,0,0,-89.585,0.501,-29.807
EX0521-092111,2,C22,prep,1231,1231,0,351349.092,0.687,-0.680,0.184,0.180,0,0,0,0,0,0,0,0,0,0.000,0,0,0.098,0.006,0.080,-0.040,-0.040,0.015,0.995,0.012,-0.004,0.004,0.002,0.000,0.000,0.000,0.000,0,0,0,0,7,255,0,250,0,0,-89.586,0.501,-29.807
EX0521-092111,2,C22,prep,1231,1231,0,351354.092,0.687,-0.680,0.184,0.180,0,0,0,0,0,0,0,0,0,0.000,0,0,0.110,0.006,0.020,-0.100,-0.040,0.014,0.996,0.011,-0.004,0.004,0.006,0.000,0.000,0.000,0.000,0,0,0,0,7,255,0,250,0,0,-89.587,0.500,-29.807
EX0521-092111,2,C22,prep,1260,1260,0,351359.095,0.687,-0.680,0.184,0.180,0,0,0,0,0,0,0,0,0,0.000,0,0,0.092,0.004,0.080,-0.040,0.020,0.014,0.995,0.011,-0.004,0.002,0.006,0.000,0.000,0.000,0.000,0,0,0,0,7,255,0,250,0,0,-89.587,0.500,-29.807
EX0521-092111,2,C22,prep,1260,1260,0,351364.091,0.687,-0.680,0.184,0.180,0,0,0,0,0,0,0,0,0,0.000,0,0,0.049,0.004,0.020,-0.040,0.020,0.014,0.994,0.011,-0.004,0.002,0.006,0.000,0.000,0.000,0.000,0,0,0,0,7,255,0,250,0,0,-89.588,0.500,-29.807
EX0521-092111,2,C22,prep,1260,1260,0,351369.092,0.687,-0.680,0.184,0.180,0,0,0,0,0,0,0,0,0,0.000,0,0,0.104,0.004,0.020,-0.100,0.020,0.013,0.995,0.012,-0.004,0.002,0.002,0.000,0.000,0.000,0.000,0,0,0,0,7,255,0,250,0,0,-89.584,0.498,-29.807
EX0521-092111,2,C22,prep,1260,1260,0,351374.092,0.687,-0.680,0.184,0.180,0,0,0,0,0,0,0,0,0,0.000,0,0,0.060,0.004,0.020,-0.040,-0.040,0.015,0.995,0.012,-0.004,0.002,0.002,0.000,0.000,0.000,0.000,0,0,0,0,7,255,0,250,0,0,-89.584,0.499,-29.807
EX0521-092111,2,C22,prep,1260,1260,0,351379.091,0.687,-0.680,0.184,0.180,0,0,0,0,0,0,0,0,0,0.000,0,0,0.104,0.003,0.020,-0.100,0.020,0.015,0.994,0.011,-0.002,0.002,0.002,0.000,0.000,0.000,0.000,0,0,0,0,7,255,0,250,0,0,-89.585,0.499,-29.807
EX0521-092111,2,C22,prep,1260,1260,0,351384.091,0.687,-0.680,0.184,0.180,0,0,0,0,0,0,0,0,0,0.000,0,0,0.060,0.000,0.020,-0.040,-0.040,0.015,0.994,0.011,0.000,0.000,-0.004,0.000,0.000,0.000,0.000,0,0,0,0,7,255,0,250,0,0,-89.586,0.499,-29.807
EX0521-092111,2,C22,prep,1312,1312,0,351389.092,0.687,-0.680,0.184,0.180,0,0,0,0,0,0,0,0,0,0.000,0,0,0.049,0.000,0.020,-0.040,0.020,0.015,0.995,0.012,0.000,0.000,-0.004,0.000,0.000,0.000,0.000,0,0,0,0,7,255,0,250,0,0,-89.586,0.499,-29.807
EX0521-092111,2,C22,prep,1312,1312,0,351394.092,0.687,-0.680,0.184,0.180,0,0,0,0,0,0,0,0,0,0.000,0,0,0.092,0.002,0.080,-0.040,0.020,0.013,0.995,0.012,-0.002,0.000,0.002,0.000,0.000,0.000,0.000,0,0,0,0,7,255,0,250,0,0,-89.587,0.498,-29.807
EX0521-092111,2,C22,prep,1312,1312,0,351399.091,0.687,-0.680,0.184,0.180,0,0,0,0,0,0,0,0,0,0.000,0,0,0.049,0.003,0.020,-0.040,0.020,0.015,0.995,0.011,-0.002,-0.002,0.002,0.000,0.000,0.000,0.000,0,0,0,0,7,255,0,250,0,0,-89.587,0.498,-29.807
EX0521-092111,2,C22,prep,1312,1312,0,351404.093,0.687,-0.680,0.184,0.180,0,0,0,0,0,0,0,0,0,0.000,0,0,0.060,0.009,-0.040,-0.040,0.020,0.014,0.995,0.011,-0.008,0.004,0.002,0.000,0.000,0.000,0.000,0,0,0,0,7,255,0,250,0,0,-89.588,0.498,-29.807
EX0521-092111,2,C22,prep,1329,1329,0,351409.092,0.687,-0.680,0.184,0.180,0,0,0,0,0,0,0,0,0,0.000,0,0,0.075,0.004,0.020,-0.060,-0.040,0.016,0.995,0.011,0.004,-0.002,0.002,0.000,0.000,0.000,0.000,0,0,0,0,7,255,0,250,0,0,-89.589,0.499,-29.807
EX0521-092111,2,C22,prep,1329,1329,0,351414.092,0.687,-0.680,0.184,0.180,0,0,0,0,0,0,0,0,0,0.000,0,0,0.066,0.004,0.020,-0.060,0.020,0.015,0.995,0.012,0.002,-0.004,0.002,0.000,0.000,0.000,0.000,0,0,0,0,7,255,0,250,0,0,-89.589,0.499,-29.807
EX0521-092111,2,C22,prep,1331,1331,0,351419.091,0.687,-0.680,0.184,0.180,0,0,0,0,0,0,0,0,0,0.000,0,0,0.075,0.004,0.020,-0.060,-0.040,0.014,0.995,0.012,0.002,-0.004,0.002,0.000,0.000,0.000,0.000,0,0,0,0,7,255,0,250,0,0,-89.590,0.499,-29.807
EX0521-092111,2,C22,prep,1331,1331,0,351424.091,0.687,-0.680,0.184,0.180,0,0,0,0,0,0,0,0,0,0.000,0,0,0.128,0.003,-0.040,-0.120,0.020,0.015,0.994,0.011,0.002,-0.002,0.002,0.000,0.000,0.000,0.000,0,0,0,0,7,255,0,250,0,0,-89.590,0.499,-29.807
EX0521-092111,2,C22,prep,1331,1331,0,351429.092,0.687,-0.680,0.184,0.180,0,0,0,0,0,0,0,0,0,0.000,0,0,0.066,0.004,0.020,-0.060,0.020,0.014,0.995,0.011,-0.004,0.002,0.002,0.000,0.000,0.000,0.000,0,0,0,0,7,255,0,250,0,0,-89.591,0.499,-29.807
EX0521-092111,2,C22,prep,1331,1331,0,351434.092,0.687,-0.680,0.184,0.180,0,0,0,0,0,0,0,0,0,0.000,0,0,0.082,0.004,-0.040,-0.060,-0.040,0.014,0.995,0.011,-0.002,0.004,0.002,0.000,0.000,0.000,0.000,0,0,0,0,7,255,0,250,0,0,-89.592,0.499,-29.807
EX0521-092111,2,C22,prep,1333,1333,0,351439.091,0.687,-0.680,0.184,0.180,0,0,0,0,0,0,0,0,0,0.000,0,0,0.082,0.003,-0.040,-0.060,-0.040,0.015,0.995,0.011,-0.002,0.002,0.002,0.000,0.000,0.000,0.000,0,0,0,0,7,255,0,250,0,0,-89.592,0.499,-29.807
EX0521-092111,2,C22,prep,1333,1333,0,351444.092,0.687,-0.680,0.184,0.180,0,0,0,0,0,0,0,0,0,0.000,0,0,0.066,0.004,0.020,-0.060,0.020,0.015,0.994,0.011,0.000,0.004,0.002,0.000,0.000,0.000,0.000,0,0,0,0,7,255,0,250,0,0,-89.593,0.500,-29.807
EX0521-092111,2,C22,prep,1334,1334,0,351449.092,0.687,-0.680,0.184,0.180,0,0,0,0,0,0,0,0,0,0.000,0,0,0.066,0.000,0.020,-0.060,0.020,0.014,0.994,0.012,0.000,0.000,-0.004,0.000,0.000,0.000,0.000,0,0,0,0,7,255,0,250,0,0,-89.589,0.500,-29.807
EX0521-092111,2,C22,prep,1334,1334,0,351454.091,0.687,-0.680,0.184,0.180,0,0,0,0,0,0,0,0,0,0.000,0,0,0.102,0.003,0.080,-0.060,0.020,0.015,0.994,0.011,0.002,-0.002,-0.004,0.000,0.000,0.000,0.000,0,0,0,0,7,255,0,250,0,0,-89.589,0.500,-29.807
EX0521-092111,2,C22,prep,1343,1343,0,351459.091,0.687,-0.680,0.184,0.180,0,0,0,0,0,0,0,0,0,0.000,0,0,0.049,0.004,0.020,-0.040,0.020,0.015,0.995,0.011,0.004,-0.002,-0.004,0.000,0.000,0.000,0.000,0,0,0,0,7,255,0,250,0,0,-89.590,0.500,-29.807
EX0521-092111,2,C22,prep,1343,1343,0,351464.092,0.687,-0.680,0.184,0.180,0,0,0,0,0,0,0,0,0,0.000,0,0,0.060,0.004,-0.040,-0.040,0.020,0.015,0.995,0.011,0.004,-0.002,0.002,0.000,0.000,0.000,0.000,0,0,0,0,7,255,0,250,0,0,-89.591,0.501,-29.807
EX0521-092111,2,C22,prep,1359,1359,0,351469.092,0.687,-0.680,0.184,0.180,0,0,0,0,0,0,0,0,0,0.000,0,0,0.049,0.004,0.020,-0.040,0.020,0.015,0.994,0.012,0.004,-0.002,0.002,0.000,0.000,0.000,0.000,0,0,0,0,7,255,0,250,0,0,-89.587,0.501,-29.807
EX0521-092111,2,C22,prep,1359,1359,0,351474.091,0.687,-0.680,0.184,0.180,0,0,0,0,0,0,0,0,0,0.000,0,0,0.098,0.004,0.080,-0.040,-0.040,0.015,0.995,0.012,-0.002,-0.004,0.002,0.000,0.000,0.000,0.000,0,0,0,0,7,255,0,250,0,0,-89.587,0.501,-29.807
EX0521-092111,2,C22,prep,1359,1359,0,351479.091,0.687,-0.680,0.184,0.180,0,0,0,0,0,0,0,0,0,0.000,0,0,0.060,0.004,0.020,-0.040,-0.040,0.016,0.996,0.011,-0.002,-0.004,0.006,0.000,0.000,0.000,0.000,0,0,0,0,7,255,0,250,0,0,-89.588,0.502,-29.807
EX0521-092111,2,C22,prep,1359,1359,0,351484.092,0.687,-0.680,0.184,0.180,0,0,0,0,0,0,0,0,0,0.000,0,0,0.104,0.004,0.020,-0.100,0.020,0.015,0.994,0.012,-0.002,-0.004,0.006,0.000,0.000,0.000,0.000,0,0,0,0,7,255,0,250,0,0,-89.588,0.502,-29.807
EX0521-092111,2,C22,prep,1383,1383,0,351489.092,0.687,-0.680,0.184,0.180,0,0,0,0,0,0,0,0,0,0.000,0,0,0.049,0.004,-0.040,0.020,0.020,0.015,0.994,0.012,0.002,-0.004,-0.004,0.000,0.000,0.000,0.000,0,0,0,0,7,255,0,250,0,0,-89.589,0.502,-29.807
EX0521-092111,2,C22,prep,1383,1383,0,351494.091,0.687,-0.680,0.184,0.180,0,0,0,0,0,0,0,0,0,0.000,0,0,0.060,0.004,0.020,-0.040,-0.040,0.015,0.994,0.011,0.002,-0.004,-0.004,0.000,0.000,0.000,0.000,0,0,0,0,7,255,0,250,0,0,-89.590,0.503,-29.807
EX0521-092111,2,C22,prep,1407,1407,0,351499.091,0.687,-0.680,0.184,0.180,0,0,0,0,0,0,0,0,0,0.000,0,0,0.049,0.004,0.020,-0.040,0.020,0.015,0.994,0.012,0.002,-0.004,-0.004,0.000,0.000,0.000,0.000,0,0,0,0,7,255,0,250,0,0,-89.590,0.503,-29.807
EX0521-092111,2,C22,prep,1407,1407,0,351504.093,0.687,-0.680,0.184,0.180,0,0,0,0,0,0,0,0,0,0.000,0,0,0.060,0.004,0.020,-0.040,-0.040,0.015,0.995,0.012,0.000,-0.004,-0.004,0.000,0.000,0.000,0.000,0,0,0,0,7,255,0,250,0,0,-89.586,0.503,-29.807
EX0521-092111,2,C22,prep,1407,1407,0,351509.092,0.687,-0.680,0.184,0.180,0,0,0,0,0,0,0,0,0,0.000,0,0,0.092,0.004,0.080,-0.040,0.020,0.015,0.996,0.011,0.000,-0.004,0.006,0.000,0.000,0.000,0.000,0,0,0,0,7,255,0,250,0,0,-89.587,0.503,-29.807
EX0521-092111,2,C22,prep,1407,1407,0,351514.091,0.687,-0.680,0.184,0.180,0,0,0,0,0,0,0,0,0,0.000,0,0,0.060,0.004,-0.040,-0.040,0.020,0.015,0.995,0.011,0.004,-0.002,0.006,0.000,0.000,0.000,0.000,0,0,0,0,7,255,0,250,0,0,-89.588,0.504,-29.807
EX0521-092111,2,C22,prep,1407,1407,0,351519.092,0.687,-0.680,0.184,0.180,0,0,0,0,0,0,0,0,0,0.000,0,0,0.060,0.004,0.020,-0.040,-0.040,0.015,0.995,0.012,0.004,-0.002,0.002,0.000,0.000,0.000,0.000,0,0,0,0,7,255,0,250,0,0,-89.584,0.504,-29.807
EX0521-092111,2,C22,prep,1407,1407,0,351524.092,0.687,-0.680,0.184,0.180,0,0,0,0,0,0,0,0,0,0.000,0,0,0.049,0.007,0.020,-0.040,0.020,0.016,0.994,0.012,0.004,-0.006,0.002,0.000,0.000,0.000,0.000,0,0,0,0,7,255,0,250,0,0,-89.580,0.504,-29.807
EX0521-092111,2,C22,prep,1407,1407,0,351529.091,0.687,-0.680,0.184,0.180,0,0,0,0,0,0,0,0,0,0.000,0,0,0.049,0.007,0.020,-0.040,0.020,0.014,0.994,0.011,-0.004,-0.006,-0.004,0.000,0.000,0.000,0.000,0,0,0,0,7,255,0,250,0,0,-89.580,0.504,-29.807
EX0521-092111,2,C22,prep,1407,1407,0,351534.091,0.687,-0.680,0.184,0.180,0,0,0,0,0,0,0,0,0,0.000,0,0,0.092,0.004,0.020,-0.040,0.080,0.014,0.995,0.012,-0.004,0.000,-0.004,0.000,0.000,0.000,0.000,0,0,0,0,7,255,0,250,0,0,-89.581,0.504,-29.807
EX0521-092111,2,C22,prep,1423,1423,0,351539.092,0.687,-0.680,0.184,0.180,0,0,0,0,0,0,0,0,0,0.000,0,0,0.060,0.004,0.020,-0.040,-0.040,0.015,0.994,0.012,-0.004,0.000,-0.004,0.000,0.000,0.000,0.000,0,0,0,0,7,255,0,250,0,0,-89.581,0.505,-29.807
EX0521-092111,2,C22,prep,1423,1423,0,351544.092,0.687,-0.680,0.184,0.180,0,0,0,0,0,0,0,0,0,0.000,0,0,0.049,0.002,0.020,-0.040,0.020,0.016,0.995,0.011,-0.002,0.000,0.002,0.000,0.000,0.000,0.000,0,0,0,0,7,255,0,250,0,0,-89.582,0.505,-29.807
EX0521-092111,2,C22,prep,1423,1423,0,351549.091,0.687,-0.680,0.184,0.180,0,0,0,0,0,0,0,0,0,0.000,0,0,0.060,0.003,-0.040,-0.040,0.020,0.014,0.994,0.012,-0.002,-0.002,-0.004,0.000,0.000,0.000,0.000,0,0,0,0,7,255,0,250,0,0,-89.583,0.505,-29.807
EX0521-092111,2,C22,prep,1423,1423,0,351554.091,0.687,-0.680,0.184,0.180,0,0,0,0,0,0,0,0,0,0.000,0,0,0.110,0.006,0.020,-0.100,-0.040,0.014,0.994,0.012,-0.006,0.000,-0.004,0.000,0.000,0.000,0.000,0,0,0,0,7,255,0,250,0,0,-89.583,0.505,-29.807
EX0521-092111,2,C22,prep,1444,1444,0,351559.094,0.687,-0.680,0.184,0.180,0,0,0,0,0,0,0,0,0,0.000,0,0,0.075,0.009,-0.040,-0.060,0.020,0.014,0.995,0.012,-0.008,-0.004,-0.004,0.000,0.000,0.000,0.000,0,0,0,0,7,255,0,250,0,0,-89.584,0.505,-29.807
EX0521-092111,2,C22,prep,1444,1444,0,351564.092,0.687,-0.680,0.184,0.180,0,0,0,0,0,0,0,0,0,0.000,0,0,0.066,0.006,0.020,-0.060,0.020,0.015,0.995,0.011,-0.006,0.000,0.006,0.000,0.000,0.000,0.000,0,0,0,0,7,255,0,250,0,0,-89.585,0.505,-29.807
EX0521-092111,2,C22,prep,1445,1445,0,351569.091,0.687,-0.680,0.184,0.180,0,0,0,0,0,0,0,0,0,0.000,0,0,0.066,0.004,0.020,-0.060,0.020,0.015,0.994,0.012,0.002,-0.004,0.006,0.000,0.000,0.000,0.000,0,0,0,0,7,255,0,250,0,0,-89.585,0.506,-29.807
EX0521-092111,2,C22,prep,1445,1445,0,351574.092,0.687,-0.680,0.184,0.180,0,0,0,0,0,0,0,0,0,0.000,0,0,0.075,0.002,-0.040,-0.060,0.020,0.015,0.994,0.011,0.002,0.000,-0.004,0.000,0.000,0.000,0.000,0,0,0,0,7,255,0,250,0,0,-89.586,0.506,-29.807
EX0521-092111,2,C22,prep,1455,1455,0,351579.092,0.687,-0.680,0.184,0.180,0,0,0,0,0,0,0,0,0,0.000,0,0,0.123,0.002,0.020,-0.120,0.020,0.014,0.995,0.012,0.000,-0.002,-0.004,0.000,0.000,0.000,0.000,0,0,0,0,7,255,0,250,0,0,-89.582,0.505,-29.807
EX0521-092111,2,C22,prep,1455,1455,0,351584.091,0.687,-0.680,0.184,0.180,0,0,0,0,0,0,0,0,0,0.000,0,0,0.075,0.004,0.020,-0.060,-0.040,0.014,0.994,0.011,-0.004,0.002,-0.004,0.000,0.000,0.000,0.000,0,0,0,0,7,255,0,250,0,0,-89.582,0.505,-29.807
EX0521-092111,2,C22,prep,1515,1515,0,351589.091,0.687,-0.680,0.184,0.180,0,0,0,0,0,0,0,0,0,0.000,0,0,0.066,0.006,0.020,-0.060,0.020,0.014,0.994,0.009,-0.004,0.004,-0.004,0.000,0.000,0.000,0.000,0,0,0,0,7,255,0,250,0,0,-89.583,0.503,-29.807
EX0521-092111,2,C22,prep,1515,1515,0,351594.092,0.687,-0.680,0.184,0.180,0,0,0,0,0,0,0,0,0,0.000,0,0,0.102,0.004,0.080,-0.060,0.020,0.016,0.996,0.012,0.002,0.004,-0.004,0.000,0.000,0.000,0.000,0,0,0,0,7,255,0,250,0,0,-89.584,0.504,-29.807
EX0521-092111,2,C22,prep,1515,1515,0,351599.092,0.687,-0.680,0.184,0.180,0,0,0,0,0,0,0,0,0,0.000,0,0,0.066,0.006,0.020,-0.060,0.020,0.015,0.995,0.012,0.002,-0.006,0.002,0.000,0.000,0.000,0.000,0,0,0,0,7,255,0,250,0,0,-89.580,0.504,-29.807
EX0521-092111,2,C22,prep,1515,1515,0,351604.093,0.687,-0.680,0.184,0.180,0,0,0,0,0,0,0,0,0,0.000,0,0,0.123,0.007,0.020,-0.120,0.020,0.014,0.995,0.012,-0.004,-0.006,0.006,0.000,0.000,0.000,0.000,0,0,0,0,7,255,0,250,0,0,-89.580,0.504,-29.807
EX0521-092111,2,C22,prep,1515,1515,0,351609.091,0.687,-0.680,0.184,0.180,0,0,0,0,0,0,0,0,0,0.000,0,0,0.123,0.006,0.020,-0.120,0.020,0.014,0.993,0.012,-0.006,0.000,0.002,0.000,0.000,0.000,0.000,0,0,0,0,7,255,0,250,0,0,-89.581,0.504,-29.807
EX0521-092111,2,C22,prep,1515,1515,0,351614.092,0.687,-0.680,0.184,0.180,0,0,0,0,0,0,0,0,0,0.000,0,0,0.075,0.006,0.020,-0.060,-0.040,0.015,0.995,0.011,-0.006,0.000,0.002,0.000,0.000,0.000,0.000,0,0,0,0,7,255,0,250,0,0,-89.582,0.504,-29.807
EX0521-092111,2,C22,prep,1515,1515,0,351619.092,0.687,-0.680,0.184,0.180,0,0,0,0,0,0,0,0,0,0.000,0,0,0.128,0.002,-0.040,-0.120,0.020,0.014,0.996,0.010,0.002,0.000,0.002,0.000,0.000,0.000,0.000,0,0,0,0,7,255,0,250,0,0,-89.582,0.504,-29.807
EX0521-092111,2,C22,prep,1515,1515,0,351624.091,0.687,-0.680,0.184,0.180,0,0,0,0,0,0,0,0,0,0.000,0,0,0.066,0.002,0.020,-0.060,0.020,0.015,0.994,0.012,0.002,0.000,0.002,0.000,0.000,0.000,0.000,0,0,0,0,7,255,0,250,0,0,-89.583,0.504,-29.807
EX0521-092111,2,C22,prep,1516,1516,0,351629.092,0.687,-0.680,0.184,0.180,0,0,0,0,0,0,0,0,0,0.000,0,0,0.102,0.006,0.080,-0.060,0.020,0.015,0.995,0.011,0.002,0.006,0.006,0.000,0.000,0.000,0.000,0,0,0,0,7,255,0,250,0,0,-89.583,0.505,-29.807
EX0521-092111,2,C22,prep,1516,1516,0,351634.092,0.687,-0.680,0.184,0.180,0,0,0,0,0,0,0,0,0,0.000,0,0,0.066,0.002,0.020,-0.060,0.020,0.014,0.996,0.012,-0.002,0.000,0.006,0.000,0.000,0.000,0.000,0,0,0,0,7,255,0,250,0,0,-89.584,0.505,-29.807
EX0521-092111,2,C22,prep,1522,1522,0,351639.092,0.687,-0.680,0.184,0.180,0,0,0,0,0,0,0,0,0,0.000,0,0,0.075,0.003,0.020,-0.060,-0.040,0.016,0.996,0.011,0.002,0.002,0.010,0.000,0.000,0.000,0.000,0,0,0,0,7,255,0,250,0,0,-89.585,0.505,-29.807
EX0521-092111,2,C22,prep,1522,1522,0,351644.092,0.687,-0.680,0.184,0.180,0,0,0,0,0,0,0,0,0,0.000,0,0,0.075,0.004,0.020,-0.060,-0.040,0.015,0.995,0.012,-0.004,0.000,0.010,0.000,0.000,0.000,0.000,0,0,0,0,7,255,0,250,0,0,-89.581,0.505,-29.807
EX0521-092111,2,C22,prep,1535,1535,0,351649.092,0.687,-0.680,0.184,0.180,0,0,0,0,0,0,0,0,0,0.000,0,0,0.066,0.003,0.020,-0.060,0.020,0.015,0.994,0.012,-0.002,-0.002,0.006,0.000,0.000,0.000,0.000,0,0,0,0,7,255,0,250,0,0,-89.581,0.505,-29.807
EX0521-092111,2,C22,prep,1535,1535,0,351654.092,0.687,-0.680,0.184,0.180,0,0,0,0,0,0,0,0,0,0.000,0,0,0.066,0.003,0.020,-0.060,0.020,0.015,0.995,0.012,-0.002,-0.002,0.000,0.000,0.000,0.000,0.000,0,0,0,0,7,255,0,250,0,0,-89.582,0.506,-29.807
EX0521-092111,2,C22,prep,1535,1535,0,351659.091,0.687,-0.680,0.184,0.180,0,0,0,0,0,0,0,0,0,0.000,0,0,0.092,0.003,0.080,-0.040,0.020,0.015,0.995,0.011,-0.002,-0.002,0.000,0.000,0.000,0.000,0.000,0,0,0,0,7,255,0,250,0,0,-89.582,0.506,-29.807
EX0521-092111,2,C22,prep,1535,1535,0,351664.091,0.687,-0.680,0.184,0.180,0,0,0,0,0,0,0,0,0,0.000,0,0,0.049,0.004,0.020,-0.040,0.020,0.014,0.995,0.011,-0.002,0.004,0.000,0.000,0.000,0.000,0.000,0,0,0,0,7,255,0,250,0,0,-89.583,0.506,-29.807
EX0521-092111,2,C22,prep,1551,1551,0,351669.092,0.687,-0.680,0.184,0.180,0,0,0,0,0,0,0,0,0,0.000,0,0,0.146,0.004,0.080,-0.120,0.020,0.015,0.996,0.011,0.002,0.004,0.000,0.000,0.000,0.000,0.000,0,0,0,0,7,255,0,250,0,0,-89.584,0.506,-29.807
EX0521-092111,2,C22,prep,1551,1551,0,351674.092,0.687,-0.680,0.184,0.180,0,0,0,0,0,0,0,0,0,0.000,0,0,0.092,0.004,0.080,-0.040,0.020,0.015,0.994,0.012,-0.002,0.004,0.000,0.000,0.000,0.000,0.000,0,0,0,0,7,255,0,250,0,0,-89.584,0.506,-29.807
EX0521-092111,2,C22,prep,1581,1581,0,351679.091,0.687,-0.680,0.184,0.180,0,0,0,0,0,0,0,0,0,0.000,0,0,0.092,0.002,0.020,-0.040,0.080,0.015,0.994,0.011,0.000,0.002,-0.004,0.000,0.000,0.000,0.000,0,0,0,0,7,255,0,250,0,0,-89.585,0.507,-29.807
EX0521-092111,2,C22,prep,1581,1581,0,351684.092,0.687,-0.680,0.184,0.180,0,0,0,0,0,0,0,0,0,0.000,0,0,0.092,0.002,0.020,-0.040,0.080,0.015,0.995,0.011,0.000,0.002,-0.004,0.000,0.000,0.000,0.000,0,0,0,0,7,255,0,250,0,0,-89.585,0.507,-29.807
EX0521-092111,2,C22,prep,1611,1611,0,351689.092,0.687,-0.680,0.184,0.180,0,0,0,0,0,0,0,0,0,0.000,0,0,0.128,0.002,-0.040,-0.120,0.020,0.015,0.996,0.012,0.000,0.002,0.006,0.000,0.000,0.000,0.000,0,0,0,0,7,255,0,250,0,0,-89.582,0.507,-29.807
EX0521-092111,2,C22,prep,1611,1611,0,351694.092,0.687,-0.680,0.184,0.180,0,0,0,0,0,0,0,0,0,0.000,0,0,0.049,0.007,0.020,-0.040,0.020,0.015,0.995,0.012,-0.004,-0.006,0.006,0.000,0.000,0.000,0.000,0,0,0,0,7,255,0,250,0,0,-89.582,0.507,-29.807
EX0521-092111,2,C22,prep,1611,1611,0,351699.091,0.687,-0.680,0.184,0.180,0,0,0,0,0,0,0,0,0,0.000,0,0,0.049,0.007,0.020,-0.040,0.020,0.014,0.995,0.012,-0.004,-0.006,0.006,0.000,0.000,0.000,0.000,0,0,0,0,7,255,0,250,0,0,-89.583,0.507,-29.807
EX0521-092111,2,C22,prep,1611,1611,0,351704.093,0.687,-0.680,0.184,0.180,0,0,0,0,0,0,0,0,0,0.000,0,0,0.049,0.006,0.020,-0.040,0.020,0.015,0.995,0.011,-0.004,-0.004,0.006,0.000,0.000,0.000,0.000,0,0,0,0,7,255,0,250,0,0,-89.583,0.508,-29.807
EX0521-092111,2,C22,prep,1611,1611,0,351709.092,0.687,-0.680,0.184,0.180,0,0,0,0,0,0,0,0,0,0.000,0,0,0.066,0.006,0.020,-0.060,0.020,0.015,0.992,0.012,-0.004,-0.004,0.000,0.000,0.000,0.000,0.000,0,0,0,0,7,255,0,250,0,0,-89.579,0.508,-29.807
EX0521-092111,2,C22,prep,1611,1611,0,351714.091,0.687,-0.680,0.184,0.180,0,0,0,0,0,0,0,0,0,0.000,0,0,0.060,0.004,0.020,-0.040,-0.040,0.014,0.993,0.012,-0.004,0.000,-0.014,0.000,0.000,0.000,0.000,0,0,0,0,7,255,0,250,0,0,-89.580,0.508,-29.807
EX0521-092111,2,C22,prep,1611,1611,0,351719.093,0.687,-0.680,0.184,0.180,0,0,0,0,0,0,0,0,0,0.000,0,0,0.049,0.004,0.020,-0.040,0.020,0.014,0.993,0.011,-0.004,0.000,-0.014,0.000,0.000,0.000,0.000,0,0,0,0,7,255,0,250,0,0,-89.581,0.508,-29.807
EX0521-092111,2,C22,prep,1611,1611,0,351724.092,0.687,-0.680,0.184,0.180,0,0,0,0,0,0,0,0,0,0.000,0,0,0.104,0.004,0.020,-0.100,0.020,0.015,0.994,0.012,-0.004,0.000,-0.014,0.000,0.000,0.000,0.000,0,0,0,0,7,255,0,250,0,0,-89.581,0.508,-29.807
EX0521-092111,2,C22,prep,1612,1612,0,351729.092,0.687,-0.680,0.184,0.180,0,0,0,0,0,0,0,0,0,0.000,0,0,0.049,0.003,0.020,-0.040,0.020,0.015,0.995,0.012,-0.002,-0.002,-0.004,0.000,0.000,0.000,0.000,0,0,0,0,7,255,0,250,0,0,-89.582,0.508,-29.807
EX0521-092111,2,C22,prep,1612,1612,0,351734.091,0.687,-0.680,0.184,0.180,0,0,0,0,0,0,0,0,0,0.000,0,0,0.060,0.003,0.020,-0.040,-0.040,0.015,0.995,0.010,-0.002,-0.002,0.002,0.000,0.000,0.000,0.000,0,0,0,0,7,255,0,250,0,0,-89.582,0.508,-29.807
EX0521-092111,2,C22,prep,1612,1612,0,351739.092,0.687,-0.680,0.184,0.179,0,0,0,0,0,0,0,0,0,0.000,0,0,0.069,0.008,-0.040,-0.040,-0.040,0.016,0.994,0.011,0.008,-0.002,0.002,0.000,0.000,0.000,0.000,0,0,0,0,7,255,0,250,0,0,-89.583,0.509,-29.807
EX0521-092111,2,C22,prep,1612,1612,0,351744.092,0.687,-0.680,0.184,0.179,0,0,0,0,0,0,0,0,0,0.000,0,0,0.060,0.008,0.020,-0.040,-0.040,0.015,0.995,0.011,0.008,0.002,0.002,0.000,0.000,0.000,0.000,0,0,0,0,7,255,0,250,0,0,-89.584,0.509,-29.807
EX0521-092111,2,C22,prep,1643,1643,0,351749.091,0.687,-0.680,0.184,0.179,0,0,0,0,0,0,0,0,0,0.000,0,0,0.060,0.003,0.020,-0.040,-0.040,0.015,0.995,0.012,0.002,-0.002,0.002,0.000,0.000,0.000,0.000,0,0,0,0,7,255,0,250,0,0,-89.584,0.509,-29.807
EX0521-092111,2,C22,prep,1643,1643,0,351754.091,0.687,-0.680,0.184,0.179,0,0,0,0,0,0,0,0,0,0.000,0,0,0.035,0.002,0.020,0.020,0.020,0.015,0.995,0.011,0.000,0.002,0.002,0.000,0.000,0.000,0.000,0,0,0,0,7,255,0,250,0,0,-89.585,0.509,-29.807
EX0521-092111,2,C22,prep,1643,1643,0,351759.092,0.687,-0.680,0.184,0.179,0,0,0,0,0,0,0,0,0,0.000,0,0,0.092,0.002,0.020,-0.040,0.080,0.014,0.994,0.011,0.000,0.002,0.002,0.000,0.000,0.000,0.000,0,0,0,0,7,255,0,250,0,0,-89.586,0.510,-29.807
EX0521-092111,2,C22,prep,1643,1643,0,351764.092,0.687,-0.680,0.184,0.179,0,0,0,0,0,0,0,0,0,0.000,0,0,0.049,0.002,-0.040,0.020,0.020,0.015,0.995,0.011,0.000,0.002,0.002,0.000,0.000,0.000,0.000,0,0,0,0,7,255,0,250,0,0,-89.586,0.510,-29.807
EX0521-092111,2,C22,prep,1676,1676,0,351769.093,0.687,-0.680,0.184,0.180,0,0,0,0,0,0,0,0,0,0.000,0,0,0.069,0.003,-0.040,-0.040,-0.040,0.014,0.996,0.012,-0.002,0.002,0.002,0.000,0.000,0.000,0.000,0,0,0,0,7,255,0,250,0,0,-89.582,0.508,-29.807
EX0521-092111,2,C22,prep,1676,1676,0,351774.091,0.687,-0.680,0.184,0.180,0,0,0,0,0,0,0,0,0,0.000,0,0,0.049,0.003,0.020,-0.040,0.020,0.015,0.995,0.013,-0.002,-0.002,0.002,0.000,0.000,0.000,0.000,0,0,0,0,7,255,0,250,0,0,-89.578,0.509,-29.807
EX0521-092111,2,C22,prep,1676,1676,0,351779.092,0.687,-0.680,0.184,0.180,0,0,0,0,0,0,0,0,0,0.000,0,0,0.069,0.003,-0.040,-0.040,-0.040,0.015,0.994,0.011,-0.002,-0.002,0.002,0.000,0.000,0.000,0.000,0,0,0,0,7,255,0,250,0,0,-89.578,0.509,-29.807
EX0521-092111,2,C22,prep,1676,1676,0,351784.092,0.687,-0.680,0.184,0.180,0,0,0,0,0,0,0,0,0,0.000,0,0,0.060,0.004,-0.040,-0.040,0.020,0.014,0.994,0.010,0.000,0.004,-0.008,0.000,0.000,0.000,0.000,0,0,0,0,7,255,0,250,0,0,-89.579,0.509,-29.807
EX0521-092111,2,C22,prep,1676,1676,0,351789.091,0.687,-0.680,0.184,0.180,0,0,0,0,0,0,0,0,0,0.000,0,0,0.069,0.008,-0.040,-0.040,-0.040,0.014,0.994,0.011,0.000,0.008,-0.008,0.000,0.000,0.000,0.000,0,0,0,0,7,255,0,250,0,0,-89.580,0.509,-29.807
EX0521-092111,2,C22,prep,1676,1676,0,351794.092,0.687,-0.680,0.184,0.180,0,0,0,0,0,0,0,0,0,0.000,0,0,0.060,0.008,0.020,-0.040,-0.040,0.015,0.994,0.011,0.000,0.008,-0.004,0.000,0.000,0.000,0.000,0,0,0,0,7,255,0,250,0,0,-89.580,0.509,-29.807
EX0521-092111,2,C22,prep,1704,1704,0,351799.092,0.687,-0.680,0.184,0.180,0,0,0,0,0,0,0,0,0,0.000,0,0,0.060,0.006,-0.040,-0.040,0.020,0.014,0.995,0.011,-0.002,0.006,-0.004,0.000,0.000,0.000,0.000,0,0,0,0,7,255,0,250,0,0,-89.581,0.508,-29.807
EX0521-092111,2,C22,prep,1704,1704,0,351804.092,0.687,-0.680,0.184,0.180,0,0,0,0,0,0,0,0,0,0.000,0,0,0.069,0.006,-0.040,-0.040,-0.040,0.015,0.995,0.011,0.000,0.006,0.002,0.000,0.000,0.000,0.000,0,0,0,0,7,255,0,250,0,0,-89.581,0.508,-29.807
EX0521-092111,2,C22,prep,1704,1704,0,351809.091,0.687,-0.680,0.184,0.180,0,0,0,0,0,0,0,0,0,0.000,0,0,0.049,0.002,0.020,-0.040,0.020,0.016,0.995,0.011,0.000,0.002,0.002,0.000,0.000,0.000,0.000,0,0,0,0,7,255,0,250,0,0,-89.582,0.508,-29.807
EX0521-092111,2,C22,prep,1704,1704,0,351814.093,0.687,-0.680,0.184,0.180,0,0,0,0,0,0,0,0,0,0.000,0,0,0.049,0.002,0.020,-0.040,0.020,0.015,0.995,0.012,0.000,-0.002,0.002,0.000,0.000,0.000,0.000,0,0,0,0,7,255,0,250,0,0,-89.583,0.508,-29.807
EX0521-092111,2,C22,prep,1704,1704,0,351819.092,0.687,-0.680,0.184,0.179,0,0,0,0,0,0,0,0,0,0.000,0,0,0.098,0.002,0.080,-0.040,-0.040,0.015,0.995,0.011,0.000,-0.002,0.002,0.000,0.000,0.000,0.000,0,0,0,0,7,255,0,250,0,0,-89.583,0.509,-29.807
EX0521-092111,2,C22,prep,1704,1704,0,351824.091,0.687,-0.680,0.184,0.180,0,0,0,0,0,0,0,0,0,0.000,0,0,0.060,0.006,0.020,-0.040,-0.040,0.015,0.993,0.012,0.000,-0.006,0.002,0.000,0.000,0.000,0.000,0,0,0,0,7,255,0,250,0,0,-89.579,0.509,-29.807
EX0521-092111,2,C22,prep,1711,1711,0,351829.091,0.687,-0.680,0.184,0.180,0,0,0,0,0,0,0,0,0,0.000,0,0,0.092,0.002,0.080,-0.040,0.020,0.015,0.995,0.011,0.000,0.002,0.002,0.000,0.000,0.000,0.000,0,0,0,0,7,255,0,250,0,0,-89.580,0.509,-29.807
EX0521-092111,2,C22,prep,1711,1711,0,351834.092,0.687,-0.680,0.184,0.180,0,0,0,0,0,0,0,0,0,0.000,0,0,0.060,0.008,0.020,-0.040,-0.040,0.016,0.995,0.013,0.002,-0.008,0.002,0.000,0.000,0.000,0.000,0,0,0,0,7,255,0,250,0,0,-89.576,0.509,-29.807
EX0521-092111,2,C22,prep,1727,1727,0,351839.092,0.687,-0.680,0.184,0.180,0,0,0,0,0,0,0,0,0,0.000,0,0,0.049,0.006,0.020,-0.040,0.020,0.015,0.995,0.010,0.002,0.006,0.002,0.000,0.000,0.000,0.000,0,0,0,0,7,255,0,250,0,0,-89.576,0.510,-29.807
EX0521-092111,2,C22,prep,1727,1727,0,351844.092,0.687,-0.680,0.184,0.180,0,0,0,0,0,0,0,0,0,0.000,0,0,0.130,0.006,0.080,-0.100,0.020,0.015,0.994,0.012,0.002,-0.006,0.002,0.000,0.000,0.000,0.000,0,0,0,0,7,255,0,250,0,0,-89.577,0.510,-29.807
EX0521-092111,2,C22,prep,1727,1727,0,351849.092,0.687,-0.680,0.184,0.179,0,0,0,0,0,0,0,0,0,0.000,0,0,0.049,0.007,0.020,-0.040,0.020,0.015,0.994,0.012,-0.004,-0.006,-0.004,0.000,0.000,0.000,0.000,0,0,0,0,7,255,0,250,0,0,-89.578,0.510,-29.807
