experiment_id,condition_order_index,condition_id,condition_phase,condition_phase_elapsed_ms,condition_elapsed_ms,is_stimulation_on,t_ms,R_q0,R_q1,R_q2,R_q3,R_heel1,R_mid1,R_fore1,R_heel2,R_fore3,R_mid2,R_fore4,R_fore2,R_cadence,R_speed,R_steps,R_zupt,R_gyroNorm,R_accH,R_gyro_x,R_gyro_y,R_gyro_z,R_acc_x,R_acc_y,R_acc_z,R_nav_ax,R_nav_ay,R_nav_az,R_stepVel,R_stepVelj,R_stepDispRaw,R_stepDispZUPT,R_gaitEvent,R_motorMode,R_motorActive,R_motorAlignment,R_motorRegionMask,R_motorAmplitude,R_motorIntervalMs,R_motorDurationMs,R_motorPhaseMs,R_motorCycleMs,R_roll,R_pitch,R_yaw
EX0521-092111,5,C09,prep,60,60,0,454929.092,0.685,-0.677,0.193,0.187,0,0,0,0,0,0,0,0,0,0.000,0,0,2.137,0.014,1.880,0.180,-1.000,0.015,0.990,0.010,0.010,0.010,-0.048,0.000,0.000,0.000,0.000,0,2,0,3,7,255,1440,250,0,0,-89.534,0.578,-31.154
EX0521-092111,5,C09,prep,60,60,0,454934.092,0.685,-0.677,0.193,0.187,0,0,0,0,0,0,0,0,0,0.000,0,0,2.212,0.015,-1.960,-0.360,0.960,0.014,0.993,0.010,0.006,0.014,-0.018,0.000,0.000,0.000,0.000,0,2,0,3,7,255,1440,250,0,0,-89.524,0.583,-31.154
EX0521-092111,5,C09,prep,60,60,0,454939.091,0.685,-0.677,0.193,0.187,0,0,0,0,0,0,0,0,0,0.000,0,0,2.110,0.015,1.880,0.180,-0.940,0.013,1.006,0.011,0.006,0.014,-0.018,0.000,0.000,0.000,0.000,0,2,0,3,7,255,1440,250,0,0,-89.534,0.578,-31.154
EX0521-092111,5,C09,prep,60,60,0,454944.091,0.685,-0.677,0.193,0.187,0,0,0,0,0,0,0,0,0,0.000,0,0,1.904,0.015,-1.720,-0.240,0.780,0.017,0.983,0.014,0.006,0.014,-0.018,0.000,0.000,0.000,0.000,0,2,0,3,7,255,1440,250,0,0,-89.524,0.582,-31.154
EX0521-092111,5,C09,prep,61,61,0,454949.092,0.685,-0.677,0.193,0.187,0,0,0,0,0,0,0,0,0,0.000,0,0,0.974,0.014,0.920,0.000,-0.320,0.015,1.004,0.010,0.008,0.012,0.090,0.000,0.000,0.000,0.000,0,2,0,3,7,255,1440,250,0,0,-89.529,0.582,-31.154
EX0521-092111,5,C09,prep,61,61,0,454954.092,0.685,-0.677,0.193,0.187,0,0,0,0,0,0,0,0,0,0.000,0,0,0.197,0.012,-0.180,0.000,-0.080,0.016,0.992,0.011,0.012,-0.002,-0.028,0.000,0.000,0.000,0.000,0,2,0,3,7,255,1440,250,0,0,-89.529,0.583,-31.154
EX0521-092111,5,C09,prep,62,62,0,454959.094,0.685,-0.677,0.193,0.187,0,0,0,0,0,0,0,0,0,0.000,0,0,0.804,0.008,-0.620,-0.180,0.480,0.016,0.988,0.015,0.008,-0.002,-0.028,0.000,0.000,0.000,0.000,0,2,0,3,7,255,1440,250,0,0,-89.521,0.584,-31.154
EX0521-092111,5,C09,prep,62,62,0,454964.092,0.685,-0.677,0.193,0.187,0,0,0,0,0,0,0,0,0,0.000,0,0,1.756,0.012,1.520,0.180,-0.860,0.014,1.005,0.008,0.012,-0.002,-0.028,0.000,0.000,0.000,0.000,0,2,0,3,7,255,1440,250,0,0,-89.529,0.580,-31.154
EX0521-092111,5,C09,prep,63,63,0,454969.092,0.685,-0.677,0.193,0.187,0,0,0,0,0,0,0,0,0,0.000,0,0,2.124,0.030,-1.900,-0.300,0.900,0.016,0.986,0.015,-0.004,-0.030,-0.066,0.000,0.000,0.000,0.000,0,2,0,3,7,255,1440,250,0,0,-89.517,0.585,-31.154
EX0521-092111,5,C09,prep,63,63,0,454974.092,0.685,-0.677,0.193,0.187,0,0,0,0,0,0,0,0,0,0.000,0,0,1.222,0.016,1.160,0.060,-0.380,0.014,0.999,0.010,0.004,0.016,0.044,0.000,0.000,0.000,0.000,0,2,0,3,7,255,1440,250,0,0,-89.523,0.584,-31.154
EX0521-092111,5,C09,prep,63,63,0,454979.093,0.685,-0.677,0.193,0.187,0,0,0,0,0,0,0,0,0,0.000,0,0,0.278,0.016,-0.240,0.000,-0.140,0.014,0.996,0.008,0.004,0.016,0.014,0.000,0.000,0.000,0.000,0,2,0,3,7,255,1440,250,0,0,-89.524,0.584,-31.154
EX0521-092111,5,C09,prep,63,63,0,454984.091,0.685,-0.677,0.193,0.187,0,0,0,0,0,0,0,0,0,0.000,0,0,1.132,0.016,-0.980,-0.300,0.480,0.014,0.990,0.015,0.004,0.016,0.014,0.000,0.000,0.000,0.000,0,2,0,3,7,255,1440,250,0,0,-89.517,0.584,-31.154
EX0521-092111,5,C09,prep,88,88,0,454989.091,0.685,-0.677,0.193,0.187,0,0,0,0,0,0,0,0,0,0.000,0,0,2.176,0.020,2.020,0.120,-0.800,0.015,0.997,0.010,0.014,0.014,0.014,0.000,0.000,0.000,0.000,0,2,0,3,7,255,1440,250,0,0,-89.528,0.579,-31.154
EX0521-092111,5,C09,prep,88,88,0,454994.092,0.685,-0.677,0.193,0.187,0,0,0,0,0,0,0,0,0,0.000,0,0,1.843,0.021,-1.720,-0.060,0.660,0.015,0.995,0.007,0.016,0.014,0.000,0.000,0.000,0.000,0.000,0,2,0,3,7,255,1440,250,0,0,-89.519,0.583,-31.154
EX0521-092111,5,C09,prep,89,89,0,454999.092,0.685,-0.677,0.193,0.187,0,0,0,0,0,0,0,0,0,0.000,0,0,0.231,0.021,-0.180,-0.120,-0.080,0.015,0.995,0.015,0.016,0.014,0.006,0.000,0.000,0.000,0.000,0,2,0,3,7,255,1440,250,0,0,-89.513,0.583,-31.154
EX0521-092111,5,C09,prep,89,89,0,455004.091,0.685,-0.677,0.193,0.187,0,0,0,0,0,0,0,0,0,0.000,0,0,1.510,0.016,1.460,-0.060,-0.380,0.016,0.991,0.012,0.012,-0.010,0.000,0.000,0.000,0.000,0.000,0,2,0,3,7,255,1440,250,0,0,-89.521,0.583,-31.154
EX0521-092111,5,C09,prep,89,89,0,455009.091,0.685,-0.677,0.193,0.187,0,0,0,0,0,0,0,0,0,0.000,0,0,0.735,0.016,-0.680,0.000,0.280,0.013,1.001,0.006,0.012,-0.010,0.006,0.000,0.000,0.000,0.000,0,2,0,3,7,255,1440,250,0,0,-89.518,0.583,-31.154
EX0521-092111,5,C09,prep,89,89,0,455014.092,0.685,-0.677,0.193,0.187,0,0,0,0,0,0,0,0,0,0.000,0,0,0.801,0.016,-0.800,0.000,0.040,0.014,0.994,0.015,0.012,-0.010,-0.010,0.000,0.000,0.000,0.000,0,2,0,3,7,255,1440,250,0,0,-89.509,0.582,-31.154
EX0521-092111,5,C09,prep,95,95,0,455019.093,0.685,-0.677,0.193,0.187,0,0,0,0,0,0,0,0,0,0.000,0,0,0.570,0.017,0.540,-0.180,-0.020,0.016,0.988,0.013,0.010,-0.014,-0.010,0.000,0.000,0.000,0.000,0,2,0,3,7,255,1440,250,0,0,-89.509,0.584,-31.154
EX0521-092111,5,C09,prep,95,95,0,455024.092,0.685,-0.677,0.193,0.187,0,0,0,0,0,0,0,0,0,0.000,0,0,1.412,0.017,1.340,-0.060,-0.440,0.014,1.001,0.005,0.010,-0.014,-0.010,0.000,0.000,0.000,0.000,0,2,0,3,7,255,1440,250,0,0,-89.516,0.583,-31.154
EX0521-092111,5,C09,prep,117,117,0,455029.091,0.685,-0.677,0.193,0.187,0,0,0,0,0,0,0,0,0,0.000,0,0,2.165,0.012,-2.080,0.000,0.600,0.015,0.990,0.011,0.010,0.006,-0.044,0.000,0.000,0.000,0.000,0,2,0,3,7,255,1440,250,0,0,-89.506,0.586,-31.154
EX0521-092111,5,C09,prep,117,117,0,455034.091,0.685,-0.677,0.193,0.187,0,0,0,0,0,0,0,0,0,0.000,0,0,0.236,0.008,0.180,-0.060,-0.140,0.014,0.995,0.016,0.006,0.006,0.000,0.000,0.000,0.000,0.000,0,2,0,3,7,255,1440,250,0,0,-89.500,0.586,-31.154
EX0521-092111,5,C09,prep,118,118,0,455039.092,0.685,-0.677,0.193,0.187,0,0,0,0,0,0,0,0,0,0.000,0,0,1.278,0.008,1.220,0.000,-0.380,0.014,0.995,0.009,0.006,0.006,0.000,0.000,0.000,0.000,0.000,0,2,0,3,7,255,1440,250,0,0,-89.506,0.585,-31.154
EX0521-092111,5,C09,prep,118,118,0,455044.092,0.685,-0.677,0.193,0.187,0,0,0,0,0,0,0,0,0,0.000,0,0,1.035,0.029,-0.980,-0.180,0.280,0.013,0.998,0.007,0.012,0.026,0.000,0.000,0.000,0.000,0.000,0,2,0,3,7,255,1440,250,0,0,-89.502,0.585,-31.154
EX0521-092111,5,C09,prep,127,127,0,455049.091,0.685,-0.677,0.193,0.187,0,0,0,0,0,0,0,0,0,0.000,0,0,0.271,0.029,-0.240,-0.120,0.040,0.014,0.994,0.015,0.012,0.026,0.000,0.000,0.000,0.000,0.000,0,2,0,3,7,255,1440,250,0,0,-89.496,0.585,-31.154
EX0521-092111,5,C09,prep,127,127,0,455054.091,0.685,-0.677,0.193,0.187,0,0,0,0,0,0,0,0,0,0.000,0,0,0.733,0.008,0.720,0.000,-0.140,0.015,0.992,0.012,0.008,0.000,-0.010,0.000,0.000,0.000,0.000,0,2,0,3,7,255,1440,250,0,0,-89.500,0.586,-31.154
EX0521-092111,5,C09,prep,187,187,0,455059.092,0.685,-0.677,0.193,0.187,0,0,0,0,0,0,0,0,0,0.000,0,0,0.087,0.008,-0.060,0.060,-0.020,0.014,1.000,0.007,0.008,0.000,-0.010,0.000,0.000,0.000,0.000,0,2,0,3,7,255,1440,250,0,0,-89.501,0.586,-31.154
EX0521-092111,5,C09,prep,187,187,0,455064.092,0.685,-0.677,0.193,0.187,0,0,0,0,0,0,0,0,0,0.000,0,0,0.818,0.008,-0.800,-0.060,0.160,0.014,0.991,0.014,0.008,0.000,-0.028,0.000,0.000,0.000,0.000,0,2,0,3,7,255,1440,250,0,0,-89.495,0.585,-31.154
EX0521-092111,5,C09,prep,187,187,0,455069.093,0.685,-0.677,0.193,0.187,0,0,0,0,0,0,0,0,0,0.000,0,0,0.546,0.012,0.540,0.000,-0.080,0.013,0.995,0.012,-0.010,0.006,0.000,0.000,0.000,0.000,0.000,0,2,0,3,7,255,1440,250,0,0,-89.496,0.585,-31.154
EX0521-092111,5,C09,prep,187,187,0,455074.091,0.685,-0.677,0.193,0.187,0,0,0,0,0,0,0,0,0,0.000,0,0,0.588,0.012,0.540,-0.120,-0.200,0.014,0.997,0.007,-0.010,0.006,0.000,0.000,0.000,0.000,0.000,0,2,0,3,7,255,1440,250,0,0,-89.496,0.585,-31.154
EX0521-092111,5,C09,prep,187,187,0,455079.094,0.685,-0.677,0.193,0.187,0,0,0,0,0,0,0,0,0,0.000,0,0,1.084,0.010,-1.040,-0.120,0.280,0.014,0.993,0.013,-0.008,0.006,0.000,0.000,0.000,0.000,0.000,0,2,0,3,7,255,1440,250,0,0,-89.491,0.585,-31.154
EX0521-092111,5,C09,prep,187,187,0,455084.092,0.685,-0.677,0.193,0.187,0,0,0,0,0,0,0,0,0,0.000,0,0,0.331,0.008,0.300,0.000,-0.140,0.015,0.994,0.014,-0.006,-0.006,-0.010,0.000,0.000,0.000,0.000,0,2,0,3,7,255,1440,250,0,0,-89.491,0.584,-31.154
EX0521-092111,5,C09,prep,187,187,0,455089.092,0.685,-0.677,0.193,0.187,0,0,0,0,0,0,0,0,0,0.000,0,0,0.616,0.008,0.600,0.000,-0.140,0.015,0.994,0.009,-0.006,-0.006,-0.010,0.000,0.000,0.000,0.000,0,2,0,3,7,255,1440,250,0,0,-89.495,0.584,-31.154
EX0521-092111,5,C09,prep,187,187,0,455094.091,0.685,-0.677,0.193,0.187,0,0,0,0,0,0,0,0,0,0.000,0,0,0.825,0.020,-0.800,-0.120,0.160,0.014,0.997,0.010,0.008,0.018,-0.006,0.000,0.000,0.000,0.000,0,2,0,3,7,255,1440,250,0,0,-89.491,0.584,-31.154
EX0521-092111,5,C09,prep,188,188,0,455099.091,0.685,-0.677,0.193,0.187,0,0,0,0,0,0,0,0,0,0.000,0,0,0.100,0.020,0.000,-0.060,-0.080,0.015,0.993,0.014,0.008,0.018,-0.006,0.000,0.000,0.000,0.000,0,2,0,3,7,255,1440,250,0,0,-89.487,0.583,-31.154
EX0521-092111,5,C09,prep,188,188,0,455104.093,0.685,-0.677,0.193,0.187,0,0,0,0,0,0,0,0,0,0.000,0,0,0.490,0.020,0.480,-0.060,-0.080,0.015,0.995,0.010,0.008,0.018,0.004,0.000,0.000,0.000,0.000,0,2,0,3,7,255,1440,250,0,0,-89.487,0.585,-31.154
EX0521-092111,5,C09,prep,189,189,0,455109.092,0.685,-0.677,0.193,0.187,0,0,0,0,0,0,0,0,0,0.000,0,0,0.191,0.023,-0.180,-0.060,-0.020,0.014,0.997,0.009,0.014,0.018,0.004,0.000,0.000,0.000,0.000,0,2,0,3,7,255,1440,250,0,0,-89.487,0.584,-31.154
EX0521-092111,5,C09,prep,189,189,0,455114.091,0.685,-0.677,0.193,0.187,0,0,0,0,0,0,0,0,0,0.000,0,0,0.326,0.023,-0.300,-0.120,0.040,0.016,0.991,0.013,0.014,0.018,0.004,0.000,0.000,0.000,0.000,0,2,0,3,7,255,1440,250,0,0,-89.488,0.586,-31.154
EX0521-092111,5,C09,prep,223,223,0,455119.092,0.685,-0.677,0.193,0.187,0,0,0,0,0,0,0,0,0,0.000,0,0,0.432,0.018,0.420,-0.060,-0.080,0.014,0.995,0.011,0.008,0.016,0.000,0.000,0.000,0.000,0.000,0,2,0,3,7,255,1440,250,0,0,-89.488,0.585,-31.154
EX0521-092111,5,C09,prep,223,223,0,455124.092,0.685,-0.677,0.193,0.187,0,0,0,0,0,0,0,0,0,0.000,0,0,0.117,0.018,0.060,-0.060,-0.080,0.014,0.996,0.008,0.008,0.016,0.000,0.000,0.000,0.000,0.000,0,2,0,3,7,255,1440,250,0,0,-89.488,0.585,-31.154
EX0521-092111,5,C09,prep,223,223,0,455129.092,0.685,-0.677,0.193,0.187,0,0,0,0,0,0,0,0,0,0.000,0,0,0.581,0.016,-0.560,-0.120,0.100,0.015,0.992,0.012,0.004,0.016,0.000,0.000,0.000,0.000,0.000,0,2,0,3,7,255,1440,250,0,0,-89.488,0.585,-31.154
EX0521-092111,5,C09,prep,223,223,0,455134.092,0.685,-0.677,0.193,0.187,0,0,0,0,0,0,0,0,0,0.000,0,0,0.391,0.004,0.360,-0.060,-0.140,0.015,0.995,0.012,0.004,0.002,0.000,0.000,0.000,0.000,0.000,0,2,0,3,7,255,1440,250,0,0,-89.489,0.584,-31.154
EX0521-092111,5,C09,prep,223,223,0,455139.091,0.685,-0.677,0.193,0.187,0,0,0,0,0,0,0,0,0,0.000,0,0,0.253,0.004,0.240,0.000,-0.080,0.014,0.996,0.009,0.004,0.002,0.000,0.000,0.000,0.000,0.000,0,2,0,3,7,255,1440,250,0,0,-89.489,0.584,-31.154
EX0521-092111,5,C09,prep,223,223,0,455144.091,0.685,-0.677,0.193,0.187,0,0,0,0,0,0,0,0,0,0.000,0,0,0.524,0.004,-0.500,-0.120,0.100,0.014,0.995,0.012,0.004,0.002,0.004,0.000,0.000,0.000,0.000,0,2,0,3,7,255,1440,250,0,0,-89.489,0.584,-31.154
EX0521-092111,5,C09,prep,248,248,0,455149.092,0.685,-0.677,0.193,0.187,0,0,0,0,0,0,0,0,0,0.000,0,0,0.206,0.008,0.180,-0.060,-0.080,0.016,0.994,0.012,0.008,0.000,0.004,0.000,0.000,0.000,0.000,0,2,0,3,7,255,1440,250,0,0,-89.490,0.585,-31.154
EX0521-092111,5,C09,prep,248,248,0,455154.092,0.685,-0.677,0.193,0.187,0,0,0,0,0,0,0,0,0,0.000,0,0,0.248,0.006,0.240,0.060,-0.020,0.014,0.994,0.010,0.006,0.000,-0.004,0.000,0.000,0.000,0.000,0,2,0,3,7,255,1440,250,0,0,-89.490,0.585,-31.154
EX0521-092111,5,C09,prep,248,248,0,455159.093,0.685,-0.677,0.193,0.187,0,0,0,0,0,0,0,0,0,0.000,0,0,0.307,0.013,-0.300,-0.060,-0.020,0.014,0.997,0.011,0.006,0.012,-0.004,0.000,0.000,0.000,0.000,0,2,0,3,7,255,1440,250,0,0,-89.490,0.585,-31.154
EX0521-092111,5,C09,prep,248,248,0,455164.091,0.685,-0.677,0.193,0.187,0,0,0,0,0,0,0,0,0,0.000,0,0,0.087,0.013,-0.060,-0.060,-0.020,0.015,0.994,0.013,0.004,0.012,-0.004,0.000,0.000,0.000,0.000,0,2,0,3,7,255,1440,250,0,0,-89.491,0.586,-31.154
EX0521-092111,5,C09,prep,271,271,0,455169.091,0.685,-0.677,0.193,0.187,0,0,0,0,0,0,0,0,0,0.000,0,0,0.369,0.008,0.360,0.000,-0.080,0.014,0.996,0.011,0.002,0.008,0.010,0.000,0.000,0.000,0.000,0,2,0,3,7,255,1440,250,0,0,-89.491,0.585,-31.154
EX0521-092111,5,C09,prep,271,271,0,455174.092,0.685,-0.677,0.193,0.187,0,0,0,0,0,0,0,0,0,0.000,0,0,0.156,0.008,-0.120,-0.060,-0.080,0.015,0.996,0.010,0.002,0.008,0.010,0.000,0.000,0.000,0.000,0,2,0,3,7,255,1440,250,0,0,-89.491,0.585,-31.154
EX0521-092111,5,C09,prep,271,271,0,455179.093,0.685,-0.677,0.193,0.187,0,0,0,0,0,0,0,0,0,0.000,0,0,0.271,0.008,-0.240,-0.120,0.040,0.014,0.993,0.012,0.002,0.008,0.010,0.000,0.000,0.000,0.000,0,2,0,3,7,255,1440,250,0,0,-89.491,0.585,-31.154
EX0521-092111,5,C09,prep,271,271,0,455184.091,0.685,-0.677,0.193,0.187,0,0,0,0,0,0,0,0,0,0.000,0,0,0.432,0.010,0.420,-0.060,-0.080,0.014,0.996,0.011,-0.002,0.010,0.010,0.000,0.000,0.000,0.000,0,2,0,3,7,255,1440,250,0,0,-89.492,0.585,-31.154
EX0521-092111,5,C09,prep,271,271,0,455189.091,0.685,-0.677,0.193,0.187,0,0,0,0,0,0,0,0,0,0.000,0,0,0.080,0.010,0.000,0.000,-0.080,0.015,0.996,0.011,-0.002,0.010,0.010,0.000,0.000,0.000,0.000,0,2,0,3,7,255,1440,250,0,0,-89.492,0.584,-31.154
EX0521-092111,5,C09,prep,271,271,0,455194.092,0.685,-0.677,0.193,0.187,0,0,0,0,0,0,0,0,0,0.000,0,0,0.367,0.011,-0.360,-0.060,0.040,0.015,0.994,0.012,0.004,0.010,0.010,0.000,0.000,0.000,0.000,0,2,0,3,7,255,1440,250,0,0,-89.492,0.585,-31.154
EX0521-092111,5,C09,prep,287,287,0,455199.092,0.685,-0.677,0.193,0.187,0,0,0,0,0,0,0,0,0,0.000,0,0,0.260,0.004,0.240,-0.060,-0.080,0.015,0.992,0.012,0.004,-0.002,-0.010,0.000,0.000,0.000,0.000,0,2,0,3,7,255,1440,250,0,0,-89.493,0.585,-31.154
EX0521-092111,5,C09,prep,287,287,0,455204.091,0.685,-0.677,0.193,0.187,0,0,0,0,0,0,0,0,0,0.000,0,0,0.087,0.004,0.060,-0.060,-0.020,0.016,0.995,0.010,0.004,-0.002,-0.010,0.000,0.000,0.000,0.000,0,2,0,3,7,255,1440,250,0,0,-89.493,0.586,-31.154
EX0521-092111,5,C09,prep,287,287,0,455209.091,0.685,-0.677,0.193,0.187,0,0,0,0,0,0,0,0,0,0.000,0,0,0.326,0.000,-0.300,-0.120,0.040,0.014,0.994,0.012,0.000,0.000,-0.004,0.000,0.000,0.000,0.000,0,2,0,3,7,255,1440,250,0,0,-89.493,0.586,-31.154
EX0521-092111,5,C09,prep,287,287,0,455214.092,0.685,-0.677,0.193,0.187,0,0,0,0,0,0,0,0,0,0.000,0,0,0.206,0.002,0.180,-0.060,-0.080,0.015,0.994,0.013,-0.002,0.000,-0.004,0.000,0.000,0.000,0.000,0,2,0,3,7,255,1440,250,0,0,-89.494,0.586,-31.154
EX0521-092111,5,C09,prep,303,303,0,455219.092,0.685,-0.677,0.193,0.187,0,0,0,0,0,0,0,0,0,0.000,0,0,0.253,0.002,0.240,0.000,-0.080,0.015,0.994,0.011,-0.002,0.000,-0.004,0.000,0.000,0.000,0.000,0,2,0,3,7,255,1440,250,0,0,-89.494,0.587,-31.154
EX0521-092111,5,C09,prep,303,303,0,455224.092,0.685,-0.677,0.193,0.187,0,0,0,0,0,0,0,0,0,0.000,0,0,0.251,0.003,-0.240,-0.060,0.040,0.015,0.996,0.012,0.002,0.002,-0.004,0.000,0.000,0.000,0.000,0,2,0,3,7,255,1440,250,0,0,-89.494,0.587,-31.154
EX0521-092111,5,C09,prep,303,303,0,455229.091,0.685,-0.677,0.193,0.187,0,0,0,0,0,0,0,0,0,0.000,0,0,0.087,0.004,-0.060,-0.060,-0.020,0.015,0.995,0.012,0.004,0.002,0.006,0.000,0.000,0.000,0.000,0,2,0,3,7,255,1440,250,0,0,-89.494,0.586,-31.154
EX0521-092111,5,C09,prep,303,303,0,455234.091,0.685,-0.677,0.193,0.187,0,0,0,0,0,0,0,0,0,0.000,0,0,0.280,0.004,0.240,-0.120,-0.080,0.014,0.995,0.011,0.004,0.002,0.006,0.000,0.000,0.000,0.000,0,2,0,3,7,255,1440,250,0,0,-89.495,0.586,-31.154
EX0521-092111,5,C09,prep,319,319,0,455239.092,0.685,-0.677,0.193,0.187,0,0,0,0,0,0,0,0,0,0.000,0,0,0.171,0.013,-0.120,-0.120,-0.020,0.014,0.994,0.010,0.004,0.012,0.000,0.000,0.000,0.000,0.000,0,2,0,3,7,255,1440,250,0,0,-89.495,0.586,-31.154
EX0521-092111,5,C09,prep,319,319,0,455244.092,0.685,-0.677,0.193,0.187,0,0,0,0,0,0,0,0,0,0.000,0,0,0.174,0.013,-0.120,-0.120,0.040,0.014,0.994,0.011,0.004,0.012,-0.004,0.000,0.000,0.000,0.000,0,2,0,3,7,255,1440,250,0,0,-89.495,0.585,-31.154
EX0521-092111,5,C09,prep,335,335,0,455249.091,0.685,-0.677,0.193,0.187,0,0,0,0,0,0,0,0,0,0.000,0,0,0.260,0.013,0.240,-0.060,-0.080,0.015,0.994,0.011,0.008,0.010,-0.010,0.000,0.000,0.000,0.000,0,2,0,3,7,255,1440,250,0,0,-89.496,0.587,-31.154
EX0521-092111,5,C09,prep,335,335,0,455254.091,0.685,-0.677,0.193,0.187,0,0,0,0,0,0,0,0,0,0.000,0,0,0.087,0.011,-0.060,-0.060,-0.020,0.014,0.994,0.010,0.004,0.010,-0.010,0.000,0.000,0.000,0.000,0,2,0,3,7,255,1440,250,0,0,-89.496,0.586,-31.154
EX0521-092111,5,C09,prep,335,335,0,455259.092,0.685,-0.677,0.193,0.187,0,0,0,0,0,0,0,0,0,0.000,0,0,0.248,0.007,-0.240,-0.060,-0.020,0.015,0.994,0.012,0.004,0.006,-0.010,0.000,0.000,0.000,0.000,0,2,0,3,7,255,1440,250,0,0,-89.496,0.586,-31.154
EX0521-092111,5,C09,prep,335,335,0,455264.092,0.685,-0.677,0.193,0.187,0,0,0,0,0,0,0,0,0,0.000,0,0,0.206,0.006,0.180,-0.060,-0.080,0.015,0.995,0.011,0.004,0.004,-0.008,0.000,0.000,0.000,0.000,0,2,0,3,7,255,1440,250,0,0,-89.497,0.586,-31.154
EX0521-092111,5,C09,prep,367,367,0,455269.092,0.685,-0.677,0.193,0.187,0,0,0,0,0,0,0,0,0,0.000,0,0,0.087,0.004,0.060,-0.060,-0.020,0.013,0.994,0.010,0.002,0.004,-0.004,0.000,0.000,0.000,0.000,0,2,0,3,7,255,1440,250,0,0,-89.497,0.585,-31.154
EX0521-092111,5,C09,prep,367,367,0,455274.091,0.685,-0.677,0.193,0.187,0,0,0,0,0,0,0,0,0,0.000,0,0,0.217,0.010,-0.180,-0.120,-0.020,0.014,0.995,0.011,0.002,0.010,0.000,0.000,0.000,0.000,0.000,0,2,0,3,7,255,1440,250,0,0,-89.497,0.585,-31.154
EX0521-092111,5,C09,prep,367,367,0,455279.093,0.685,-0.677,0.193,0.187,0,0,0,0,0,0,0,0,0,0.000,0,0,0.156,0.010,0.120,-0.060,-0.080,0.015,0.994,0.012,0.002,0.010,-0.004,0.000,0.000,0.000,0.000,0,2,0,3,7,255,1440,250,0,0,-89.497,0.586,-31.154
EX0521-092111,5,C09,prep,367,367,0,455284.092,0.685,-0.677,0.193,0.187,0,0,0,0,0,0,0,0,0,0.000,0,0,0.156,0.007,0.120,-0.060,-0.080,0.016,0.993,0.010,0.004,0.006,-0.008,0.000,0.000,0.000,0.000,0,2,0,3,7,255,1440,250,0,0,-89.498,0.587,-31.154
EX0521-092111,5,C09,prep,367,367,0,455289.092,0.685,-0.677,0.193,0.187,0,0,0,0,0,0,0,0,0,0.000,0,0,0.181,0.012,-0.180,0.000,-0.020,0.015,0.994,0.011,0.010,0.006,-0.008,0.000,0.000,0.000,0.000,0,2,0,3,7,255,1440,250,0,0,-89.498,0.587,-31.154
EX0521-092111,5,C09,prep,367,367,0,455294.091,0.685,-0.677,0.193,0.187,0,0,0,0,0,0,0,0,0,0.000,0,0,0.063,0.012,-0.060,0.000,-0.020,0.014,0.993,0.012,0.010,0.006,-0.014,0.000,0.000,0.000,0.000,0,2,0,3,7,255,1440,250,0,0,-89.498,0.587,-31.154
EX0521-092111,5,C09,prep,391,391,0,455299.091,0.685,-0.677,0.193,0.187,0,0,0,0,0,0,0,0,0,0.000,0,0,0.188,0.012,0.120,-0.120,-0.080,0.016,0.994,0.010,0.010,0.006,-0.004,0.000,0.000,0.000,0.000,0,2,0,3,7,255,1440,250,0,0,-89.499,0.588,-31.154
EX0521-092111,5,C09,prep,391,391,0,455304.092,0.685,-0.677,0.193,0.187,0,0,0,0,0,0,0,0,0,0.000,0,0,0.087,0.008,-0.060,-0.060,-0.020,0.015,0.995,0.011,0.006,0.006,-0.004,0.000,0.000,0.000,0.000,0,2,0,3,7,255,1440,250,0,0,-89.499,0.588,-31.154
EX0521-092111,5,C09,prep,392,392,0,455309.092,0.685,-0.677,0.193,0.187,0,0,0,0,0,0,0,0,0,0.000,0,0,0.174,0.008,-0.120,-0.120,0.040,0.014,0.994,0.012,0.006,0.006,-0.004,0.000,0.000,0.000,0.000,0,2,0,3,7,255,1440,250,0,0,-89.499,0.588,-31.154
EX0521-092111,5,C09,prep,392,392,0,455314.091,0.685,-0.677,0.193,0.187,0,0,0,0,0,0,0,0,0,0.000,0,0,0.197,0.006,0.180,0.000,-0.080,0.014,0.994,0.011,0.000,0.006,-0.004,0.000,0.000,0.000,0.000,0,2,0,3,7,255,1440,250,0,0,-89.500,0.587,-31.154
EX0521-092111,5,C09,prep,399,399,0,455319.092,0.685,-0.677,0.193,0.187,0,0,0,0,0,0,0,0,0,0.000,0,0,0.063,0.006,0.000,-0.060,-0.020,0.014,0.995,0.010,0.000,0.006,-0.004,0.000,0.000,0.000,0.000,0,2,0,3,7,255,1440,250,0,0,-89.500,0.587,-31.154
EX0521-092111,5,C09,prep,399,399,0,455324.091,0.685,-0.677,0.193,0.187,0,0,0,0,0,0,0,0,0,0.000,0,0,0.136,0.009,-0.120,-0.060,-0.020,0.015,0.994,0.011,0.004,0.008,-0.004,0.000,0.000,0.000,0.000,0,2,0,3,7,255,1440,250,0,0,-89.500,0.587,-31.154
EX0521-092111,5,C09,prep,420,420,0,455329.092,0.685,-0.677,0.193,0.187,0,0,0,0,0,0,0,0,0,0.000,0,0,0.117,0.009,0.060,-0.060,-0.080,0.014,0.994,0.011,0.004,0.008,-0.004,0.000,0.000,0.000,0.000,0,2,0,3,7,255,1440,250,0,0,-89.501,0.586,-31.154
EX0521-092111,5,C09,prep,420,420,0,455334.092,0.685,-0.677,0.193,0.187,0,0,0,0,0,0,0,0,0,0.000,0,0,0.087,0.008,0.060,-0.060,-0.020,0.015,0.996,0.011,0.006,0.006,-0.004,0.000,0.000,0.000,0.000,0,2,0,3,7,255,1440,250,0,0,-89.501,0.586,-31.154
EX0521-092111,5,C09,prep,422,422,0,455339.091,0.685,-0.677,0.193,0.187,0,0,0,0,0,0,0,0,0,0.000,0,0,0.171,0.008,-0.120,-0.120,-0.020,0.015,0.996,0.011,0.006,0.006,0.010,0.000,0.000,0.000,0.000,0,2,0,3,7,255,1440,250,0,0,-89.501,0.586,-31.154
EX0521-092111,5,C09,prep,422,422,0,455344.091,0.685,-0.677,0.193,0.187,0,0,0,0,0,0,0,0,0,0.000,0,0,0.087,0.008,0.060,-0.060,-0.020,0.015,0.994,0.011,0.006,0.006,0.010,0.000,0.000,0.000,0.000,0,2,0,3,7,255,1440,250,0,0,-89.501,0.586,-31.154
EX0521-092111,5,C09,prep,431,431,0,455349.092,0.685,-0.677,0.193,0.187,0,0,0,0,0,0,0,0,0,0.000,0,0,0.136,0.007,0.120,-0.060,-0.020,0.015,0.994,0.011,0.006,0.004,-0.004,0.000,0.000,0.000,0.000,0,2,0,3,7,255,1440,250,0,0,-89.502,0.587,-31.154
EX0521-092111,5,C09,prep,431,431,0,455354.092,0.685,-0.677,0.193,0.187,0,0,0,0,0,0,0,0,0,0.000,0,0,0.171,0.011,-0.120,-0.120,-0.020,0.015,0.995,0.010,0.010,0.004,-0.004,0.000,0.000,0.000,0.000,0,2,0,3,7,255,1440,250,0,0,-89.502,0.586,-31.154
EX0521-092111,5,C09,prep,463,463,0,455359.093,0.685,-0.677,0.193,0.187,0,0,0,0,0,0,0,0,0,0.000,0,0,0.063,0.011,-0.060,0.000,-0.020,0.014,0.993,0.012,0.010,0.004,-0.004,0.000,0.000,0.000,0.000,0,2,0,3,7,255,1440,250,0,0,-89.502,0.586,-31.154
EX0521-092111,5,C09,prep,463,463,0,455364.091,0.685,-0.677,0.193,0.187,0,0,0,0,0,0,0,0,0,0.000,0,0,0.191,0.012,0.180,-0.060,-0.020,0.014,0.995,0.011,-0.002,0.012,0.000,0.000,0.000,0.000,0.000,0,2,0,3,7,255,1440,250,0,0,-89.503,0.586,-31.154
EX0521-092111,5,C09,prep,463,463,0,455369.092,0.685,-0.677,0.193,0.187,0,0,0,0,0,0,0,0,0,0.000,0,0,0.063,0.012,0.000,-0.060,-0.020,0.014,0.995,0.010,-0.002,0.012,0.000,0.000,0.000,0.000,0.000,0,2,0,3,7,255,1440,250,0,0,-89.503,0.586,-31.154
EX0521-092111,5,C09,prep,463,463,0,455374.092,0.685,-0.677,0.193,0.187,0,0,0,0,0,0,0,0,0,0.000,0,0,0.087,0.012,-0.060,-0.060,-0.020,0.014,0.994,0.011,0.002,0.012,0.000,0.000,0.000,0.000,0.000,0,2,0,3,7,255,1440,250,0,0,-89.503,0.585,-31.154
EX0521-092111,5,C09,prep,463,463,0,455379.094,0.685,-0.677,0.193,0.187,0,0,0,0,0,0,0,0,0,0.000,0,0,0.144,0.008,0.120,0.000,-0.080,0.014,0.994,0.011,0.002,0.008,-0.004,0.000,0.000,0.000,0.000,0,2,0,3,7,255,1440,250,0,0,-89.504,0.585,-31.154
EX0521-092111,5,C09,prep,463,463,0,455384.091,0.685,-0.677,0.193,0.187,0,0,0,0,0,0,0,0,0,0.000,0,0,0.100,0.008,0.000,-0.060,-0.080,0.014,0.996,0.011,0.002,0.008,-0.004,0.000,0.000,0.000,0.000,0,2,0,3,7,255,1440,250,0,0,-89.504,0.585,-31.154
EX0521-092111,5,C09,prep,490,490,0,455389.091,0.685,-0.677,0.193,0.187,0,0,0,0,0,0,0,0,0,0.000,0,0,0.136,0.006,-0.120,-0.060,-0.020,0.015,0.995,0.012,0.000,0.006,0.006,0.000,0.000,0.000,0.000,0,2,0,3,7,255,1440,250,0,0,-89.504,0.584,-31.154
EX0521-092111,5,C09,prep,490,490,0,455394.092,0.685,-0.677,0.193,0.187,0,0,0,0,0,0,0,0,0,0.000,0,0,0.156,0.002,0.060,-0.120,-0.080,0.015,0.995,0.012,0.000,-0.002,0.006,0.000,0.000,0.000,0.000,0,2,0,3,7,255,1440,250,0,0,-89.504,0.586,-31.154
EX0521-092111,5,C09,prep,491,491,0,455399.092,0.685,-0.677,0.193,0.187,0,0,0,0,0,0,0,0,0,0.000,0,0,0.063,0.004,0.000,-0.060,-0.020,0.015,0.995,0.011,0.004,-0.002,0.006,0.000,0.000,0.000,0.000,0,2,0,3,7,255,1440,250,0,0,-89.505,0.585,-31.154
EX0521-092111,5,C09,prep,491,491,0,455404.091,0.685,-0.677,0.193,0.187,0,0,0,0,0,0,0,0,0,0.000,0,0,0.136,0.004,-0.120,-0.060,-0.020,0.014,0.994,0.012,0.004,0.002,0.000,0.000,0.000,0.000,0.000,0,2,0,3,7,255,1440,250,0,0,-89.505,0.585,-31.154
EX0521-092111,5,C09,prep,492,492,0,455409.091,0.685,-0.677,0.193,0.187,0,0,0,0,0,0,0,0,0,0.000,0,0,0.087,0.006,0.060,-0.060,-0.020,0.015,0.994,0.011,0.006,0.002,-0.008,0.000,0.000,0.000,0.000,0,2,0,3,7,255,1440,250,0,0,-89.505,0.585,-31.154
EX0521-092111,5,C09,prep,492,492,0,455414.092,0.685,-0.677,0.193,0.187,0,0,0,0,0,0,0,0,0,0.000,0,0,0.122,0.006,0.120,0.000,-0.020,0.014,0.995,0.010,0.002,0.006,-0.008,0.000,0.000,0.000,0.000,0,2,0,3,7,255,1440,250,0,0,-89.506,0.584,-31.154
EX0521-092111,5,C09,prep,522,522,0,455419.092,0.685,-0.677,0.193,0.187,0,0,0,0,0,0,0,0,0,0.000,0,0,0.136,0.008,-0.120,-0.060,-0.020,0.014,0.994,0.011,0.002,0.008,-0.004,0.000,0.000,0.000,0.000,0,2,0,3,7,255,1440,250,0,0,-89.506,0.584,-31.154
EX0521-092111,5,C09,prep,522,522,0,455424.092,0.685,-0.677,0.193,0.187,0,0,0,0,0,0,0,0,0,0.000,0,0,0.063,0.008,0.000,-0.060,-0.020,0.015,0.994,0.012,0.002,0.008,-0.004,0.000,0.000,0.000,0.000,0,2,0,3,7,255,1440,250,0,0,-89.506,0.584,-31.154
EX0521-092111,5,C09,prep,522,522,0,455429.091,0.685,-0.677,0.193,0.187,0,0,0,0,0,0,0,0,0,0.000,0,0,0.136,0.003,0.060,-0.120,-0.020,0.014,0.994,0.012,-0.002,-0.002,-0.004,0.000,0.000,0.000,0.000,0,2,0,3,7,255,1440,250,0,0,-89.507,0.584,-31.154
EX0521-092111,5,C09,prep,522,522,0,455434.091,0.685,-0.677,0.193,0.187,0,0,0,0,0,0,0,0,0,0.000,0,0,0.087,0.003,-0.060,-0.060,-0.020,0.015,0.995,0.011,-0.002,-0.002,-0.004,0.000,0.000,0.000,0.000,0,2,0,3,7,255,1440,250,0,0,-89.507,0.583,-31.154
EX0521-092111,5,C09,prep,522,522,0,455439.092,0.685,-0.677,0.193,0.187,0,0,0,0,0,0,0,0,0,0.000,0,0,0.087,0.002,-0.060,-0.060,-0.020,0.014,0.994,0.011,-0.002,0.000,-0.004,0.000,0.000,0.000,0.000,0,2,0,3,7,255,1440,250,0,0,-89.507,0.583,-31.154
EX0521-092111,5,C09,prep,522,522,0,455444.092,0.685,-0.677,0.193,0.187,0,0,0,0,0,0,0,0,0,0.000,0,0,0.117,0.002,0.060,-0.060,-0.080,0.015,0.995,0.011,0.002,0.000,0.002,0.000,0.000,0.000,0.000,0,2,0,3,7,255,1440,250,0,0,-89.507,0.583,-31.154
EX0521-092111,5,C09,prep,527,527,0,455449.092,0.685,-0.677,0.193,0.187,0,0,0,0,0,0,0,0,0,0.000,0,0,0.063,0.003,0.000,-0.060,-0.020,0.013,0.996,0.012,-0.002,0.002,0.002,0.000,0.000,0.000,0.000,0,2,0,3,7,255,1440,250,0,0,-89.508,0.582,-31.154
EX0521-092111,5,C09,prep,527,527,0,455454.091,0.685,-0.677,0.193,0.187,0,0,0,0,0,0,0,0,0,0.000,0,0,0.136,0.004,-0.120,-0.060,-0.020,0.015,0.994,0.011,0.004,0.000,0.002,0.000,0.000,0.000,0.000,0,2,0,3,7,255,1440,250,0,0,-89.508,0.582,-31.154
EX0521-092111,5,C09,prep,556,556,0,455459.092,0.685,-0.677,0.193,0.187,0,0,0,0,0,0,0,0,0,0.000,0,0,0.087,0.004,0.060,-0.060,-0.020,0.014,0.994,0.011,0.002,0.004,-0.004,0.000,0.000,0.000,0.000,0,2,0,3,7,255,1440,250,0,0,-89.508,0.582,-31.154
EX0521-092111,5,C09,prep,556,556,0,455464.092,0.685,-0.677,0.193,0.187,0,0,0,0,0,0,0,0,0,0.000,0,0,0.087,0.006,0.060,-0.060,-0.020,0.014,0.994,0.011,0.002,0.006,-0.004,0.000,0.000,0.000,0.000,0,2,0,3,7,255,1440,250,0,0,-89.509,0.582,-31.154
EX0521-092111,5,C09,prep,587,587,0,455469.092,0.685,-0.677,0.193,0.187,0,0,0,0,0,0,0,0,0,0.000,0,0,0.087,0.006,-0.060,-0.060,-0.020,0.014,0.994,0.011,0.002,0.006,-0.004,0.000,0.000,0.000,0.000,0,2,0,3,7,255,1440,250,0,0,-89.509,0.581,-31.154
EX0521-092111,5,C09,prep,587,587,0,455474.091,0.685,-0.677,0.193,0.187,0,0,0,0,0,0,0,0,0,0.000,0,0,0.100,0.004,0.000,-0.060,-0.080,0.015,0.995,0.012,0.002,0.004,-0.004,0.000,0.000,0.000,0.000,0,2,0,3,7,255,1440,250,0,0,-89.509,0.582,-31.154
EX0521-092111,5,C09,prep,587,587,0,455479.093,0.685,-0.677,0.193,0.187,0,0,0,0,0,0,0,0,0,0.000,0,0,0.087,0.004,0.060,-0.060,-0.020,0.016,0.995,0.010,0.002,0.004,0.002,0.000,0.000,0.000,0.000,0,2,0,3,7,255,1440,250,0,0,-89.510,0.584,-31.154
EX0521-092111,5,C09,prep,587,587,0,455484.092,0.685,-0.677,0.193,0.187,0,0,0,0,0,0,0,0,0,0.000,0,0,0.063,0.008,0.000,-0.060,-0.020,0.015,0.994,0.011,0.008,0.002,0.002,0.000,0.000,0.000,0.000,0,2,0,3,7,255,1440,250,0,0,-89.510,0.585,-31.154
EX0521-092111,5,C09,prep,587,587,0,455489.092,0.685,-0.677,0.193,0.187,0,0,0,0,0,0,0,0,0,0.000,0,0,0.100,0.008,0.000,-0.060,-0.080,0.015,0.993,0.011,0.008,0.002,-0.004,0.000,0.000,0.000,0.000,0,2,0,3,7,255,1440,250,0,0,-89.510,0.585,-31.154
EX0521-092111,5,C09,prep,587,587,0,455494.091,0.685,-0.677,0.193,0.187,0,0,0,0,0,0,0,0,0,0.000,0,0,0.063,0.004,0.060,0.000,-0.020,0.014,0.994,0.010,0.004,0.002,-0.008,0.000,0.000,0.000,0.000,0,2,0,3,7,255,1440,250,0,0,-89.510,0.584,-31.154
EX0521-092111,5,C09,prep,587,587,0,455499.091,0.685,-0.677,0.193,0.187,0,0,0,0,0,0,0,0,0,0.000,0,0,0.100,0.004,0.000,-0.060,-0.080,0.015,0.993,0.011,0.004,0.000,-0.012,0.000,0.000,0.000,0.000,0,2,0,3,7,255,1440,250,0,0,-89.511,0.585,-31.154
EX0521-092111,5,C09,prep,587,587,0,455504.092,0.685,-0.677,0.193,0.187,0,0,0,0,0,0,0,0,0,0.000,0,0,0.063,0.004,0.000,-0.060,-0.020,0.015,0.995,0.012,0.004,-0.002,-0.008,0.000,0.000,0.000,0.000,0,2,0,3,7,255,1440,250,0,0,-89.511,0.585,-31.154
EX0521-092111,5,C09,prep,588,588,0,455509.092,0.685,-0.677,0.193,0.187,0,0,0,0,0,0,0,0,0,0.000,0,0,0.156,0.004,0.060,-0.120,-0.080,0.015,0.994,0.011,0.004,-0.002,-0.008,0.000,0.000,0.000,0.000,0,2,0,3,7,255,1440,250,0,0,-89.511,0.585,-31.154
EX0521-092111,5,C09,prep,588,588,0,455514.092,0.685,-0.677,0.193,0.187,0,0,0,0,0,0,0,0,0,0.000,0,0,0.063,0.006,0.000,-0.060,-0.020,0.015,0.994,0.011,0.004,0.004,-0.004,0.000,0.000,0.000,0.000,0,2,0,3,7,255,1440,250,0,0,-89.512,0.585,-31.154
EX0521-092111,5,C09,prep,616,616,0,455519.092,0.685,-0.677,0.193,0.187,0,0,0,0,0,0,0,0,0,0.000,0,0,0.087,0.006,-0.060,-0.060,-0.020,0.014,0.994,0.010,0.004,0.004,-0.008,0.000,0.000,0.000,0.000,0,2,0,3,7,255,1440,250,0,0,-89.512,0.584,-31.154
EX0521-092111,5,C09,prep,616,616,0,455524.091,0.685,-0.677,0.193,0.187,0,0,0,0,0,0,0,0,0,0.000,0,0,0.087,0.010,0.060,-0.060,-0.020,0.013,0.995,0.011,0.002,0.010,-0.004,0.000,0.000,0.000,0.000,0,2,0,3,7,255,1440,250,0,0,-89.512,0.584,-31.154
EX0521-092111,5,C09,prep,616,616,0,455529.092,0.685,-0.677,0.193,0.187,0,0,0,0,0,0,0,0,0,0.000,0,0,0.087,0.010,0.060,-0.060,-0.020,0.015,0.994,0.011,0.002,0.010,-0.008,0.000,0.000,0.000,0.000,0,2,0,3,7,255,1440,250,0,0,-89.513,0.585,-31.154
EX0521-092111,5,C09,prep,616,616,0,455534.092,0.685,-0.677,0.193,0.187,0,0,0,0,0,0,0,0,0,0.000,0,0,0.087,0.006,-0.060,-0.060,-0.020,0.015,0.995,0.011,0.004,0.004,0.002,0.000,0.000,0.000,0.000,0,2,0,3,7,255,1440,250,0,0,-89.513,0.585,-31.154
EX0521-092111,5,C09,prep,623,623,0,455539.091,0.685,-0.677,0.193,0.187,0,0,0,0,0,0,0,0,0,0.000,0,0,0.063,0.007,0.000,-0.060,-0.020,0.016,0.994,0.011,0.006,-0.004,-0.002,0.000,0.000,0.000,0.000,0,2,0,3,7,255,1440,250,0,0,-89.513,0.586,-31.154
EX0521-092111,5,C09,prep,623,623,0,455544.091,0.685,-0.677,0.193,0.187,0,0,0,0,0,0,0,0,0,0.000,0,0,0.144,0.012,0.000,-0.120,-0.080,0.016,0.995,0.011,0.012,-0.002,0.006,0.000,0.000,0.000,0.000,0,2,0,3,7,255,1440,250,0,0,-89.513,0.587,-31.154
EX0521-092111,5,C09,prep,653,653,0,455549.092,0.685,-0.677,0.193,0.187,0,0,0,0,0,0,0,0,0,0.000,0,0,0.087,0.012,-0.060,-0.060,-0.020,0.015,0.995,0.010,0.012,-0.002,0.002,0.000,0.000,0.000,0.000,0,2,0,3,7,255,1440,250,0,0,-89.514,0.587,-31.154
EX0521-092111,5,C09,prep,653,653,0,455554.092,0.685,-0.677,0.193,0.187,0,0,0,0,0,0,0,0,0,0.000,0,0,0.063,0.008,0.000,-0.060,-0.020,0.014,0.993,0.011,0.008,0.002,0.002,0.000,0.000,0.000,0.000,0,2,0,3,7,255,1440,250,0,0,-89.514,0.587,-31.154
EX0521-092111,5,C09,prep,653,653,0,455559.095,0.685,-0.677,0.193,0.187,0,0,0,0,0,0,0,0,0,0.000,0,0,0.117,0.008,0.060,-0.060,-0.080,0.015,0.993,0.011,0.008,0.002,-0.012,0.000,0.000,0.000,0.000,0,2,0,3,7,255,1440,250,0,0,-89.514,0.587,-31.154
EX0521-092111,5,C09,prep,653,653,0,455564.091,0.685,-0.677,0.193,0.187,0,0,0,0,0,0,0,0,0,0.000,0,0,0.063,0.002,0.000,-0.060,-0.020,0.015,0.994,0.012,0.002,0.000,-0.012,0.000,0.000,0.000,0.000,0,2,0,3,7,255,1440,250,0,0,-89.515,0.586,-31.154
EX0521-092111,5,C09,prep,671,671,0,455569.092,0.685,-0.677,0.193,0.187,0,0,0,0,0,0,0,0,0,0.000,0,0,0.063,0.008,0.000,-0.060,-0.020,0.015,0.993,0.013,0.002,-0.008,-0.012,0.000,0.000,0.000,0.000,0,2,0,3,7,255,1440,250,0,0,-89.515,0.586,-31.154
EX0521-092111,5,C09,prep,671,671,0,455574.092,0.685,-0.677,0.193,0.187,0,0,0,0,0,0,0,0,0,0.000,0,0,0.087,0.008,0.060,-0.060,-0.020,0.014,0.994,0.011,0.000,-0.008,-0.002,0.000,0.000,0.000,0.000,0,2,0,3,7,255,1440,250,0,0,-89.515,0.586,-31.154
EX0521-092111,5,C09,prep,671,671,0,455579.093,0.685,-0.677,0.193,0.187,0,0,0,0,0,0,0,0,0,0.000,0,0,0.136,0.006,-0.060,-0.120,-0.020,0.014,0.995,0.011,0.000,0.006,-0.002,0.000,0.000,0.000,0.000,0,2,0,3,7,255,1440,250,0,0,-89.516,0.585,-31.154
EX0521-092111,5,C09,prep,671,671,0,455584.091,0.685,-0.677,0.193,0.187,0,0,0,0,0,0,0,0,0,0.000,0,0,0.136,0.006,-0.120,-0.060,-0.020,0.013,0.995,0.011,0.000,0.006,0.002,0.000,0.000,0.000,0.000,0,2,0,3,7,255,1440,250,0,0,-89.516,0.585,-31.154
EX0521-092111,5,C09,prep,671,671,0,455589.091,0.685,-0.677,0.193,0.187,0,0,0,0,0,0,0,0,0,0.000,0,0,0.087,0.010,0.060,-0.060,-0.020,0.014,0.994,0.012,-0.008,0.006,0.002,0.000,0.000,0.000,0.000,0,2,0,3,7,255,1440,250,0,0,-89.516,0.585,-31.154
EX0521-092111,5,C09,prep,671,671,0,455594.092,0.685,-0.677,0.193,0.187,0,0,0,0,0,0,0,0,0,0.000,0,0,0.100,0.014,0.000,-0.060,-0.080,0.014,0.995,0.010,-0.008,0.012,0.006,0.000,0.000,0.000,0.000,0,2,0,3,7,255,1440,250,0,0,-89.516,0.585,-31.154
EX0521-092111,5,C09,prep,687,687,0,455599.092,0.685,-0.677,0.193,0.187,0,0,0,0,0,0,0,0,0,0.000,0,0,0.087,0.006,-0.060,-0.060,-0.020,0.015,0.996,0.010,0.004,0.004,0.006,0.000,0.000,0.000,0.000,0,2,0,3,7,255,1440,250,0,0,-89.517,0.584,-31.154
EX0521-092111,5,C09,prep,687,687,0,455604.092,0.685,-0.677,0.193,0.187,0,0,0,0,0,0,0,0,0,0.000,0,0,0.063,0.007,0.000,-0.060,-0.020,0.015,0.995,0.011,0.006,0.004,0.006,0.000,0.000,0.000,0.000,0,2,0,3,7,255,1440,250,0,0,-89.517,0.585,-31.154
EX0521-092111,5,C09,prep,687,687,0,455609.091,0.685,-0.677,0.193,0.187,0,0,0,0,0,0,0,0,0,0.000,0,0,0.087,0.006,0.060,-0.060,-0.020,0.014,0.993,0.011,0.006,0.000,0.006,0.000,0.000,0.000,0.000,0,2,0,3,7,255,1440,250,0,0,-89.517,0.585,-31.154
EX0521-092111,5,C09,prep,687,687,0,455614.091,0.685,-0.677,0.193,0.187,0,0,0,0,0,0,0,0,0,0.000,0,0,0.063,0.006,0.000,-0.060,-0.020,0.014,0.994,0.012,-0.004,-0.004,-0.002,0.000,0.000,0.000,0.000,0,2,0,3,7,255,1440,250,0,0,-89.518,0.585,-31.154
EX0521-092111,5,C09,prep,703,703,0,455619.092,0.685,-0.677,0.193,0.187,0,0,0,0,0,0,0,0,0,0.000,0,0,0.063,0.006,0.000,-0.060,-0.020,0.015,0.994,0.012,-0.004,-0.004,-0.002,0.000,0.000,0.000,0.000,0,2,0,3,7,255,1440,250,0,0,-89.518,0.585,-31.154
EX0521-092111,5,C09,prep,703,703,0,455624.092,0.685,-0.677,0.193,0.187,0,0,0,0,0,0,0,0,0,0.000,0,0,0.087,0.004,0.060,-0.060,-0.020,0.015,0.995,0.011,-0.002,-0.004,-0.002,0.000,0.000,0.000,0.000,0,2,0,3,7,255,1440,250,0,0,-89.518,0.586,-31.154
EX0521-092111,5,C09,prep,719,719,0,455629.092,0.685,-0.677,0.193,0.187,0,0,0,0,0,0,0,0,0,0.000,0,0,0.087,0.002,-0.060,-0.060,-0.020,0.015,0.995,0.011,0.000,-0.002,0.002,0.000,0.000,0.000,0.000,0,2,0,3,7,255,1440,250,0,0,-89.519,0.585,-31.154
EX0521-092111,5,C09,prep,719,719,0,455634.091,0.685,-0.677,0.193,0.187,0,0,0,0,0,0,0,0,0,0.000,0,0,0.063,0.004,0.000,-0.060,-0.020,0.015,0.994,0.011,0.004,-0.002,0.002,0.000,0.000,0.000,0.000,0,2,0,3,7,255,1440,250,0,0,-89.519,0.587,-31.154
EX0521-092111,5,C09,prep,719,719,0,455639.092,0.685,-0.677,0.193,0.187,0,0,0,0,0,0,0,0,0,0.000,0,0,0.063,0.002,0.060,0.000,-0.020,0.015,0.995,0.011,0.000,-0.002,0.002,0.000,0.000,0.000,0.000,0,2,0,3,7,255,1440,250,0,0,-89.519,0.586,-31.154
EX0521-092111,5,C09,prep,719,719,0,455644.092,0.685,-0.677,0.193,0.187,0,0,0,0,0,0,0,0,0,0.000,0,0,0.087,0.002,-0.060,-0.060,-0.020,0.014,0.995,0.011,0.000,-0.002,0.002,0.000,0.000,0.000,0.000,0,2,0,3,7,255,1440,250,0,0,-89.520,0.586,-31.154
EX0521-092111,5,C09,prep,735,735,0,455649.092,0.685,-0.677,0.193,0.187,0,0,0,0,0,0,0,0,0,0.000,0,0,0.063,0.002,-0.060,0.000,-0.020,0.014,0.995,0.010,-0.002,0.000,0.006,0.000,0.000,0.000,0.000,0,2,0,3,7,255,1440,250,0,0,-89.520,0.586,-31.154
EX0521-092111,5,C09,prep,735,735,0,455654.091,0.685,-0.677,0.193,0.187,0,0,0,0,0,0,0,0,0,0.000,0,0,0.063,0.002,0.000,-0.060,-0.020,0.015,0.994,0.011,-0.002,0.000,0.006,0.000,0.000,0.000,0.000,0,2,0,3,7,255,1440,250,0,0,-89.520,0.587,-31.154
EX0521-092111,5,C09,prep,767,767,0,455659.091,0.685,-0.677,0.193,0.187,0,0,0,0,0,0,0,0,0,0.000,0,0,0.063,0.004,0.000,-0.060,-0.020,0.014,0.995,0.011,-0.002,0.004,0.006,0.000,0.000,0.000,0.000,0,2,0,3,7,255,1440,250,0,0,-89.520,0.587,-31.154
EX0521-092111,5,C09,prep,767,767,0,455664.092,0.685,-0.677,0.193,0.187,0,0,0,0,0,0,0,0,0,0.000,0,0,0.063,0.002,0.000,-0.060,-0.020,0.015,0.994,0.012,0.002,0.000,-0.002,0.000,0.000,0.000,0.000,0,2,0,3,7,255,1440,250,0,0,-89.521,0.586,-31.154
EX0521-092111,5,C09,prep,767,767,0,455669.092,0.685,-0.677,0.193,0.187,0,0,0,0,0,0,0,0,0,0.000,0,0,0.100,0.007,0.000,-0.060,-0.080,0.014,0.996,0.011,-0.006,0.004,0.006,0.000,0.000,0.000,0.000,0,2,0,3,7,255,1440,250,0,0,-89.521,0.586,-31.154
EX0521-092111,5,C09,prep,767,767,0,455674.091,0.685,-0.677,0.193,0.187,0,0,0,0,0,0,0,0,0,0.000,0,0,0.063,0.004,0.000,-0.060,-0.020,0.015,0.994,0.011,0.002,-0.004,-0.002,0.000,0.000,0.000,0.000,0,2,0,3,7,255,1440,250,0,0,-89.521,0.586,-31.154
EX0521-092111,5,C09,prep,767,767,0,455679.093,0.685,-0.677,0.193,0.187,0,0,0,0,0,0,0,0,0,0.000,0,0,0.063,0.007,-0.060,0.000,-0.020,0.014,0.995,0.012,-0.006,-0.004,0.002,0.000,0.000,0.000,0.000,0,2,0,3,7,255,1440,250,0,0,-89.522,0.585,-31.154
EX0521-092111,5,C09,prep,767,767,0,455684.092,0.685,-0.677,0.193,0.187,0,0,0,0,0,0,0,0,0,0.000,0,0,0.117,0.006,-0.060,-0.060,-0.080,0.016,0.995,0.011,0.004,-0.004,0.002,0.000,0.000,0.000,0.000,0,2,0,3,7,255,1440,250,0,0,-89.522,0.587,-31.154
EX0521-092111,5,C09,prep,787,787,0,455689.092,0.685,-0.677,0.193,0.187,0,0,0,0,0,0,0,0,0,0.000,0,0,0.063,0.004,0.000,-0.060,-0.020,0.014,0.994,0.010,0.002,-0.004,0.002,0.000,0.000,0.000,0.000,0,2,0,3,7,255,1440,250,0,0,-89.522,0.586,-31.154
EX0521-092111,5,C09,prep,787,787,0,455694.092,0.685,-0.677,0.193,0.187,0,0,0,0,0,0,0,0,0,0.000,0,0,0.100,0.008,0.000,-0.060,-0.080,0.014,0.995,0.010,0.002,0.008,0.006,0.000,0.000,0.000,0.000,0,2,0,3,7,255,1440,250,0,0,-89.523,0.586,-31.154
EX0521-092111,5,C09,prep,788,788,0,455699.091,0.685,-0.677,0.193,0.187,0,0,0,0,0,0,0,0,0,0.000,0,0,0.136,0.008,0.060,-0.120,-0.020,0.014,0.994,0.011,0.000,0.008,-0.004,0.000,0.000,0.000,0.000,0,2,0,3,7,255,1440,250,0,0,-89.523,0.586,-31.154
EX0521-092111,5,C09,prep,788,788,0,455704.091,0.685,-0.677,0.193,0.187,0,0,0,0,0,0,0,0,0,0.000,0,0,0.087,0.004,0.060,-0.060,-0.020,0.014,0.994,0.011,-0.002,0.004,-0.004,0.000,0.000,0.000,0.000,0,2,0,3,7,255,1440,250,0,0,-89.523,0.586,-31.154
EX0521-092111,5,C09,prep,789,789,0,455709.092,0.685,-0.677,0.193,0.187,0,0,0,0,0,0,0,0,0,0.000,0,0,0.087,0.004,-0.060,-0.060,-0.020,0.014,0.995,0.011,-0.004,0.000,-0.004,0.000,0.000,0.000,0.000,0,2,0,3,7,255,1440,250,0,0,-89.523,0.585,-31.154
EX0521-092111,5,C09,prep,789,789,0,455714.092,0.685,-0.677,0.193,0.187,0,0,0,0,0,0,0,0,0,0.000,0,0,0.117,0.004,-0.060,-0.060,-0.080,0.015,0.994,0.012,-0.004,0.000,-0.004,0.000,0.000,0.000,0.000,0,2,0,3,7,255,1440,250,0,0,-89.524,0.585,-31.154
EX0521-092111,5,C09,prep,799,799,0,455719.092,0.685,-0.677,0.193,0.187,0,0,0,0,0,0,0,0,0,0.000,0,0,0.144,0.004,0.000,-0.120,-0.080,0.015,0.994,0.011,-0.004,-0.002,-0.008,0.000,0.000,0.000,0.000,0,2,0,3,7,255,1440,250,0,0,-89.524,0.585,-31.154
EX0521-092111,5,C09,prep,799,799,0,455724.091,0.685,-0.677,0.193,0.187,0,0,0,0,0,0,0,0,0,0.000,0,0,0.063,0.004,0.000,-0.060,-0.020,0.014,0.994,0.011,-0.004,-0.002,-0.008,0.000,0.000,0.000,0.000,0,2,0,3,7,255,1440,250,0,0,-89.524,0.584,-31.154
EX0521-092111,5,C09,prep,815,815,0,455729.092,0.685,-0.677,0.193,0.187,0,0,0,0,0,0,0,0,0,0.000,0,0,0.136,0.002,-0.060,-0.120,-0.020,0.015,0.994,0.010,0.000,0.002,-0.004,0.000,0.000,0.000,0.000,0,2,0,3,7,255,1440,250,0,0,-89.525,0.586,-31.154
EX0521-092111,5,C09,prep,815,815,0,455734.092,0.685,-0.677,0.193,0.187,0,0,0,0,0,0,0,0,0,0.000,0,0,0.063,0.007,0.000,-0.060,-0.020,0.014,0.995,0.011,-0.006,0.004,-0.002,0.000,0.000,0.000,0.000,0,2,0,3,7,255,1440,250,0,0,-89.525,0.585,-31.154
EX0521-092111,5,C09,prep,816,816,0,455739.092,0.685,-0.677,0.193,0.187,0,0,0,0,0,0,0,0,0,0.000,0,0,0.063,0.004,0.000,-0.060,-0.020,0.015,0.996,0.011,0.000,0.004,0.002,0.000,0.000,0.000,0.000,0,2,0,3,7,255,1440,250,0,0,-89.525,0.585,-31.154
EX0521-092111,5,C09,prep,816,816,0,455744.091,0.685,-0.677,0.193,0.187,0,0,0,0,0,0,0,0,0,0.000,0,0,0.087,0.006,-0.060,-0.060,-0.020,0.014,0.994,0.010,0.000,0.006,0.002,0.000,0.000,0.000,0.000,0,2,0,3,7,255,1440,250,0,0,-89.526,0.585,-31.154
EX0521-092111,5,C09,prep,831,831,0,455749.091,0.685,-0.677,0.193,0.187,0,0,0,0,0,0,0,0,0,0.000,0,0,0.087,0.002,-0.060,-0.060,-0.020,0.014,0.994,0.012,0.000,-0.002,-0.004,0.000,0.000,0.000,0.000,0,2,0,3,7,255,1440,250,0,0,-89.526,0.584,-31.154
EX0521-092111,5,C09,prep,831,831,0,455754.092,0.685,-0.677,0.193,0.187,0,0,0,0,0,0,0,0,0,0.000,0,0,0.020,0.010,0.000,0.000,-0.020,0.013,0.995,0.010,-0.006,0.008,-0.004,0.000,0.000,0.000,0.000,0,2,0,3,7,255,1440,250,0,0,-89.526,0.584,-31.154
EX0521-092111,5,C09,prep,849,849,0,455759.095,0.685,-0.677,0.193,0.187,0,0,0,0,0,0,0,0,0,0.000,0,0,0.063,0.007,0.000,-0.060,-0.020,0.015,0.996,0.012,-0.006,-0.004,0.006,0.000,0.000,0.000,0.000,0,2,0,3,7,255,1440,250,0,0,-89.526,0.585,-31.154
EX0521-092111,5,C09,prep,849,849,0,455764.091,0.685,-0.677,0.193,0.187,0,0,0,0,0,0,0,0,0,0.000,0,0,0.117,0.006,-0.060,-0.060,-0.080,0.015,0.994,0.011,0.002,-0.006,0.006,0.000,0.000,0.000,0.000,0,2,0,3,7,255,1440,250,0,0,-89.527,0.586,-31.154
EX0521-092111,5,C09,prep,890,890,0,455769.091,0.685,-0.677,0.193,0.187,0,0,0,0,0,0,0,0,0,0.000,0,0,0.063,0.006,0.000,-0.060,-0.020,0.014,0.994,0.011,0.002,-0.006,-0.004,0.000,0.000,0.000,0.000,0,2,0,3,7,255,1440,250,0,0,-89.527,0.586,-31.154
EX0521-092111,5,C09,prep,890,890,0,455774.092,0.685,-0.677,0.193,0.187,0,0,0,0,0,0,0,0,0,0.000,0,0,0.087,0.004,-0.060,-0.060,-0.020,0.014,0.994,0.011,-0.004,0.000,-0.008,0.000,0.000,0.000,0.000,0,2,0,3,7,255,1440,250,0,0,-89.527,0.586,-31.154
EX0521-092111,5,C09,prep,890,890,0,455779.094,0.685,-0.677,0.193,0.187,0,0,0,0,0,0,0,0,0,0.000,0,0,0.087,0.004,-0.060,-0.060,-0.020,0.015,0.995,0.011,-0.004,0.000,-0.008,0.000,0.000,0.000,0.000,0,2,0,3,7,255,1440,250,0,0,-89.528,0.585,-31.154
EX0521-092111,5,C09,prep,890,890,0,455784.092,0.685,-0.677,0.193,0.187,0,0,0,0,0,0,0,0,0,0.000,0,0,0.063,0.006,0.000,-0.060,-0.020,0.016,0.995,0.011,0.004,-0.004,0.002,0.000,0.000,0.000,0.000,0,2,0,3,7,255,1440,250,0,0,-89.528,0.587,-31.154
EX0521-092111,5,C09,prep,890,890,0,455789.091,0.685,-0.677,0.193,0.187,0,0,0,0,0,0,0,0,0,0.000,0,0,0.080,0.006,0.000,0.000,-0.080,0.014,0.995,0.011,0.004,-0.004,0.006,0.000,0.000,0.000,0.000,0,2,0,3,7,255,1440,250,0,0,-89.528,0.586,-31.154
EX0521-092111,5,C09,prep,890,890,0,455794.091,0.685,-0.677,0.193,0.187,0,0,0,0,0,0,0,0,0,0.000,0,0,0.087,0.011,-0.060,-0.060,-0.020,0.016,0.995,0.011,0.010,-0.004,0.002,0.000,0.000,0.000,0.000,0,2,0,3,7,255,1440,250,0,0,-89.529,0.588,-31.154
EX0521-092111,5,C09,prep,890,890,0,455799.092,0.685,-0.677,0.193,0.187,0,0,0,0,0,0,0,0,0,0.000,0,0,0.122,0.007,0.000,-0.120,-0.020,0.015,0.994,0.012,-0.006,-0.004,0.002,0.000,0.000,0.000,0.000,0,2,0,3,7,255,1440,250,0,0,-89.529,0.587,-31.154
EX0521-092111,5,C09,prep,890,890,0,455804.092,0.685,-0.677,0.193,0.187,0,0,0,0,0,0,0,0,0,0.000,0,0,0.100,0.007,0.000,-0.060,-0.080,0.013,0.995,0.012,-0.006,-0.004,0.002,0.000,0.000,0.000,0.000,0,2,0,3,7,255,1440,250,0,0,-89.529,0.587,-31.154
EX0521-092111,5,C09,prep,891,891,0,455809.091,0.685,-0.677,0.193,0.187,0,0,0,0,0,0,0,0,0,0.000,0,0,0.087,0.007,-0.060,-0.060,-0.020,0.014,0.994,0.011,-0.006,-0.004,-0.004,0.000,0.000,0.000,0.000,0,2,0,3,7,255,1440,250,0,0,-89.529,0.587,-31.154
EX0521-092111,5,C09,prep,891,891,0,455814.091,0.685,-0.677,0.193,0.187,0,0,0,0,0,0,0,0,0,0.000,0,0,0.063,0.004,0.000,-0.060,-0.020,0.015,0.993,0.012,-0.002,-0.004,-0.004,0.000,0.000,0.000,0.000,0,2,0,3,7,255,1440,250,0,0,-89.530,0.588,-31.154
EX0521-092111,5,C09,prep,922,922,0,455819.092,0.685,-0.677,0.193,0.187,0,0,0,0,0,0,0,0,0,0.000,0,0,0.117,0.003,0.060,-0.060,-0.080,0.015,0.994,0.011,0.002,0.002,-0.008,0.000,0.000,0.000,0.000,0,2,0,3,7,255,1440,250,0,0,-89.530,0.588,-31.154
EX0521-092111,5,C09,prep,922,922,0,455824.092,0.685,-0.677,0.193,0.187,0,0,0,0,0,0,0,0,0,0.000,0,0,0.117,0.003,-0.060,-0.060,-0.080,0.014,0.994,0.011,0.002,0.002,-0.008,0.000,0.000,0.000,0.000,0,2,0,3,7,255,1440,250,0,0,-89.530,0.587,-31.154
EX0521-092111,5,C09,prep,922,922,0,455829.092,0.685,-0.677,0.193,0.187,0,0,0,0,0,0,0,0,0,0.000,0,0,0.087,0.006,-0.060,-0.060,-0.020,0.014,0.994,0.012,-0.006,0.002,-0.008,0.000,0.000,0.000,0.000,0,2,0,3,7,255,1440,250,0,0,-89.531,0.587,-31.154
EX0521-092111,5,C09,prep,922,922,0,455834.091,0.685,-0.677,0.193,0.187,0,0,0,0,0,0,0,0,0,0.000,0,0,0.063,0.006,0.000,-0.060,-0.020,0.015,0.995,0.011,-0.006,-0.002,-0.008,0.000,0.000,0.000,0.000,0,2,0,3,7,255,1440,250,0,0,-89.531,0.587,-31.154
EX0521-092111,5,C09,prep,922,922,0,455839.091,0.685,-0.677,0.193,0.187,0,0,0,0,0,0,0,0,0,0.000,0,0,0.087,0.004,-0.060,-0.060,-0.020,0.015,0.994,0.012,-0.002,-0.004,-0.002,0.000,0.000,0.000,0.000,0,2,0,3,7,255,1440,250,0,0,-89.531,0.587,-31.154
EX0521-092111,5,C09,prep,922,922,0,455844.092,0.685,-0.677,0.193,0.187,0,0,0,0,0,0,0,0,0,0.000,0,0,0.087,0.006,-0.060,-0.060,-0.020,0.014,0.995,0.012,-0.002,-0.006,0.002,0.000,0.000,0.000,0.000,0,2,0,3,7,255,1440,250,0,0,-89.532,0.586,-31.154
EX0521-092111,5,C09,prep,927,927,0,455849.092,0.685,-0.677,0.193,0.187,0,0,0,0,0,0,0,0,0,0.000,0,0,0.020,0.007,0.000,0.000,-0.020,0.014,0.995,0.011,-0.004,-0.006,0.002,0.000,0.000,0.000,0.000,0,2,0,3,7,255,1440,250,0,0,-89.532,0.586,-31.154
EX0521-092111,5,C09,prep,927,927,0,455854.091,0.685,-0.677,0.193,0.187,0,0,0,0,0,0,0,0,0,0.000,0,0,0.117,0.004,-0.060,-0.060,-0.080,0.015,0.995,0.011,-0.004,-0.002,0.002,0.000,0.000,0.000,0.000,0,2,0,3,7,255,1440,250,0,0,-89.532,0.586,-31.154
EX0521-092111,5,C09,prep,952,952,0,455859.091,0.685,-0.677,0.193,0.187,0,0,0,0,0,0,0,0,0,0.000,0,0,0.063,0.004,0.000,-0.060,-0.020,0.014,0.994,0.012,-0.004,-0.002,0.002,0.000,0.000,0.000,0.000,0,2,0,3,7,255,1440,250,0,0,-89.532,0.585,-31.154
EX0521-092111,5,C09,prep,952,952,0,455864.092,0.685,-0.677,0.193,0.187,0,0,0,0,0,0,0,0,0,0.000,0,0,0.063,0.004,0.000,-0.060,-0.020,0.015,0.994,0.012,0.000,-0.004,-0.002,0.000,0.000,0.000,0.000,0,2,0,3,7,255,1440,250,0,0,-89.533,0.587,-31.154
EX0521-092111,5,C09,prep,988,988,0,455869.092,0.685,-0.677,0.193,0.187,0,0,0,0,0,0,0,0,0,0.000,0,0,0.087,0.006,-0.060,-0.060,-0.020,0.015,0.994,0.011,0.000,-0.006,-0.002,0.000,0.000,0.000,0.000,0,2,0,3,7,255,1440,250,0,0,-89.533,0.586,-31.154
EX0521-092111,5,C09,prep,988,988,0,455874.092,0.685,-0.677,0.193,0.187,0,0,0,0,0,0,0,0,0,0.000,0,0,0.087,0.007,-0.060,-0.060,-0.020,0.015,0.994,0.010,0.004,-0.006,-0.002,0.000,0.000,0.000,0.000,0,2,0,3,7,255,1440,250,0,0,-89.533,0.586,-31.154
EX0521-092111,5,C09,prep,988,988,0,455879.093,0.685,-0.677,0.193,0.187,0,0,0,0,0,0,0,0,0,0.000,0,0,0.020,0.004,0.000,0.000,-0.020,0.015,0.995,0.011,0.004,0.000,-0.002,0.000,0.000,0.000,0.000,0,2,0,3,7,255,1440,250,0,0,-89.534,0.586,-31.154
EX0521-092111,5,C09,prep,988,988,0,455884.091,0.685,-0.677,0.193,0.187,0,0,0,0,0,0,0,0,0,0.000,0,0,0.087,0.002,0.060,-0.060,-0.020,0.014,0.995,0.012,0.002,0.000,0.002,0.000,0.000,0.000,0.000,0,2,0,3,7,255,1440,250,0,0,-89.534,0.585,-31.154
EX0521-092111,5,C09,prep,988,988,0,455889.092,0.685,-0.677,0.193,0.187,0,0,0,0,0,0,0,0,0,0.000,0,0,0.100,0.002,0.000,-0.060,-0.080,0.014,0.995,0.011,-0.002,0.000,0.002,0.000,0.000,0.000,0.000,0,2,0,3,7,255,1440,250,0,0,-89.534,0.585,-31.154
EX0521-092111,5,C09,prep,988,988,0,455894.092,0.685,-0.677,0.193,0.187,0,0,0,0,0,0,0,0,0,0.000,0,0,0.020,0.004,0.000,0.000,-0.020,0.015,0.994,0.012,-0.002,-0.004,0.002,0.000,0.000,0.000,0.000,0,2,0,3,7,255,1440,250,0,0,-89.535,0.586,-31.154
EX0521-092111,5,C09,prep,988,988,0,455899.092,0.685,-0.677,0.193,0.187,0,0,0,0,0,0,0,0,0,0.000,0,0,0.063,0.006,0.000,-0.060,-0.020,0.015,0.993,0.011,0.000,-0.006,-0.008,0.000,0.000,0.000,0.000,0,2,0,3,7,255,1440,250,0,0,-89.535,0.587,-31.154
EX0521-092111,5,C09,prep,988,988,0,455904.092,0.685,-0.677,0.193,0.187,0,0,0,0,0,0,0,0,0,0.000,0,0,0.156,0.006,-0.060,-0.120,-0.080,0.014,0.994,0.010,0.000,-0.006,-0.008,0.000,0.000,0.000,0.000,0,2,0,3,7,255,1440,250,0,0,-89.535,0.587,-31.154
EX0521-092111,5,C09,prep,1024,1024,0,455909.092,0.685,-0.677,0.193,0.187,0,0,0,0,0,0,0,0,0,0.000,0,0,0.072,0.004,0.000,-0.060,0.040,0.015,0.995,0.011,0.000,-0.004,-0.008,0.000,0.000,0.000,0.000,0,2,0,3,7,255,1440,250,0,0,-89.536,0.587,-31.154
EX0521-092111,5,C09,prep,1024,1024,0,455914.092,0.685,-0.677,0.193,0.187,0,0,0,0,0,0,0,0,0,0.000,0,0,0.072,0.004,0.000,-0.060,0.040,0.015,0.995,0.011,0.000,-0.004,0.002,0.000,0.000,0.000,0.000,0,2,0,3,7,255,1440,250,0,0,-89.536,0.587,-31.154
EX0521-092111,5,C09,prep,1024,1024,0,455919.092,0.685,-0.677,0.193,0.187,0,0,0,0,0,0,0,0,0,0.000,0,0,0.117,0.004,0.060,-0.060,-0.080,0.015,0.994,0.010,0.000,-0.004,0.002,0.000,0.000,0.000,0.000,0,2,0,3,7,255,1440,250,0,0,-89.536,0.586,-31.154
EX0521-092111,5,C09,prep,1024,1024,0,455924.091,0.685,-0.677,0.193,0.187,0,0,0,0,0,0,0,0,0,0.000,0,0,0.020,0.004,0.000,0.000,-0.020,0.014,0.994,0.010,0.000,0.004,-0.008,0.000,0.000,0.000,0.000,0,2,0,3,7,255,1440,250,0,0,-89.536,0.586,-31.154
EX0521-092111,5,C09,prep,1024,1024,0,455929.091,0.685,-0.677,0.193,0.187,0,0,0,0,0,0,0,0,0,0.000,0,0,0.063,0.004,0.000,-0.060,-0.020,0.014,0.994,0.011,0.000,0.004,-0.008,0.000,0.000,0.000,0.000,0,2,0,3,7,255,1440,250,0,0,-89.537,0.586,-31.154
EX0521-092111,5,C09,prep,1024,1024,0,455934.092,0.685,-0.677,0.193,0.187,0,0,0,0,0,0,0,0,0,0.000,0,0,0.063,0.002,0.000,-0.060,-0.020,0.016,0.994,0.011,0.000,-0.002,-0.006,0.000,0.000,0.000,0.000,0,2,0,3,7,255,1440,250,0,0,-89.537,0.587,-31.154
EX0521-092111,5,C09,prep,1026,1026,0,455939.092,0.685,-0.677,0.193,0.187,0,0,0,0,0,0,0,0,0,0.000,0,0,0.063,0.004,0.000,-0.060,-0.020,0.015,0.994,0.011,0.000,-0.004,-0.002,0.000,0.000,0.000,0.000,0,2,0,3,7,255,1440,250,0,0,-89.537,0.587,-31.154
EX0521-092111,5,C09,prep,1026,1026,0,455944.091,0.685,-0.677,0.193,0.187,0,0,0,0,0,0,0,0,0,0.000,0,0,0.144,0.004,0.000,-0.120,-0.080,0.015,0.994,0.011,0.000,-0.004,-0.002,0.000,0.000,0.000,0.000,0,2,0,3,7,255,1440,250,0,0,-89.538,0.586,-31.154
EX0521-092111,5,C09,prep,1026,1026,0,455949.091,0.685,-0.677,0.193,0.187,0,0,0,0,0,0,0,0,0,0.000,0,0,0.063,0.004,0.000,-0.060,-0.020,0.015,0.995,0.011,0.000,-0.004,-0.002,0.000,0.000,0.000,0.000,0,2,0,3,7,255,1440,250,0,0,-89.538,0.586,-31.154
EX0521-092111,5,C09,prep,1026,1026,0,455954.091,0.685,-0.677,0.193,0.187,0,0,0,0,0,0,0,0,0,0.000,0,0,0.100,0.004,0.000,-0.060,-0.080,0.015,0.995,0.011,0.000,-0.004,0.002,0.000,0.000,0.000,0.000,0,2,0,3,7,255,1440,250,0,0,-89.538,0.586,-31.154
EX0521-092111,5,C09,prep,1089,1089,0,455959.095,0.685,-0.677,0.193,0.187,0,0,0,0,0,0,0,0,0,0.000,0,0,0.063,0.004,0.000,-0.060,-0.020,0.015,0.995,0.012,0.000,-0.004,0.002,0.000,0.000,0.000,0.000,0,2,0,3,7,255,1440,250,0,0,-89.539,0.586,-31.154
EX0521-092111,5,C09,prep,1089,1089,0,455964.092,0.685,-0.677,0.193,0.187,0,0,0,0,0,0,0,0,0,0.000,0,0,0.087,0.009,0.060,-0.060,-0.020,0.015,0.996,0.012,-0.004,-0.008,0.008,0.000,0.000,0.000,0.000,0,2,0,3,7,255,1440,250,0,0,-89.539,0.585,-31.154
EX0521-092111,5,C09,prep,1089,1089,0,455969.091,0.685,-0.677,0.193,0.187,0,0,0,0,0,0,0,0,0,0.000,0,0,0.063,0.009,0.000,-0.060,-0.020,0.015,0.995,0.010,-0.004,-0.008,0.008,0.000,0.000,0.000,0.000,0,2,0,3,7,255,1440,250,0,0,-89.539,0.585,-31.154
EX0521-092111,5,C09,prep,1089,1089,0,455974.091,0.685,-0.677,0.193,0.187,0,0,0,0,0,0,0,0,0,0.000,0,0,0.063,0.004,0.000,-0.060,-0.020,0.015,0.996,0.011,0.000,-0.004,0.012,0.000,0.000,0.000,0.000,0,2,0,3,7,255,1440,250,0,0,-89.539,0.585,-31.154
EX0521-092111,5,C09,prep,1089,1089,0,455979.095,0.685,-0.677,0.193,0.187,0,0,0,0,0,0,0,0,0,0.000,0,0,0.063,0.006,0.000,-0.060,-0.020,0.015,0.994,0.011,0.006,-0.002,0.006,0.000,0.000,0.000,0.000,0,2,0,3,7,255,1440,250,0,0,-89.540,0.586,-31.154
EX0521-092111,5,C09,prep,1089,1089,0,455984.092,0.685,-0.677,0.193,0.187,0,0,0,0,0,0,0,0,0,0.000,0,0,0.063,0.006,0.000,-0.060,-0.020,0.015,0.994,0.011,0.006,-0.002,-0.002,0.000,0.000,0.000,0.000,0,2,0,3,7,255,1440,250,0,0,-89.540,0.586,-31.154
EX0521-092111,5,C09,prep,1099,1099,0,455989.092,0.685,-0.677,0.193,0.187,0,0,0,0,0,0,0,0,0,0.000,0,0,0.063,0.006,0.000,-0.060,-0.020,0.014,0.994,0.012,0.006,-0.002,-0.002,0.000,0.000,0.000,0.000,0,2,0,3,7,255,1440,250,0,0,-89.540,0.585,-31.154
EX0521-092111,5,C09,prep,1099,1099,0,455994.091,0.685,-0.677,0.193,0.187,0,0,0,0,0,0,0,0,0,0.000,0,0,0.100,0.008,0.000,-0.060,-0.080,0.014,0.994,0.011,-0.008,-0.002,-0.002,0.000,0.000,0.000,0.000,0,2,0,3,7,255,1440,250,0,0,-89.541,0.585,-31.154
EX0521-092111,5,C09,prep,1099,1099,0,455999.092,0.685,-0.677,0.193,0.187,0,0,0,0,0,0,0,0,0,0.000,0,0,0.063,0.010,0.000,-0.060,-0.020,0.015,0.994,0.012,-0.008,-0.006,-0.002,0.000,0.000,0.000,0.000,0,2,0,3,7,255,1440,250,0,0,-89.541,0.586,-31.154
EX0521-092111,5,C09,prep,1099,1099,0,456004.092,0.685,-0.677,0.193,0.187,0,0,0,0,0,0,0,0,0,0.000,0,0,0.063,0.003,0.000,-0.060,-0.020,0.015,0.994,0.010,-0.002,0.002,-0.002,0.000,0.000,0.000,0.000,0,2,0,3,7,255,1440,250,0,0,-89.541,0.586,-31.154
EX0521-092111,5,C09,prep,1100,1100,0,456009.092,0.685,-0.677,0.193,0.187,0,0,0,0,0,0,0,0,0,0.000,0,0,0.144,0.014,0.000,-0.120,-0.080,0.016,0.995,0.012,0.002,-0.014,-0.002,0.000,0.000,0.000,0.000,0,2,0,3,7,255,1440,250,0,0,-89.542,0.587,-31.154
EX0521-092111,5,C09,prep,1100,1100,0,456014.091,0.685,-0.677,0.193,0.187,0,0,0,0,0,0,0,0,0,0.000,0,0,0.063,0.016,0.000,-0.060,-0.020,0.015,0.994,0.013,0.002,-0.016,-0.002,0.000,0.000,0.000,0.000,0,2,0,3,7,255,1440,250,0,0,-89.542,0.587,-31.154
EX0521-092111,5,C09,prep,1100,1100,0,456019.092,0.685,-0.677,0.193,0.187,0,0,0,0,0,0,0,0,0,0.000,0,0,0.063,0.016,0.000,-0.060,-0.020,0.015,0.993,0.012,0.000,-0.016,-0.008,0.000,0.000,0.000,0.000,0,2,0,3,7,255,1440,250,0,0,-89.542,0.586,-31.154
EX0521-092111,5,C09,prep,1100,1100,0,456024.092,0.685,-0.677,0.193,0.187,0,0,0,0,0,0,0,0,0,0.000,0,0,0.122,0.012,0.000,-0.120,-0.020,0.014,0.994,0.011,-0.006,-0.010,-0.008,0.000,0.000,0.000,0.000,0,2,0,3,7,255,1440,250,0,0,-89.542,0.586,-31.154
EX0521-092111,5,C09,prep,1119,1119,0,456029.092,0.685,-0.677,0.193,0.187,0,0,0,0,0,0,0,0,0,0.000,0,0,0.117,0.010,0.060,-0.060,-0.080,0.015,0.995,0.012,0.000,-0.010,-0.002,0.000,0.000,0.000,0.000,0,2,0,3,7,255,1440,250,0,0,-89.543,0.586,-31.154
EX0521-092111,5,C09,prep,1119,1119,0,456034.092,0.685,-0.677,0.193,0.187,0,0,0,0,0,0,0,0,0,0.000,0,0,0.100,0.004,0.000,-0.060,-0.080,0.015,0.995,0.011,0.000,-0.004,0.008,0.000,0.000,0.000,0.000,0,2,0,3,7,255,1440,250,0,0,-89.543,0.586,-31.154
EX0521-092111,5,C09,prep,1119,1119,0,456039.091,0.685,-0.677,0.193,0.187,0,0,0,0,0,0,0,0,0,0.000,0,0,0.087,0.004,-0.060,-0.060,-0.020,0.015,0.994,0.011,0.000,-0.004,0.008,0.000,0.000,0.000,0.000,0,2,0,3,7,255,1440,250,0,0,-89.543,0.585,-31.154
EX0521-092111,5,C09,prep,1119,1119,0,456044.091,0.685,-0.677,0.193,0.187,0,0,0,0,0,0,0,0,0,0.000,0,0,0.063,0.004,0.000,-0.060,-0.020,0.015,0.995,0.012,0.000,-0.004,0.002,0.000,0.000,0.000,0.000,0,2,0,3,7,255,1440,250,0,0,-89.544,0.585,-31.154
EX0521-092111,5,C09,prep,1135,1135,0,456049.092,0.685,-0.677,0.193,0.187,0,0,0,0,0,0,0,0,0,0.000,0,0,0.063,0.004,-0.060,0.000,-0.020,0.015,0.994,0.011,0.000,-0.004,-0.002,0.000,0.000,0.000,0.000,0,2,0,3,7,255,1440,250,0,0,-89.544,0.586,-31.154
EX0521-092111,5,C09,prep,1135,1135,0,456054.092,0.685,-0.677,0.193,0.187,0,0,0,0,0,0,0,0,0,0.000,0,0,0.087,0.002,-0.060,-0.060,-0.020,0.014,0.995,0.011,0.000,-0.002,0.002,0.000,0.000,0.000,0.000,0,2,0,3,7,255,1440,250,0,0,-89.544,0.586,-31.154
EX0521-092111,5,C09,prep,1135,1135,0,456059.091,0.685,-0.677,0.193,0.187,0,0,0,0,0,0,0,0,0,0.000,0,0,0.087,0.003,-0.060,-0.060,-0.020,0.015,0.996,0.012,-0.002,-0.002,0.006,0.000,0.000,0.000,0.000,0,2,0,3,7,255,1440,250,0,0,-89.545,0.586,-31.154
EX0521-092111,5,C09,prep,1135,1135,0,456064.093,0.685,-0.677,0.193,0.187,0,0,0,0,0,0,0,0,0,0.000,0,0,0.063,0.003,0.000,-0.060,-0.020,0.015,0.994,0.010,-0.002,0.002,0.006,0.000,0.000,0.000,0.000,0,2,0,3,7,255,1440,250,0,0,-89.545,0.587,-31.154
EX0521-092111,5,C09,prep,1167,1167,0,456069.092,0.685,-0.677,0.193,0.187,0,0,0,0,0,0,0,0,0,0.000,0,0,0.122,0.004,0.000,-0.120,-0.020,0.015,0.995,0.011,-0.002,-0.004,0.002,0.000,0.000,0.000,0.000,0,2,0,3,7,255,1440,250,0,0,-89.545,0.586,-31.154
EX0521-092111,5,C09,prep,1167,1167,0,456074.092,0.685,-0.677,0.193,0.187,0,0,0,0,0,0,0,0,0,0.000,0,0,0.063,0.004,0.000,-0.060,-0.020,0.015,0.995,0.013,-0.002,-0.004,0.002,0.000,0.000,0.000,0.000,0,2,0,3,7,255,1440,250,0,0,-89.545,0.586,-31.154
EX0521-092111,5,C09,prep,1167,1167,0,456079.093,0.685,-0.677,0.193,0.187,0,0,0,0,0,0,0,0,0,0.000,0,0,0.020,0.009,0.000,0.000,-0.020,0.014,0.995,0.012,-0.008,-0.004,0.006,0.000,0.000,0.000,0.000,0,2,0,3,7,255,1440,250,0,0,-89.546,0.586,-31.154
EX0521-092111,5,C09,prep,1167,1167,0,456084.091,0.685,-0.677,0.193,0.187,0,0,0,0,0,0,0,0,0,0.000,0,0,0.087,0.009,0.060,-0.060,-0.020,0.015,0.995,0.011,-0.008,-0.004,0.006,0.000,0.000,0.000,0.000,0,2,0,3,7,255,1440,250,0,0,-89.546,0.586,-31.154
EX0521-092111,5,C09,prep,1167,1167,0,456089.091,0.685,-0.677,0.193,0.187,0,0,0,0,0,0,0,0,0,0.000,0,0,0.122,0.006,0.000,-0.120,-0.020,0.014,0.993,0.011,-0.006,0.000,0.006,0.000,0.000,0.000,0.000,0,2,0,3,7,255,1440,250,0,0,-89.546,0.585,-31.154
EX0521-092111,5,C09,prep,1167,1167,0,456094.092,0.685,-0.677,0.193,0.187,0,0,0,0,0,0,0,0,0,0.000,0,0,0.156,0.002,0.060,-0.120,-0.080,0.015,0.995,0.011,0.002,0.000,0.002,0.000,0.000,0.000,0.000,0,2,0,3,7,255,1440,250,0,0,-89.547,0.586,-31.154
EX0521-092111,5,C09,prep,1188,1188,0,456099.092,0.685,-0.677,0.193,0.187,0,0,0,0,0,0,0,0,0,0.000,0,0,0.063,0.004,0.000,-0.060,-0.020,0.015,0.995,0.011,-0.002,-0.004,0.002,0.000,0.000,0.000,0.000,0,2,0,3,7,255,1440,250,0,0,-89.547,0.586,-31.154
EX0521-092111,5,C09,prep,1188,1188,0,456104.091,0.685,-0.677,0.193,0.187,0,0,0,0,0,0,0,0,0,0.000,0,0,0.063,0.006,0.000,-0.060,-0.020,0.015,0.995,0.012,-0.002,-0.006,0.002,0.000,0.000,0.000,0.000,0,2,0,3,7,255,1440,250,0,0,-89.547,0.586,-31.154
EX0521-092111,5,C09,prep,1190,1190,0,456109.091,0.685,-0.677,0.193,0.187,0,0,0,0,0,0,0,0,0,0.000,0,0,0.020,0.006,0.000,0.000,-0.020,0.014,0.995,0.010,-0.004,-0.004,0.002,0.000,0.000,0.000,0.000,0,2,0,3,7,255,1440,250,0,0,-89.548,0.586,-31.154
EX0521-092111,5,C09,prep,1190,1190,0,456114.092,0.685,-0.677,0.193,0.187,0,0,0,0,0,0,0,0,0,0.000,0,0,0.063,0.004,0.000,-0.060,-0.020,0.014,0.994,0.011,-0.004,-0.002,0.002,0.000,0.000,0.000,0.000,0,2,0,3,7,255,1440,250,0,0,-89.548,0.585,-31.154
EX0521-092111,5,C09,prep,1199,1199,0,456119.092,0.685,-0.677,0.193,0.187,0,0,0,0,0,0,0,0,0,0.000,0,0,0.063,0.004,0.000,-0.060,-0.020,0.015,0.995,0.011,-0.004,-0.002,0.002,0.000,0.000,0.000,0.000,0,2,0,3,7,255,1440,250,0,0,-89.548,0.586,-31.154
EX0521-092111,5,C09,prep,1199,1199,0,456124.092,0.685,-0.677,0.193,0.187,0,0,0,0,0,0,0,0,0,0.000,0,0,0.063,0.006,0.000,-0.060,-0.020,0.016,0.995,0.011,0.002,-0.006,0.002,0.000,0.000,0.000,0.000,0,2,0,3,7,255,1440,250,0,0,-89.549,0.588,-31.154
EX0521-092111,5,C09,prep,1222,1222,0,456129.091,0.685,-0.677,0.193,0.187,0,0,0,0,0,0,0,0,0,0.000,0,0,0.087,0.006,0.060,-0.060,-0.020,0.015,0.995,0.011,0.002,-0.006,0.006,0.000,0.000,0.000,0.000,0,2,0,3,7,255,1440,250,0,0,-89.549,0.587,-31.154
EX0521-092111,5,C09,prep,1222,1222,0,456134.091,0.685,-0.677,0.193,0.187,0,0,0,0,0,0,0,0,0,0.000,0,0,0.063,0.008,0.000,-0.060,-0.020,0.015,0.994,0.011,0.006,-0.006,0.006,0.000,0.000,0.000,0.000,0,2,0,3,7,255,1440,250,0,0,-89.549,0.587,-31.154
EX0521-092111,5,C09,prep,1224,1224,0,456139.092,0.685,-0.677,0.193,0.187,0,0,0,0,0,0,0,0,0,0.000,0,0,0.094,0.006,0.060,-0.060,0.040,0.015,0.994,0.011,0.002,-0.006,-0.002,0.000,0.000,0.000,0.000,0,2,0,3,7,255,1440,250,0,0,-89.549,0.587,-31.154
EX0521-092111,5,C09,prep,1224,1224,0,456144.092,0.685,-0.677,0.193,0.187,0,0,0,0,0,0,0,0,0,0.000,0,0,0.094,0.006,0.060,-0.060,0.040,0.014,0.994,0.012,0.002,-0.006,-0.002,0.000,0.000,0.000,0.000,0,2,0,3,7,255,1440,250,0,0,-89.550,0.587,-31.154
EX0521-092111,5,C09,prep,1225,1225,0,456149.092,0.685,-0.677,0.193,0.187,0,0,0,0,0,0,0,0,0,0.000,0,0,0.063,0.006,0.000,-0.060,-0.020,0.014,0.995,0.010,0.000,-0.006,-0.002,0.000,0.000,0.000,0.000,0,2,0,3,7,255,1440,250,0,0,-89.550,0.586,-31.154
EX0521-092111,5,C09,prep,1225,1225,0,456154.091,0.685,-0.677,0.193,0.187,0,0,0,0,0,0,0,0,0,0.000,0,0,0.063,0.004,-0.060,0.000,-0.020,0.015,0.993,0.011,-0.002,-0.004,-0.002,0.000,0.000,0.000,0.000,0,2,0,3,7,255,1440,250,0,0,-89.550,0.586,-31.154
EX0521-092111,5,C09,prep,1250,1250,0,456159.095,0.685,-0.677,0.193,0.187,0,0,0,0,0,0,0,0,0,0.000,0,0,0.063,0.004,0.000,-0.060,-0.020,0.014,0.994,0.012,-0.002,-0.004,-0.008,0.000,0.000,0.000,0.000,0,2,0,3,7,255,1440,250,0,0,-89.551,0.586,-31.154
EX0521-092111,5,C09,prep,1250,1250,0,456164.092,0.685,-0.677,0.193,0.187,0,0,0,0,0,0,0,0,0,0.000,0,0,0.136,0.007,-0.060,-0.120,-0.020,0.014,0.993,0.011,-0.006,-0.004,-0.012,0.000,0.000,0.000,0.000,0,2,0,3,7,255,1440,250,0,0,-89.551,0.585,-31.154
EX0521-092111,5,C09,prep,1290,1290,0,456169.092,0.685,-0.677,0.193,0.187,0,0,0,0,0,0,0,0,0,0.000,0,0,0.063,0.006,0.000,-0.060,-0.020,0.014,0.995,0.011,-0.006,-0.002,-0.008,0.000,0.000,0.000,0.000,0,2,0,3,7,255,1440,250,0,0,-89.551,0.585,-31.154
EX0521-092111,5,C09,prep,1290,1290,0,456174.091,0.685,-0.677,0.193,0.187,0,0,0,0,0,0,0,0,0,0.000,0,0,0.100,0.006,0.000,-0.060,-0.080,0.015,0.995,0.010,-0.006,-0.002,0.002,0.000,0.000,0.000,0.000,0,2,0,3,7,255,1440,250,0,0,-89.552,0.585,-31.154
EX0521-092111,5,C09,prep,1290,1290,0,456179.093,0.685,-0.677,0.193,0.187,0,0,0,0,0,0,0,0,0,0.000,0,0,0.087,0.004,-0.060,-0.060,-0.020,0.015,0.993,0.010,0.004,0.002,0.002,0.000,0.000,0.000,0.000,0,2,0,3,7,255,1440,250,0,0,-89.552,0.585,-31.154
EX0521-092111,5,C09,prep,1290,1290,0,456184.092,0.685,-0.677,0.193,0.187,0,0,0,0,0,0,0,0,0,0.000,0,0,0.063,0.004,0.000,-0.060,-0.020,0.014,0.994,0.011,0.004,0.002,-0.002,0.000,0.000,0.000,0.000,0,2,0,3,7,255,1440,250,0,0,-89.552,0.584,-31.154
EX0521-092111,5,C09,prep,1290,1290,0,456189.092,0.685,-0.677,0.193,0.187,0,0,0,0,0,0,0,0,0,0.000,0,0,0.063,0.003,0.000,-0.060,-0.020,0.014,0.995,0.011,-0.002,0.002,-0.002,0.000,0.000,0.000,0.000,0,2,0,3,7,255,1440,250,0,0,-89.552,0.584,-31.154
EX0521-092111,5,C09,prep,1290,1290,0,456194.091,0.685,-0.677,0.193,0.187,0,0,0,0,0,0,0,0,0,0.000,0,0,0.087,0.006,0.060,-0.060,-0.020,0.014,0.996,0.011,-0.006,0.000,0.002,0.000,0.000,0.000,0.000,0,2,0,3,7,255,1440,250,0,0,-89.553,0.584,-31.154
EX0521-092111,5,C09,prep,1290,1290,0,456199.091,0.685,-0.677,0.193,0.187,0,0,0,0,0,0,0,0,0,0.000,0,0,0.063,0.006,0.000,-0.060,-0.020,0.014,0.994,0.011,-0.006,0.000,0.002,0.000,0.000,0.000,0.000,0,2,0,3,7,255,1440,250,0,0,-89.553,0.584,-31.154
EX0521-092111,5,C09,prep,1290,1290,0,456204.092,0.685,-0.677,0.193,0.187,0,0,0,0,0,0,0,0,0,0.000,0,0,0.063,0.006,0.000,-0.060,-0.020,0.015,0.994,0.012,-0.006,-0.002,-0.008,0.000,0.000,0.000,0.000,0,2,0,3,7,255,1440,250,0,0,-89.553,0.583,-31.154
EX0521-092111,5,C09,prep,1291,1291,0,456209.092,0.685,-0.677,0.193,0.187,0,0,0,0,0,0,0,0,0,0.000,0,0,0.063,0.006,0.000,-0.060,-0.020,0.014,0.995,0.011,-0.006,0.000,-0.008,0.000,0.000,0.000,0.000,0,2,0,3,7,255,1440,250,0,0,-89.554,0.583,-31.154
EX0521-092111,5,C09,prep,1291,1291,0,456214.092,0.685,-0.678,0.193,0.187,0,0,0,0,0,0,0,0,0,0.000,0,0,0.063,0.006,0.000,-0.060,-0.020,0.014,0.995,0.011,-0.006,0.002,0.002,0.000,0.000,0.000,0.000,0,2,0,3,7,255,1440,250,0,0,-89.554,0.583,-31.154
EX0521-092111,5,C09,prep,1295,1295,0,456219.092,0.685,-0.678,0.193,0.187,0,0,0,0,0,0,0,0,0,0.000,0,0,0.063,0.003,0.000,-0.060,-0.020,0.015,0.995,0.011,-0.002,0.002,0.002,0.000,0.000,0.000,0.000,0,2,0,3,7,255,1440,250,0,0,-89.554,0.584,-31.154
EX0521-092111,5,C09,prep,1295,1295,0,456224.091,0.685,-0.678,0.193,0.187,0,0,0,0,0,0,0,0,0,0.000,0,0,0.087,0.003,-0.060,-0.060,-0.020,0.013,0.994,0.012,-0.002,-0.002,0.002,0.000,0.000,0.000,0.000,0,2,0,3,7,255,1440,250,0,0,-89.555,0.584,-31.154
EX0521-092111,5,C09,prep,1321,1321,0,456229.092,0.685,-0.678,0.193,0.187,0,0,0,0,0,0,0,0,0,0.000,0,0,0.063,0.004,0.000,-0.060,-0.020,0.015,0.994,0.010,0.004,-0.002,-0.008,0.000,0.000,0.000,0.000,0,2,0,3,7,255,1440,250,0,0,-89.555,0.583,-31.154
EX0521-092111,5,C09,prep,1321,1321,0,456234.092,0.685,-0.678,0.193,0.187,0,0,0,0,0,0,0,0,0,0.000,0,0,0.100,0.004,0.000,-0.060,-0.080,0.015,0.993,0.011,0.004,-0.002,-0.008,0.000,0.000,0.000,0.000,0,2,0,3,7,255,1440,250,0,0,-89.555,0.584,-31.154
EX0521-092111,5,C09,prep,1322,1322,0,456239.092,0.685,-0.678,0.193,0.187,0,0,0,0,0,0,0,0,0,0.000,0,0,0.063,0.006,0.000,-0.060,-0.020,0.015,0.994,0.010,0.004,0.004,-0.008,0.000,0.000,0.000,0.000,0,2,0,3,7,255,1440,250,0,0,-89.555,0.584,-31.154
EX0521-092111,5,C09,prep,1322,1322,0,456244.091,0.685,-0.678,0.193,0.187,0,0,0,0,0,0,0,0,0,0.000,0,0,0.087,0.009,0.060,-0.060,-0.020,0.015,0.993,0.012,0.004,-0.008,-0.012,0.000,0.000,0.000,0.000,0,2,0,3,7,255,1440,250,0,0,-89.556,0.585,-31.154
EX0521-092111,5,C09,prep,1322,1322,0,456249.091,0.685,-0.678,0.193,0.187,0,0,0,0,0,0,0,0,0,0.000,0,0,0.020,0.007,0.000,0.000,-0.020,0.016,0.994,0.011,0.004,-0.006,-0.002,0.000,0.000,0.000,0.000,0,2,0,3,7,255,1440,250,0,0,-89.556,0.586,-31.154
EX0521-092111,5,C09,prep,1322,1322,0,456254.092,0.685,-0.678,0.193,0.187,0,0,0,0,0,0,0,0,0,0.000,0,0,0.087,0.006,-0.060,-0.060,-0.020,0.014,0.994,0.012,0.000,-0.006,-0.002,0.000,0.000,0.000,0.000,0,2,0,3,7,255,1440,250,0,0,-89.556,0.586,-31.154
EX0521-092111,5,C09,prep,1375,1375,0,456259.092,0.685,-0.678,0.193,0.187,0,0,0,0,0,0,0,0,0,0.000,0,0,0.100,0.012,0.000,-0.060,-0.080,0.016,0.994,0.010,0.010,-0.006,-0.002,0.000,0.000,0.000,0.000,0,2,0,3,7,255,1440,250,0,0,-89.557,0.587,-31.154
EX0521-092111,5,C09,prep,1375,1375,0,456264.091,0.685,-0.677,0.193,0.187,0,0,0,0,0,0,0,0,0,0.000,0,0,0.020,0.006,0.000,0.000,-0.020,0.016,0.994,0.013,0.000,-0.006,-0.002,0.000,0.000,0.000,0.000,0,2,0,3,7,255,1440,250,0,0,-89.552,0.589,-31.154
EX0521-092111,5,C09,prep,1375,1375,0,456269.091,0.685,-0.677,0.193,0.187,0,0,0,0,0,0,0,0,0,0.000,0,0,0.117,0.002,-0.060,-0.060,-0.080,0.014,0.994,0.011,0.000,-0.002,-0.002,0.000,0.000,0.000,0.000,0,2,0,3,7,255,1440,250,0,0,-89.553,0.588,-31.154
EX0521-092111,5,C09,prep,1375,1375,0,456274.092,0.685,-0.677,0.193,0.187,0,0,0,0,0,0,0,0,0,0.000,0,0,0.063,0.004,0.000,-0.060,-0.020,0.015,0.994,0.011,-0.002,-0.004,-0.002,0.000,0.000,0.000,0.000,0,2,0,3,7,255,1440,250,0,0,-89.553,0.588,-31.154
EX0521-092111,5,C09,prep,1375,1375,0,456279.095,0.685,-0.677,0.193,0.187,0,0,0,0,0,0,0,0,0,0.000,0,0,0.063,0.006,0.000,-0.060,-0.020,0.014,0.995,0.012,-0.004,-0.004,-0.002,0.000,0.000,0.000,0.000,0,2,0,3,7,255,1440,250,0,0,-89.553,0.588,-31.154
EX0521-092111,5,C09,prep,1375,1375,0,456284.091,0.685,-0.677,0.193,0.187,0,0,0,0,0,0,0,0,0,0.000,0,0,0.087,0.004,-0.060,-0.060,-0.020,0.016,0.994,0.010,-0.002,-0.004,-0.002,0.000,0.000,0.000,0.000,0,2,0,3,7,255,1440,250,0,0,-89.554,0.589,-31.154
EX0521-092111,5,C09,prep,1391,1391,0,456289.091,0.685,-0.677,0.193,0.187,0,0,0,0,0,0,0,0,0,0.000,0,0,0.122,0.006,0.000,-0.120,-0.020,0.014,0.995,0.011,-0.006,0.000,0.002,0.000,0.000,0.000,0.000,0,2,0,3,7,255,1440,250,0,0,-89.554,0.589,-31.154
EX0521-092111,5,C09,prep,1391,1391,0,456294.091,0.685,-0.677,0.193,0.187,0,0,0,0,0,0,0,0,0,0.000,0,0,0.087,0.002,0.060,-0.060,-0.020,0.015,0.995,0.011,-0.002,0.000,0.002,0.000,0.000,0.000,0.000,0,2,0,3,7,255,1440,250,0,0,-89.554,0.589,-31.154
EX0521-092111,5,C09,prep,1391,1391,0,456299.092,0.685,-0.677,0.193,0.187,0,0,0,0,0,0,0,0,0,0.000,0,0,0.122,0.006,0.000,-0.120,-0.020,0.013,0.994,0.011,-0.006,0.000,0.002,0.000,0.000,0.000,0.000,0,2,0,3,7,255,1440,250,0,0,-89.555,0.588,-31.154
EX0521-092111,5,C09,prep,1391,1391,0,456304.092,0.685,-0.677,0.193,0.187,0,0,0,0,0,0,0,0,0,0.000,0,0,0.063,0.010,0.000,-0.060,-0.020,0.014,0.994,0.011,-0.008,0.006,-0.002,0.000,0.000,0.000,0.000,0,2,0,3,7,255,1440,250,0,0,-89.555,0.588,-31.154
EX0521-092111,5,C09,prep,1391,1391,0,456309.091,0.685,-0.677,0.193,0.187,0,0,0,0,0,0,0,0,0,0.000,0,0,0.100,0.012,0.000,-0.060,-0.080,0.014,0.993,0.012,-0.010,0.006,-0.006,0.000,0.000,0.000,0.000,0,2,0,3,7,255,1440,250,0,0,-89.555,0.588,-31.154
EX0521-092111,5,C09,prep,1391,1391,0,456314.091,0.685,-0.678,0.193,0.187,0,0,0,0,0,0,0,0,0,0.000,0,0,0.122,0.010,0.000,-0.120,-0.020,0.014,0.995,0.012,-0.008,-0.006,-0.006,0.000,0.000,0.000,0.000,0,2,0,3,7,255,1440,250,0,0,-89.555,0.587,-31.154
EX0521-092111,5,C09,prep,1422,1422,0,456319.093,0.685,-0.678,0.193,0.187,0,0,0,0,0,0,0,0,0,0.000,0,0,0.063,0.013,0.000,-0.060,-0.020,0.015,0.995,0.012,-0.008,-0.010,0.002,0.000,0.000,0.000,0.000,0,2,0,3,7,255,1440,250,0,0,-89.556,0.587,-31.154
EX0521-092111,5,C09,prep,1422,1422,0,456324.092,0.685,-0.677,0.193,0.187,0,0,0,0,0,0,0,0,0,0.000,0,0,0.063,0.011,0.000,-0.060,-0.020,0.015,0.994,0.013,-0.004,-0.010,0.002,0.000,0.000,0.000,0.000,0,2,0,3,7,255,1440,250,0,0,-89.552,0.587,-31.154
EX0521-092111,5,C09,prep,1422,1422,0,456329.092,0.685,-0.677,0.193,0.187,0,0,0,0,0,0,0,0,0,0.000,0,0,0.122,0.010,0.000,-0.120,-0.020,0.015,0.994,0.011,0.000,-0.010,-0.002,0.000,0.000,0.000,0.000,0,2,0,3,7,255,1440,250,0,0,-89.552,0.587,-31.154
EX0521-092111,5,C09,prep,1422,1422,0,456334.091,0.685,-0.677,0.193,0.187,0,0,0,0,0,0,0,0,0,0.000,0,0,0.063,0.002,0.000,-0.060,-0.020,0.015,0.995,0.011,0.000,-0.002,-0.002,0.000,0.000,0.000,0.000,0,2,0,3,7,255,1440,250,0,0,-89.552,0.586,-31.154
EX0521-092111,5,C09,prep,1423,1423,0,456339.092,0.685,-0.677,0.193,0.187,0,0,0,0,0,0,0,0,0,0.000,0,0,0.063,0.006,0.000,-0.060,-0.020,0.016,0.994,0.011,0.006,-0.002,-0.006,0.000,0.000,0.000,0.000,0,2,0,3,7,255,1440,250,0,0,-89.552,0.588,-31.154
EX0521-092111,5,C09,prep,1423,1423,0,456344.092,0.685,-0.677,0.193,0.187,0,0,0,0,0,0,0,0,0,0.000,0,0,0.063,0.006,0.000,-0.060,-0.020,0.015,0.995,0.011,0.002,-0.006,0.004,0.000,0.000,0.000,0.000,0,2,0,3,7,255,1440,250,0,0,-89.553,0.587,-31.154
EX0521-092111,5,C09,prep,1453,1453,0,456349.092,0.685,-0.677,0.193,0.187,0,0,0,0,0,0,0,0,0,0.000,0,0,0.063,0.006,0.000,-0.060,-0.020,0.015,0.995,0.012,0.002,-0.006,0.002,0.000,0.000,0.000,0.000,0,2,0,3,7,255,1440,250,0,0,-89.553,0.587,-31.154
EX0521-092111,5,C09,prep,1453,1453,0,456354.091,0.685,-0.677,0.193,0.187,0,0,0,0,0,0,0,0,0,0.000,0,0,0.117,0.007,-0.060,-0.060,-0.080,0.014,0.994,0.011,-0.004,-0.006,0.002,0.000,0.000,0.000,0.000,0,2,0,3,7,255,1440,250,0,0,-89.553,0.587,-31.154
EX0521-092111,5,C09,prep,1453,1453,0,456359.095,0.685,-0.677,0.193,0.187,0,0,0,0,0,0,0,0,0,0.000,0,0,0.063,0.004,0.000,-0.060,-0.020,0.015,0.995,0.010,-0.004,0.000,0.002,0.000,0.000,0.000,0.000,0,2,0,3,7,255,1440,250,0,0,-89.554,0.587,-31.154
EX0521-092111,5,C09,prep,1453,1453,0,456364.092,0.685,-0.677,0.193,0.187,0,0,0,0,0,0,0,0,0,0.000,0,0,0.122,0.006,0.000,-0.120,-0.020,0.014,0.994,0.010,0.000,0.006,-0.002,0.000,0.000,0.000,0.000,0,2,0,3,7,255,1440,250,0,0,-89.554,0.586,-31.154
EX0521-092111,5,C09,prep,1488,1488,0,456369.092,0.685,-0.677,0.193,0.187,0,0,0,0,0,0,0,0,0,0.000,0,0,0.100,0.006,0.060,0.000,-0.080,0.014,0.995,0.011,0.000,0.006,0.002,0.000,0.000,0.000,0.000,0,2,0,3,7,255,1440,250,0,0,-89.554,0.586,-31.154
EX0521-092111,5,C09,prep,1488,1488,0,456374.092,0.685,-0.677,0.193,0.187,0,0,0,0,0,0,0,0,0,0.000,0,0,0.122,0.004,0.000,-0.120,-0.020,0.015,0.994,0.012,-0.002,0.004,-0.002,0.000,0.000,0.000,0.000,0,2,0,3,7,255,1440,250,0,0,-89.555,0.587,-31.154
EX0521-092111,5,C09,prep,1488,1488,0,456379.093,0.685,-0.677,0.193,0.187,0,0,0,0,0,0,0,0,0,0.000,0,0,0.063,0.004,0.000,-0.060,-0.020,0.015,0.995,0.011,-0.002,-0.004,0.002,0.000,0.000,0.000,0.000,0,2,0,3,7,255,1440,250,0,0,-89.555,0.587,-31.154
EX0521-092111,5,C09,prep,1488,1488,0,456384.091,0.685,-0.678,0.193,0.187,0,0,0,0,0,0,0,0,0,0.000,0,0,0.063,0.004,0.000,-0.060,-0.020,0.014,0.994,0.011,-0.002,-0.004,-0.002,0.000,0.000,0.000,0.000,0,2,0,3,7,255,1440,250,0,0,-89.555,0.587,-31.154
EX0521-092111,5,C09,prep,1488,1488,0,456389.092,0.685,-0.678,0.193,0.187,0,0,0,0,0,0,0,0,0,0.000,0,0,0.080,0.006,0.000,0.000,-0.080,0.015,0.995,0.013,-0.004,-0.004,0.008,0.000,0.000,0.000,0.000,0,2,0,3,7,255,1440,250,0,0,-89.555,0.586,-31.154
EX0521-092111,5,C09,prep,1488,1488,0,456394.092,0.685,-0.678,0.193,0.187,0,0,0,0,0,0,0,0,0,0.000,0,0,0.063,0.007,0.000,-0.060,-0.020,0.015,0.994,0.011,-0.004,-0.006,-0.002,0.000,0.000,0.000,0.000,0,2,0,3,7,255,1440,250,0,0,-89.556,0.586,-31.154
EX0521-092111,5,C09,prep,1489,1489,0,456399.092,0.685,-0.678,0.193,0.187,0,0,0,0,0,0,0,0,0,0.000,0,0,0.122,0.007,0.000,-0.120,-0.020,0.014,0.995,0.012,-0.004,-0.006,0.008,0.000,0.000,0.000,0.000,0,2,0,3,7,255,1440,250,0,0,-89.556,0.586,-31.154
EX0521-092111,5,C09,prep,1489,1489,0,456404.091,0.685,-0.678,0.193,0.187,0,0,0,0,0,0,0,0,0,0.000,0,0,0.100,0.006,0.000,-0.060,-0.080,0.015,0.994,0.010,0.004,-0.004,-0.002,0.000,0.000,0.000,0.000,0,2,0,3,7,255,1440,250,0,0,-89.556,0.585,-31.154
EX0521-092111,5,C09,prep,1490,1490,0,456409.092,0.685,-0.678,0.193,0.187,0,0,0,0,0,0,0,0,0,0.000,0,0,0.117,0.004,-0.060,-0.060,-0.080,0.015,0.994,0.011,0.002,-0.004,-0.002,0.000,0.000,0.000,0.000,0,2,0,3,7,255,1440,250,0,0,-89.557,0.587,-31.154
EX0521-092111,5,C09,prep,1490,1490,0,456414.092,0.685,-0.678,0.193,0.187,0,0,0,0,0,0,0,0,0,0.000,0,0,0.100,0.004,0.000,-0.060,-0.080,0.014,0.994,0.011,0.002,0.004,-0.006,0.000,0.000,0.000,0.000,0,2,0,3,7,255,1440,250,0,0,-89.557,0.586,-31.154
EX0521-092111,5,C09,prep,1503,1503,0,456419.092,0.685,-0.678,0.193,0.187,0,0,0,0,0,0,0,0,0,0.000,0,0,0.063,0.006,0.000,-0.060,-0.020,0.015,0.994,0.012,-0.002,-0.006,-0.006,0.000,0.000,0.000,0.000,0,2,0,3,7,255,1440,250,0,0,-89.557,0.586,-31.154
EX0521-092111,5,C09,prep,1503,1503,0,456424.091,0.685,-0.678,0.193,0.187,0,0,0,0,0,0,0,0,0,0.000,0,0,0.136,0.007,-0.060,-0.120,-0.020,0.014,0.994,0.012,-0.006,-0.004,-0.002,0.000,0.000,0.000,0.000,0,2,0,3,7,255,1440,250,0,0,-89.558,0.586,-31.154
EX0521-092111,5,C09,prep,1503,1503,0,456429.091,0.685,-0.678,0.193,0.187,0,0,0,0,0,0,0,0,0,0.000,0,0,0.063,0.007,0.000,-0.060,-0.020,0.015,0.994,0.011,-0.006,-0.004,-0.002,0.000,0.000,0.000,0.000,0,2,0,3,7,255,1440,250,0,0,-89.558,0.587,-31.154
EX0521-092111,5,C09,prep,1503,1503,0,456434.092,0.685,-0.678,0.193,0.187,0,0,0,0,0,0,0,0,0,0.000,0,0,0.122,0.004,0.000,-0.120,-0.020,0.015,0.995,0.010,0.004,-0.002,-0.002,0.000,0.000,0.000,0.000,0,2,0,3,7,255,1440,250,0,0,-89.558,0.587,-31.154
EX0521-092111,5,C09,prep,1519,1519,0,456439.092,0.685,-0.678,0.193,0.187,0,0,0,0,0,0,0,0,0,0.000,0,0,0.063,0.004,0.000,-0.060,-0.020,0.015,0.993,0.011,0.004,-0.002,-0.002,0.000,0.000,0.000,0.000,0,2,0,3,7,255,1440,250,0,0,-89.559,0.586,-31.154
EX0521-092111,5,C09,prep,1519,1519,0,456444.091,0.685,-0.678,0.193,0.187,0,0,0,0,0,0,0,0,0,0.000,0,0,0.020,0.002,0.000,0.000,-0.020,0.015,0.994,0.011,0.002,0.000,-0.002,0.000,0.000,0.000,0.000,0,2,0,3,7,255,1440,250,0,0,-89.559,0.586,-31.154
EX0521-092111,5,C09,prep,1535,1535,0,456449.091,0.685,-0.678,0.193,0.187,0,0,0,0,0,0,0,0,0,0.000,0,0,0.020,0.004,0.000,0.000,-0.020,0.016,0.994,0.011,0.002,-0.004,-0.002,0.000,0.000,0.000,0.000,0,2,0,3,7,255,1440,250,0,0,-89.559,0.587,-31.154
EX0521-092111,5,C09,prep,1535,1535,0,456454.092,0.685,-0.678,0.193,0.187,0,0,0,0,0,0,0,0,0,0.000,0,0,0.136,0.006,-0.060,-0.120,-0.020,0.015,0.994,0.010,0.006,0.000,-0.002,0.000,0.000,0.000,0.000,0,2,0,3,7,255,1440,250,0,0,-89.559,0.587,-31.154
EX0521-092111,5,C09,prep,1535,1535,0,456459.092,0.685,-0.678,0.193,0.187,0,0,0,0,0,0,0,0,0,0.000,0,0,0.117,0.006,0.060,-0.060,-0.080,0.014,0.995,0.011,0.006,0.000,-0.002,0.000,0.000,0.000,0.000,0,2,0,3,7,255,1440,250,0,0,-89.560,0.587,-31.154
EX0521-092111,5,C09,prep,1535,1535,0,456464.092,0.685,-0.678,0.193,0.187,0,0,0,0,0,0,0,0,0,0.000,0,0,0.100,0.002,0.000,-0.060,-0.080,0.015,0.995,0.011,-0.002,0.000,0.004,0.000,0.000,0.000,0.000,0,2,0,3,7,255,1440,250,0,0,-89.560,0.586,-31.154
EX0521-092111,5,C09,prep,1567,1567,0,456469.091,0.685,-0.678,0.193,0.187,0,0,0,0,0,0,0,0,0,0.000,0,0,0.087,0.003,-0.060,-0.060,-0.020,0.015,0.995,0.011,-0.002,-0.002,0.004,0.000,0.000,0.000,0.000,0,2,0,3,7,255,1440,250,0,0,-89.560,0.586,-31.154
EX0521-092111,5,C09,prep,1567,1567,0,456474.091,0.685,-0.678,0.193,0.187,0,0,0,0,0,0,0,0,0,0.000,0,0,0.122,0.004,0.000,-0.120,-0.020,0.015,0.994,0.012,-0.002,-0.004,0.004,0.000,0.000,0.000,0.000,0,2,0,3,7,255,1440,250,0,0,-89.561,0.586,-31.154
EX0521-092111,5,C09,prep,1567,1567,0,456479.094,0.685,-0.678,0.193,0.187,0,0,0,0,0,0,0,0,0,0.000,0,0,0.117,0.004,0.060,-0.060,-0.080,0.015,0.994,0.011,-0.002,-0.004,-0.002,0.000,0.000,0.000,0.000,0,2,0,3,7,255,1440,250,0,0,-89.561,0.586,-31.154
EX0521-092111,5,C09,prep,1567,1567,0,456484.092,0.685,-0.678,0.193,0.187,0,0,0,0,0,0,0,0,0,0.000,0,0,0.063,0.014,0.000,-0.060,-0.020,0.017,0.995,0.011,-0.002,-0.014,-0.002,0.000,0.000,0.000,0.000,0,2,0,3,7,255,1440,250,0,0,-89.561,0.587,-31.154
EX0521-092111,5,C09,prep,1567,1567,0,456489.092,0.685,-0.678,0.193,0.187,0,0,0,0,0,0,0,0,0,0.000,0,0,0.063,0.004,0.000,-0.060,-0.020,0.014,0.995,0.011,-0.002,-0.004,0.004,0.000,0.000,0.000,0.000,0,2,0,3,7,255,1440,250,0,0,-89.562,0.587,-31.154
EX0521-092111,5,C09,prep,1567,1567,0,456494.091,0.685,-0.678,0.193,0.187,0,0,0,0,0,0,0,0,0,0.000,0,0,0.063,0.006,0.000,-0.060,-0.020,0.015,0.994,0.011,0.002,-0.006,0.004,0.000,0.000,0.000,0.000,0,2,0,3,7,255,1440,250,0,0,-89.562,0.587,-31.154
EX0521-092111,5,C09,prep,1588,1588,0,456499.091,0.685,-0.678,0.193,0.187,0,0,0,0,0,0,0,0,0,0.000,0,0,0.087,0.006,-0.060,-0.060,-0.020,0.015,0.994,0.012,0.000,-0.006,-0.006,0.000,0.000,0.000,0.000,0,2,0,3,7,255,1440,250,0,0,-89.562,0.586,-31.154
EX0521-092111,5,C09,prep,1588,1588,0,456504.092,0.685,-0.678,0.193,0.187,0,0,0,0,0,0,0,0,0,0.000,0,0,0.122,0.006,0.000,-0.120,-0.020,0.015,0.994,0.011,0.000,-0.006,-0.006,0.000,0.000,0.000,0.000,0,2,0,3,7,255,1440,250,0,0,-89.562,0.586,-31.154
EX0521-092111,5,C09,prep,1590,1590,0,456509.092,0.685,-0.678,0.193,0.187,0,0,0,0,0,0,0,0,0,0.000,0,0,0.100,0.004,0.000,-0.060,-0.080,0.015,0.995,0.010,0.000,-0.004,-0.002,0.000,0.000,0.000,0.000,0,2,0,3,7,255,1440,250,0,0,-89.563,0.586,-31.154
EX0521-092111,5,C09,prep,1590,1590,0,456514.091,0.685,-0.678,0.193,0.187,0,0,0,0,0,0,0,0,0,0.000,0,0,0.063,0.006,0.000,-0.060,-0.020,0.015,0.996,0.010,0.004,0.004,0.004,0.000,0.000,0.000,0.000,0,2,0,3,7,255,1440,250,0,0,-89.563,0.585,-31.154
EX0521-092111,5,C09,prep,1599,1599,0,456519.092,0.685,-0.678,0.193,0.187,0,0,0,0,0,0,0,0,0,0.000,0,0,0.087,0.006,-0.060,-0.060,-0.020,0.015,0.995,0.010,0.004,0.004,0.008,0.000,0.000,0.000,0.000,0,2,0,3,7,255,1440,250,0,0,-89.563,0.585,-31.154
EX0521-092111,5,C09,prep,1599,1599,0,456524.092,0.685,-0.678,0.193,0.187,0,0,0,0,0,0,0,0,0,0.000,0,0,0.063,0.004,0.000,-0.060,-0.020,0.015,0.994,0.011,0.004,0.002,0.008,0.000,0.000,0.000,0.000,0,2,0,3,7,255,1440,250,0,0,-89.564,0.585,-31.154
EX0521-092111,5,C09,prep,1633,1633,0,456529.092,0.685,-0.678,0.193,0.187,0,0,0,0,0,0,0,0,0,0.000,0,0,0.122,0.004,0.000,-0.120,-0.020,0.015,0.994,0.012,-0.002,-0.004,-0.002,0.000,0.000,0.000,0.000,0,2,0,3,7,255,1440,250,0,0,-89.564,0.585,-31.154
EX0521-092111,5,C09,prep,1633,1633,0,456534.092,0.685,-0.678,0.193,0.187,0,0,0,0,0,0,0,0,0,0.000,0,0,0.063,0.006,-0.060,0.000,-0.020,0.013,0.994,0.012,-0.004,-0.004,-0.006,0.000,0.000,0.000,0.000,0,2,0,3,7,255,1440,250,0,0,-89.564,0.584,-31.154
EX0521-092111,5,C09,prep,1634,1634,0,456539.091,0.685,-0.678,0.193,0.187,0,0,0,0,0,0,0,0,0,0.000,0,0,0.063,0.006,0.000,-0.060,-0.020,0.015,0.994,0.011,-0.004,-0.004,-0.006,0.000,0.000,0.000,0.000,0,2,0,3,7,255,1440,250,0,0,-89.565,0.584,-31.154
EX0521-092111,5,C09,prep,1634,1634,0,456544.091,0.685,-0.678,0.193,0.187,0,0,0,0,0,0,0,0,0,0.000,0,0,0.100,0.004,0.000,-0.060,-0.080,0.015,0.993,0.011,-0.002,-0.004,-0.006,0.000,0.000,0.000,0.000,0,2,0,3,7,255,1440,250,0,0,-89.565,0.584,-31.154
EX0521-092111,5,C09,prep,1635,1635,0,456549.092,0.685,-0.678,0.193,0.187,0,0,0,0,0,0,0,0,0,0.000,0,0,0.117,0.004,0.060,-0.060,-0.080,0.015,0.994,0.011,-0.002,-0.004,-0.006,0.000,0.000,0.000,0.000,0,2,0,3,7,255,1440,250,0,0,-89.565,0.583,-31.154
EX0521-092111,5,C09,prep,1635,1635,0,456554.092,0.685,-0.678,0.193,0.187,0,0,0,0,0,0,0,0,0,0.000,0,0,0.063,0.002,0.000,-0.060,-0.020,0.014,0.994,0.010,-0.002,0.000,-0.006,0.000,0.000,0.000,0.000,0,2,0,3,7,255,1440,250,0,0,-89.565,0.583,-31.154
EX0521-092111,5,C09,prep,1683,1683,0,456559.092,0.685,-0.678,0.193,0.187,0,0,0,0,0,0,0,0,0,0.000,0,0,0.117,0.000,0.060,-0.060,-0.080,0.016,0.995,0.012,0.000,0.000,-0.002,0.000,0.000,0.000,0.000,0,2,0,3,7,255,1440,250,0,0,-89.566,0.584,-31.154
EX0521-092111,5,C09,prep,1683,1683,0,456564.093,0.685,-0.678,0.193,0.187,0,0,0,0,0,0,0,0,0,0.000,0,0,0.063,0.013,0.000,-0.060,-0.020,0.015,0.994,0.012,-0.004,-0.012,-0.002,0.000,0.000,0.000,0.000,0,2,0,3,7,255,1440,250,0,0,-89.566,0.584,-31.154
EX0521-092111,5,C09,prep,1683,1683,0,456569.092,0.685,-0.678,0.193,0.187,0,0,0,0,0,0,0,0,0,0.000,0,0,0.063,0.012,0.000,-0.060,-0.020,0.015,0.995,0.011,0.002,-0.012,0.004,0.000,0.000,0.000,0.000,0,2,0,3,7,255,1440,250,0,0,-89.566,0.585,-31.154
EX0521-092111,5,C09,prep,1683,1683,0,456574.092,0.685,-0.678,0.193,0.187,0,0,0,0,0,0,0,0,0,0.000,0,0,0.063,0.009,0.000,-0.060,-0.020,0.015,0.995,0.012,-0.004,-0.008,0.008,0.000,0.000,0.000,0.000,0,2,0,3,7,255,1440,250,0,0,-89.567,0.585,-31.154
EX0521-092111,5,C09,prep,1683,1683,0,456579.095,0.685,-0.678,0.193,0.187,0,0,0,0,0,0,0,0,0,0.000,0,0,0.087,0.004,0.060,-0.060,-0.020,0.015,0.995,0.011,-0.002,-0.004,0.008,0.000,0.000,0.000,0.000,0,2,0,3,7,255,1440,250,0,0,-89.567,0.585,-31.154
EX0521-092111,5,C09,prep,1683,1683,0,456584.091,0.685,-0.678,0.193,0.187,0,0,0,0,0,0,0,0,0,0.000,0,0,0.136,0.009,0.060,-0.120,-0.020,0.015,0.995,0.012,-0.004,-0.008,0.008,0.000,0.000,0.000,0.000,0,2,0,3,7,255,1440,250,0,0,-89.567,0.584,-31.154
EX0521-092111,5,C09,prep,1683,1683,0,456589.091,0.685,-0.678,0.193,0.187,0,0,0,0,0,0,0,0,0,0.000,0,0,0.063,0.006,0.000,-0.060,-0.020,0.014,0.995,0.011,-0.004,-0.004,0.008,0.000,0.000,0.000,0.000,0,2,0,3,7,255,1440,250,0,0,-89.568,0.584,-31.154
EX0521-092111,5,C09,prep,1683,1683,0,456594.092,0.685,-0.678,0.193,0.187,0,0,0,0,0,0,0,0,0,0.000,0,0,0.117,0.009,0.060,-0.060,-0.080,0.015,0.993,0.012,-0.004,-0.008,0.002,0.000,0.000,0.000,0.000,0,2,0,3,7,255,1440,250,0,0,-89.568,0.584,-31.154
EX0521-092111,5,C09,prep,1684,1684,0,456599.092,0.685,-0.678,0.193,0.187,0,0,0,0,0,0,0,0,0,0.000,0,0,0.063,0.006,0.000,-0.060,-0.020,0.014,0.995,0.011,-0.006,-0.002,0.002,0.000,0.000,0.000,0.000,0,2,0,3,7,255,1440,250,0,0,-89.568,0.584,-31.154
EX0521-092111,5,C09,prep,1684,1684,0,456604.092,0.685,-0.678,0.193,0.187,0,0,0,0,0,0,0,0,0,0.000,0,0,0.100,0.004,0.000,-0.060,-0.080,0.015,0.996,0.011,-0.004,0.000,0.008,0.000,0.000,0.000,0.000,0,2,0,3,7,255,1440,250,0,0,-89.568,0.583,-31.154
EX0521-092111,5,C09,prep,1685,1685,0,456609.091,0.685,-0.678,0.193,0.187,0,0,0,0,0,0,0,0,0,0.000,0,0,0.063,0.000,0.000,-0.060,-0.020,0.016,0.994,0.012,0.000,0.000,0.008,0.000,0.000,0.000,0.000,0,2,0,3,7,255,1440,250,0,0,-89.569,0.585,-31.154
EX0521-092111,5,C09,prep,1685,1685,0,456614.091,0.685,-0.678,0.193,0.187,0,0,0,0,0,0,0,0,0,0.000,0,0,0.063,0.002,-0.060,0.000,-0.020,0.014,0.994,0.012,0.000,-0.002,-0.002,0.000,0.000,0.000,0.000,0,2,0,3,7,255,1440,250,0,0,-89.569,0.584,-31.154
EX0521-092111,5,C09,prep,1716,1716,0,456619.092,0.685,-0.678,0.193,0.187,0,0,0,0,0,0,0,0,0,0.000,0,0,0.080,0.006,0.000,0.000,-0.080,0.014,0.994,0.011,-0.006,-0.002,-0.006,0.000,0.000,0.000,0.000,0,2,0,3,7,255,1440,250,0,0,-89.569,0.584,-31.154
EX0521-092111,5,C09,prep,1716,1716,0,456624.092,0.685,-0.678,0.193,0.187,0,0,0,0,0,0,0,0,0,0.000,0,0,0.122,0.006,0.000,-0.120,-0.020,0.014,0.994,0.010,-0.006,-0.002,-0.002,0.000,0.000,0.000,0.000,0,2,0,3,7,255,1440,250,0,0,-89.570,0.584,-31.154
EX0521-092111,5,C09,prep,1716,1716,0,456629.091,0.685,-0.678,0.193,0.187,0,0,0,0,0,0,0,0,0,0.000,0,0,0.100,0.007,0.000,-0.060,-0.080,0.013,0.994,0.011,-0.006,0.004,-0.006,0.000,0.000,0.000,0.000,0,2,0,3,7,255,1440,250,0,0,-89.570,0.583,-31.154
EX0521-092111,5,C09,prep,1716,1716,0,456634.091,0.685,-0.678,0.193,0.187,0,0,0,0,0,0,0,0,0,0.000,0,0,0.063,0.006,0.000,-0.060,-0.020,0.014,0.994,0.011,-0.004,0.004,-0.002,0.000,0.000,0.000,0.000,0,2,0,3,7,255,1440,250,0,0,-89.570,0.583,-31.154
EX0521-092111,5,C09,prep,1717,1717,0,456639.092,0.685,-0.678,0.193,0.187,0,0,0,0,0,0,0,0,0,0.000,0,0,0.063,0.004,0.000,-0.060,-0.020,0.014,0.994,0.010,-0.002,0.004,-0.006,0.000,0.000,0.000,0.000,0,2,0,3,7,255,1440,250,0,0,-89.571,0.583,-31.154
EX0521-092111,5,C09,prep,1717,1717,0,456644.092,0.685,-0.678,0.193,0.187,0,0,0,0,0,0,0,0,0,0.000,0,0,0.144,0.006,0.000,-0.120,-0.080,0.013,0.994,0.011,-0.002,0.006,-0.006,0.000,0.000,0.000,0.000,0,2,0,3,7,255,1440,250,0,0,-89.571,0.583,-31.154
EX0521-092111,5,C09,prep,1727,1727,0,456649.092,0.685,-0.678,0.193,0.187,0,0,0,0,0,0,0,0,0,0.000,0,0,0.087,0.014,-0.060,-0.060,-0.020,0.013,0.994,0.010,-0.010,0.010,-0.006,0.000,0.000,0.000,0.000,0,2,0,3,7,255,1440,250,0,0,-89.571,0.582,-31.154
EX0521-092111,5,C09,prep,1727,1727,0,456654.091,0.685,-0.678,0.193,0.187,0,0,0,0,0,0,0,0,0,0.000,0,0,0.087,0.012,-0.060,-0.060,-0.020,0.014,0.996,0.011,-0.010,0.006,-0.006,0.000,0.000,0.000,0.000,0,2,0,3,7,255,1440,250,0,0,-89.572,0.582,-31.154
EX0521-092111,5,C09,prep,1750,1750,0,456659.091,0.685,-0.678,0.193,0.187,0,0,0,0,0,0,0,0,0,0.000,0,0,0.094,0.012,-0.060,-0.060,0.040,0.014,0.994,0.012,-0.012,0.000,-0.006,0.000,0.000,0.000,0.000,0,2,0,3,7,255,1440,250,0,0,-89.572,0.582,-31.154
EX0521-092111,5,C09,prep,1750,1750,0,456664.092,0.685,-0.678,0.193,0.187,0,0,0,0,0,0,0,0,0,0.000,0,0,0.122,0.010,0.000,-0.120,-0.020,0.014,0.995,0.011,-0.010,-0.002,0.004,0.000,0.000,0.000,0.000,0,2,0,3,7,255,1440,250,0,0,-89.572,0.582,-31.154
EX0521-092111,5,C09,prep,1786,1786,0,456669.092,0.685,-0.678,0.193,0.187,0,0,0,0,0,0,0,0,0,0.000,0,0,0.063,0.009,0.000,-0.060,-0.020,0.015,0.995,0.012,-0.004,-0.008,0.004,0.000,0.000,0.000,0.000,0,2,0,3,7,255,1440,250,0,0,-89.572,0.581,-31.154
EX0521-092111,5,C09,prep,1786,1786,0,456674.091,0.685,-0.678,0.193,0.187,0,0,0,0,0,0,0,0,0,0.000,0,0,0.063,0.009,0.000,-0.060,-0.020,0.014,0.993,0.012,-0.004,-0.008,0.004,0.000,0.000,0.000,0.000,0,2,0,3,7,255,1440,250,0,0,-89.573,0.581,-31.154
EX0521-092111,5,C09,prep,1786,1786,0,456679.093,0.685,-0.678,0.193,0.187,0,0,0,0,0,0,0,0,0,0.000,0,0,0.063,0.013,0.000,-0.060,-0.020,0.013,0.995,0.011,-0.010,-0.008,0.004,0.000,0.000,0.000,0.000,0,2,0,3,7,255,1440,250,0,0,-89.573,0.581,-31.154
EX0521-092111,5,C09,prep,1786,1786,0,456684.091,0.685,-0.678,0.193,0.187,0,0,0,0,0,0,0,0,0,0.000,0,0,0.100,0.013,-0.060,0.000,-0.080,0.015,0.995,0.012,-0.010,-0.008,0.004,0.000,0.000,0.000,0.000,0,2,0,3,7,255,1440,250,0,0,-89.573,0.580,-31.154
EX0521-092111,5,C09,prep,1786,1786,0,456689.092,0.685,-0.678,0.193,0.187,0,0,0,0,0,0,0,0,0,0.000,0,0,0.087,0.004,-0.060,-0.060,-0.020,0.015,0.996,0.011,-0.002,-0.004,0.004,0.000,0.000,0.000,0.000,0,2,0,3,7,255,1440,250,0,0,-89.574,0.580,-31.154
EX0521-092111,5,C09,prep,1786,1786,0,456694.092,0.685,-0.678,0.193,0.187,0,0,0,0,0,0,0,0,0,0.000,0,0,0.063,0.008,0.000,-0.060,-0.020,0.015,0.995,0.012,0.000,-0.008,0.004,0.000,0.000,0.000,0.000,0,2,0,3,7,255,1440,250,0,0,-89.574,0.581,-31.154
EX0521-092111,5,C09,prep,1787,1787,0,456699.091,0.685,-0.678,0.193,0.187,0,0,0,0,0,0,0,0,0,0.000,0,0,0.063,0.008,0.000,-0.060,-0.020,0.015,0.993,0.011,0.002,-0.008,0.004,0.000,0.000,0.000,0.000,0,2,0,3,7,255,1440,250,0,0,-89.574,0.582,-31.154
EX0521-092111,5,C09,prep,1787,1787,0,456704.091,0.685,-0.678,0.193,0.187,0,0,0,0,0,0,0,0,0,0.000,0,0,0.063,0.009,0.000,-0.060,-0.020,0.015,0.994,0.010,0.004,-0.008,-0.002,0.000,0.000,0.000,0.000,0,2,0,3,7,255,1440,250,0,0,-89.575,0.582,-31.154
EX0521-092111,5,C09,prep,1788,1788,0,456709.092,0.685,-0.678,0.193,0.187,0,0,0,0,0,0,0,0,0,0.000,0,0,0.087,0.006,-0.060,-0.060,-0.020,0.014,0.994,0.010,0.004,0.004,-0.002,0.000,0.000,0.000,0.000,0,2,0,3,7,255,1440,250,0,0,-89.575,0.582,-31.154
EX0521-092111,5,C09,prep,1788,1788,0,456714.092,0.685,-0.678,0.193,0.187,0,0,0,0,0,0,0,0,0,0.000,0,0,0.144,0.004,0.000,-0.120,-0.080,0.014,0.994,0.012,0.000,0.004,-0.002,0.000,0.000,0.000,0.000,0,2,0,3,7,255,1440,250,0,0,-89.575,0.582,-31.154
EX0521-092111,5,C09,prep,1811,1811,0,456719.092,0.685,-0.678,0.193,0.187,0,0,0,0,0,0,0,0,0,0.000,0,0,0.087,0.008,0.060,-0.060,-0.020,0.014,0.995,0.011,-0.008,0.000,-0.002,0.000,0.000,0.000,0.000,0,2,0,3,7,255,1440,250,0,0,-89.575,0.581,-31.154
EX0521-092111,5,C09,prep,1811,1811,0,456724.091,0.685,-0.678,0.193,0.187,0,0,0,0,0,0,0,0,0,0.000,0,0,0.100,0.008,0.000,-0.060,-0.080,0.014,0.994,0.011,-0.008,0.000,-0.002,0.000,0.000,0.000,0.000,0,2,0,3,7,255,1440,250,0,0,-89.576,0.581,-31.154
EX0521-092111,5,C09,prep,1811,1811,0,456729.091,0.685,-0.678,0.193,0.187,0,0,0,0,0,0,0,0,0,0.000,0,0,0.063,0.008,0.000,-0.060,-0.020,0.015,0.994,0.011,-0.008,0.000,-0.002,0.000,0.000,0.000,0.000,0,2,0,3,7,255,1440,250,0,0,-89.576,0.581,-31.154
EX0521-092111,5,C09,prep,1811,1811,0,456734.092,0.685,-0.678,0.193,0.187,0,0,0,0,0,0,0,0,0,0.000,0,0,0.087,0.000,-0.060,-0.060,-0.020,0.015,0.994,0.011,0.000,0.000,-0.002,0.000,0.000,0.000,0.000,0,2,0,3,7,255,1440,250,0,0,-89.576,0.580,-31.154
EX0521-092111,5,C09,prep,1823,1823,0,456739.092,0.685,-0.678,0.193,0.187,0,0,0,0,0,0,0,0,0,0.000,0,0,0.063,0.006,0.000,-0.060,-0.020,0.015,0.993,0.012,0.000,-0.006,-0.006,0.000,0.000,0.000,0.000,0,2,0,3,7,255,1440,250,0,0,-89.577,0.580,-31.154
EX0521-092111,5,C09,prep,1823,1823,0,456744.091,0.685,-0.678,0.193,0.187,0,0,0,0,0,0,0,0,0,0.000,0,0,0.063,0.006,0.000,-0.060,-0.020,0.014,0.995,0.011,-0.002,-0.006,-0.006,0.000,0.000,0.000,0.000,0,2,0,3,7,255,1440,250,0,0,-89.577,0.580,-31.154
EX0521-092111,5,C09,prep,1846,1846,0,456749.091,0.685,-0.678,0.193,0.187,0,0,0,0,0,0,0,0,0,0.000,0,0,0.087,0.003,0.060,-0.060,-0.020,0.015,0.993,0.010,-0.002,-0.002,-0.010,0.000,0.000,0.000,0.000,0,2,0,3,7,255,1440,250,0,0,-89.577,0.580,-31.154
EX0521-092111,5,C09,prep,1846,1846,0,456754.092,0.685,-0.678,0.193,0.187,0,0,0,0,0,0,0,0,0,0.000,0,0,0.063,0.004,0.000,-0.060,-0.020,0.015,0.995,0.011,0.004,-0.002,0.004,0.000,0.000,0.000,0.000,0,2,0,3,7,255,1440,250,0,0,-89.578,0.581,-31.154
EX0521-092111,5,C09,prep,1846,1846,0,456759.095,0.685,-0.678,0.193,0.187,0,0,0,0,0,0,0,0,0,0.000,0,0,0.100,0.006,-0.060,0.000,-0.080,0.015,0.995,0.011,0.004,-0.004,0.004,0.000,0.000,0.000,0.000,0,2,0,3,7,255,1440,250,0,0,-89.578,0.582,-31.154
EX0521-092111,5,C09,prep,1846,1846,0,456764.092,0.685,-0.678,0.193,0.187,0,0,0,0,0,0,0,0,0,0.000,0,0,0.087,0.006,-0.060,-0.060,-0.020,0.015,0.995,0.011,0.004,-0.004,0.004,0.000,0.000,0.000,0.000,0,2,0,3,7,255,1440,250,0,0,-89.578,0.582,-31.154
EX0521-092111,5,C09,prep,1877,1877,0,456769.091,0.685,-0.678,0.193,0.187,0,0,0,0,0,0,0,0,0,0.000,0,0,0.063,0.002,-0.060,0.000,-0.020,0.014,0.995,0.011,0.002,0.000,0.004,0.000,0.000,0.000,0.000,0,2,0,3,7,255,1440,250,0,0,-89.578,0.581,-31.154
EX0521-092111,5,C09,prep,1877,1877,0,456774.091,0.685,-0.678,0.193,0.187,0,0,0,0,0,0,0,0,0,0.000,0,0,0.100,0.004,0.000,-0.060,-0.080,0.014,0.994,0.011,-0.004,0.000,0.004,0.000,0.000,0.000,0.000,0,2,0,3,7,255,1440,250,0,0,-89.579,0.581,-31.154
EX0521-092111,5,C09,prep,1877,1877,0,456779.095,0.685,-0.678,0.193,0.187,0,0,0,0,0,0,0,0,0,0.000,0,0,0.087,0.004,-0.060,-0.060,-0.020,0.015,0.994,0.011,-0.004,0.000,-0.002,0.000,0.000,0.000,0.000,0,2,0,3,7,255,1440,250,0,0,-89.579,0.581,-31.154
EX0521-092111,5,C09,prep,1877,1877,0,456784.092,0.685,-0.678,0.193,0.187,0,0,0,0,0,0,0,0,0,0.000,0,0,0.063,0.004,0.000,-0.060,-0.020,0.014,0.995,0.011,-0.004,-0.002,-0.002,0.000,0.000,0.000,0.000,0,2,0,3,7,255,1440,250,0,0,-89.579,0.581,-31.154
EX0521-092111,5,C09,prep,1877,1877,0,456789.091,0.685,-0.678,0.193,0.187,0,0,0,0,0,0,0,0,0,0.000,0,0,0.087,0.004,-0.060,-0.060,-0.020,0.014,0.995,0.012,-0.004,-0.002,0.004,0.000,0.000,0.000,0.000,0,2,0,3,7,255,1440,250,0,0,-89.580,0.580,-31.154
EX0521-092111,5,C09,prep,1877,1877,0,456794.091,0.685,-0.678,0.193,0.187,0,0,0,0,0,0,0,0,0,0.000,0,0,0.100,0.004,0.000,-0.060,-0.080,0.014,0.994,0.011,-0.004,-0.002,0.004,0.000,0.000,0.000,0.000,0,2,0,3,7,255,1440,250,0,0,-89.580,0.580,-31.154
EX0521-092111,5,C09,prep,1887,1887,0,456799.092,0.685,-0.678,0.193,0.187,0,0,0,0,0,0,0,0,0,0.000,0,0,0.063,0.006,0.000,-0.060,-0.020,0.014,0.995,0.011,-0.006,-0.002,0.004,0.000,0.000,0.000,0.000,0,2,0,3,7,255,1440,250,0,0,-89.580,0.580,-31.154
EX0521-092111,5,C09,prep,1887,1887,0,456804.092,0.685,-0.678,0.193,0.187,0,0,0,0,0,0,0,0,0,0.000,0,0,0.094,0.004,-0.060,-0.060,0.040,0.015,0.995,0.012,-0.004,-0.002,0.004,0.000,0.000,0.000,0.000,0,2,0,3,7,255,1440,250,0,0,-89.581,0.579,-31.154
EX0521-092111,5,C09,prep,1887,1887,0,456809.092,0.685,-0.678,0.193,0.187,0,0,0,0,0,0,0,0,0,0.000,0,0,0.063,0.012,0.000,-0.060,-0.020,0.014,0.994,0.012,-0.006,-0.010,0.004,0.000,0.000,0.000,0.000,0,2,0,3,7,255,1440,250,0,0,-89.581,0.579,-31.154
EX0521-092111,5,C09,prep,1887,1887,0,456814.091,0.685,-0.678,0.193,0.187,0,0,0,0,0,0,0,0,0,0.000,0,0,0.063,0.010,0.000,-0.060,-0.020,0.015,0.995,0.011,-0.002,-0.010,0.004,0.000,0.000,0.000,0.000,0,2,0,3,7,255,1440,250,0,0,-89.581,0.579,-31.154
EX0521-092111,5,C09,prep,1916,1916,0,456819.092,0.685,-0.678,0.193,0.187,0,0,0,0,0,0,0,0,0,0.000,0,0,0.063,0.006,0.000,-0.060,-0.020,0.014,0.994,0.010,0.000,-0.006,-0.002,0.000,0.000,0.000,0.000,0,2,0,3,7,255,1440,250,0,0,-89.582,0.579,-31.154
EX0521-092111,5,C09,prep,1916,1916,0,456824.092,0.685,-0.678,0.193,0.187,0,0,0,0,0,0,0,0,0,0.000,0,0,0.063,0.006,0.000,-0.060,-0.020,0.015,0.995,0.012,0.002,-0.006,0.004,0.000,0.000,0.000,0.000,0,2,0,3,7,255,1440,250,0,0,-89.582,0.580,-31.154
EX0521-092111,5,C09,prep,1917,1917,0,456829.092,0.685,-0.678,0.193,0.187,0,0,0,0,0,0,0,0,0,0.000,0,0,0.063,0.006,0.000,-0.060,-0.020,0.015,0.994,0.011,0.004,-0.004,-0.002,0.000,0.000,0.000,0.000,0,2,0,3,7,255,1440,250,0,0,-89.582,0.581,-31.154
EX0521-092111,5,C09,prep,1917,1917,0,456834.092,0.685,-0.678,0.193,0.187,0,0,0,0,0,0,0,0,0,0.000,0,0,0.117,0.013,-0.060,-0.060,-0.080,0.016,0.994,0.012,0.004,-0.012,-0.002,0.000,0.000,0.000,0.000,0,2,0,3,7,255,1440,250,0,0,-89.582,0.582,-31.154
EX0521-092111,5,C09,prep,1918,1918,0,456839.091,0.685,-0.678,0.193,0.187,0,0,0,0,0,0,0,0,0,0.000,0,0,0.087,0.007,-0.060,-0.060,-0.020,0.014,0.995,0.012,0.004,-0.006,-0.002,0.000,0.000,0.000,0.000,0,2,0,3,7,255,1440,250,0,0,-89.583,0.582,-31.154
EX0521-092111,5,C09,prep,1918,1918,0,456844.091,0.685,-0.678,0.193,0.187,0,0,0,0,0,0,0,0,0,0.000,0,0,0.063,0.008,0.000,-0.060,-0.020,0.014,0.994,0.011,-0.006,-0.006,-0.002,0.000,0.000,0.000,0.000,0,2,0,3,7,255,1440,250,0,0,-89.583,0.582,-31.154
EX0521-092111,5,C09,prep,1935,1935,0,456849.092,0.685,-0.678,0.193,0.187,0,0,0,0,0,0,0,0,0,0.000,0,0,0.063,0.006,0.000,-0.060,-0.020,0.015,0.995,0.011,-0.006,0.000,0.004,0.000,0.000,0.000,0.000,0,2,0,3,7,255,1440,250,0,0,-89.583,0.581,-31.154
EX0521-092111,5,C09,prep,1935,1935,0,456854.092,0.685,-0.678,0.193,0.187,0,0,0,0,0,0,0,0,0,0.000,0,0,0.117,0.002,-0.060,-0.060,-0.080,0.015,0.994,0.011,0.002,0.000,-0.002,0.000,0.000,0.000,0.000,0,2,0,3,7,255,1440,250,0,0,-89.584,0.581,-31.154
EX0521-092111,5,C09,prep,1988,1988,0,456859.092,0.685,-0.678,0.193,0.187,0,0,0,0,0,0,0,0,0,0.000,0,0,0.122,0.003,0.000,-0.120,-0.020,0.015,0.994,0.011,0.002,-0.002,-0.002,0.000,0.000,0.000,0.000,0,2,0,3,7,255,1440,250,0,0,-89.584,0.582,-31.154
EX0521-092111,5,C09,prep,1988,1988,0,456864.091,0.685,-0.678,0.193,0.187,0,0,0,0,0,0,0,0,0,0.000,0,0,0.117,0.003,-0.060,-0.060,-0.080,0.015,0.994,0.011,0.002,-0.002,-0.002,0.000,0.000,0.000,0.000,0,2,0,3,7,255,1440,250,0,0,-89.584,0.582,-31.154
EX0521-092111,5,C09,prep,1988,1988,0,456869.092,0.685,-0.678,0.193,0.187,0,0,0,0,0,0,0,0,0,0.000,0,0,0.063,0.004,0.000,-0.060,-0.020,0.015,0.996,0.011,0.002,-0.004,-0.002,0.000,0.000,0.000,0.000,0,2,0,3,7,255,1440,250,0,0,-89.585,0.582,-31.154
EX0521-092111,5,C09,prep,1988,1988,0,456874.092,0.685,-0.678,0.193,0.187,0,0,0,0,0,0,0,0,0,0.000,0,0,0.063,0.004,0.000,-0.060,-0.020,0.016,0.994,0.011,0.002,-0.004,-0.002,0.000,0.000,0.000,0.000,0,2,0,3,7,255,1440,250,0,0,-89.585,0.583,-31.154
EX0521-092111,5,C09,prep,1988,1988,0,456879.094,0.685,-0.678,0.193,0.187,0,0,0,0,0,0,0,0,0,0.000,0,0,0.063,0.006,0.000,-0.060,-0.020,0.015,0.995,0.011,0.004,-0.004,0.008,0.000,0.000,0.000,0.000,0,2,0,3,7,255,1440,250,0,0,-89.585,0.584,-31.154
EX0521-092111,5,C09,prep,1988,1988,0,456884.091,0.685,-0.678,0.193,0.187,0,0,0,0,0,0,0,0,0,0.000,0,0,0.117,0.006,-0.060,-0.060,-0.080,0.015,0.994,0.011,0.004,-0.004,-0.002,0.000,0.000,0.000,0.000,0,2,0,3,7,255,1440,250,0,0,-89.585,0.584,-31.154
EX0521-092111,5,C09,prep,1990,1990,0,456889.091,0.685,-0.678,0.193,0.187,0,0,0,0,0,0,0,0,0,0.000,0,0,0.087,0.004,-0.060,-0.060,-0.020,0.014,0.995,0.012,-0.002,-0.004,0.004,0.000,0.000,0.000,0.000,0,2,0,3,7,255,1440,250,0,0,-89.581,0.584,-31.154
EX0521-092111,5,C09,prep,1990,1990,0,456894.092,0.685,-0.678,0.193,0.187,0,0,0,0,0,0,0,0,0,0.000,0,0,0.063,0.007,0.000,-0.060,-0.020,0.013,0.994,0.010,-0.006,-0.004,-0.002,0.000,0.000,0.000,0.000,0,2,0,3,7,255,1440,250,0,0,-89.582,0.583,-31.154
EX0521-092111,5,C09,prep,1990,1990,0,456899.092,0.685,-0.678,0.193,0.187,0,0,0,0,0,0,0,0,0,0.000,0,0,0.087,0.006,0.060,-0.060,-0.020,0.015,0.995,0.010,-0.006,0.002,0.004,0.000,0.000,0.000,0.000,0,2,0,3,7,255,1440,250,0,0,-89.582,0.584,-31.154
EX0521-092111,5,C09,prep,1990,1990,0,456904.091,0.685,-0.678,0.193,0.187,0,0,0,0,0,0,0,0,0,0.000,0,0,0.072,0.002,0.000,-0.060,0.040,0.015,0.995,0.012,0.000,0.002,0.004,0.000,0.000,0.000,0.000,0,2,0,3,7,255,1440,250,0,0,-89.582,0.585,-31.154
EX0521-092111,5,C09,prep,1990,1990,0,456909.091,0.685,-0.678,0.193,0.187,0,0,0,0,0,0,0,0,0,0.000,0,0,0.063,0.002,0.000,-0.060,-0.020,0.015,0.994,0.011,0.002,0.000,0.004,0.000,0.000,0.000,0.000,0,2,0,3,7,255,1440,250,0,0,-89.582,0.585,-31.154
EX0521-092111,5,C09,prep,1990,1990,0,456914.092,0.685,-0.678,0.193,0.187,0,0,0,0,0,0,0,0,0,0.000,0,0,0.063,0.008,0.000,-0.060,-0.020,0.015,0.994,0.012,0.000,-0.008,-0.002,0.000,0.000,0.000,0.000,0,2,0,3,7,255,1440,250,0,0,-89.583,0.585,-31.154
EX0521-092111,5,C09,prep,1999,1999,0,456919.092,0.685,-0.678,0.193,0.187,0,0,0,0,0,0,0,0,0,0.000,0,0,0.087,0.004,-0.060,-0.060,-0.020,0.014,0.995,0.011,-0.004,0.000,-0.002,0.000,0.000,0.000,0.000,0,2,0,3,7,255,1440,250,0,0,-89.583,0.585,-31.154
EX0521-092111,5,C09,prep,1999,1999,0,456924.092,0.685,-0.678,0.193,0.187,0,0,0,0,0,0,0,0,0,0.000,0,0,0.063,0.004,0.000,-0.060,-0.020,0.015,0.995,0.010,-0.004,0.000,0.004,0.000,0.000,0.000,0.000,0,2,0,3,7,255,1440,250,0,0,-89.583,0.584,-31.154
EX0521-092111,5,C09,prep,2021,2021,0,456929.091,0.685,-0.678,0.193,0.187,0,0,0,0,0,0,0,0,0,0.000,0,0,0.156,0.006,-0.060,-0.120,-0.080,0.015,0.994,0.012,-0.006,0.000,0.004,0.000,0.000,0.000,0.000,0,2,0,3,7,255,1440,250,0,0,-89.579,0.584,-31.154
EX0521-092111,5,C09,prep,2021,2021,0,456934.091,0.685,-0.678,0.193,0.187,0,0,0,0,0,0,0,0,0,0.000,0,0,0.136,0.004,-0.060,-0.120,-0.020,0.014,0.995,0.011,-0.004,-0.002,0.004,0.000,0.000,0.000,0.000,0,2,0,3,7,255,1440,250,0,0,-89.579,0.584,-31.154
EX0521-092111,5,C09,prep,2022,2022,0,456939.092,0.685,-0.678,0.193,0.187,0,0,0,0,0,0,0,0,0,0.000,0,0,0.122,0.004,0.000,-0.120,-0.020,0.014,0.994,0.011,-0.004,-0.002,-0.002,0.000,0.000,0.000,0.000,0,2,0,3,7,255,1440,250,0,0,-89.580,0.584,-31.154
EX0521-092111,5,C09,prep,2022,2022,0,456944.092,0.685,-0.678,0.193,0.187,0,0,0,0,0,0,0,0,0,0.000,0,0,0.063,0.004,0.000,-0.060,-0.020,0.014,0.995,0.011,-0.004,-0.002,0.004,0.000,0.000,0.000,0.000,0,2,0,3,7,255,1440,250,0,0,-89.580,0.583,-31.154
EX0521-092111,5,C09,prep,2031,2031,0,456949.092,0.685,-0.678,0.193,0.187,0,0,0,0,0,0,0,0,0,0.000,0,0,0.087,0.004,-0.060,-0.060,-0.020,0.015,0.996,0.011,-0.004,-0.002,0.008,0.000,0.000,0.000,0.000,0,2,0,3,7,255,1440,250,0,0,-89.580,0.584,-31.154
EX0521-092111,5,C09,prep,2031,2031,0,456954.091,0.685,-0.678,0.193,0.187,0,0,0,0,0,0,0,0,0,0.000,0,0,0.063,0.003,0.000,-0.060,-0.020,0.015,0.994,0.011,0.002,-0.002,0.008,0.000,0.000,0.000,0.000,0,2,0,3,7,255,1440,250,0,0,-89.581,0.584,-31.154
EX0521-092111,5,C09,prep,2055,2055,0,456959.095,0.685,-0.678,0.193,0.187,0,0,0,0,0,0,0,0,0,0.000,0,0,0.100,0.002,0.000,-0.060,-0.080,0.015,0.995,0.011,0.002,0.000,0.002,0.000,0.000,0.000,0.000,0,2,0,3,7,255,1440,250,0,0,-89.581,0.584,-31.154
EX0521-092111,5,C09,prep,2055,2055,0,456964.092,0.685,-0.678,0.193,0.187,0,0,0,0,0,0,0,0,0,0.000,0,0,0.087,0.002,-0.060,-0.060,-0.020,0.014,0.994,0.012,0.002,0.000,-0.002,0.000,0.000,0.000,0.000,0,2,0,3,7,255,1440,250,0,0,-89.581,0.584,-31.154
EX0521-092111,5,C09,prep,2087,2087,0,456969.092,0.685,-0.678,0.193,0.187,0,0,0,0,0,0,0,0,0,0.000,0,0,0.063,0.009,0.000,-0.060,-0.020,0.014,0.995,0.012,-0.008,-0.004,0.002,0.000,0.000,0.000,0.000,0,2,0,3,7,255,1440,250,0,0,-89.582,0.583,-31.154
EX0521-092111,5,C09,prep,2087,2087,0,456974.091,0.685,-0.678,0.193,0.187,0,0,0,0,0,0,0,0,0,0.000,0,0,0.072,0.013,0.000,-0.060,0.040,0.013,0.995,0.012,-0.012,-0.004,0.002,0.000,0.000,0.000,0.000,0,2,0,3,7,255,1440,250,0,0,-89.582,0.583,-31.154
EX0521-092111,5,C09,prep,2087,2087,0,456979.093,0.685,-0.678,0.193,0.187,0,0,0,0,0,0,0,0,0,0.000,0,0,0.063,0.013,0.000,-0.060,-0.020,0.014,0.995,0.012,-0.012,-0.004,0.002,0.000,0.000,0.000,0.000,0,2,0,3,7,255,1440,250,0,0,-89.582,0.583,-31.154
EX0521-092111,5,C09,prep,2087,2087,0,456984.092,0.685,-0.678,0.193,0.187,0,0,0,0,0,0,0,0,0,0.000,0,0,0.063,0.013,0.000,-0.060,-0.020,0.015,0.995,0.012,-0.012,-0.004,0.002,0.000,0.000,0.000,0.000,0,2,0,3,7,255,1440,250,0,0,-89.582,0.582,-31.154
EX0521-092111,5,C09,prep,2087,2087,0,456989.092,0.685,-0.678,0.193,0.187,0,0,0,0,0,0,0,0,0,0.000,0,0,0.122,0.006,0.000,-0.120,-0.020,0.015,0.994,0.011,-0.002,-0.006,0.002,0.000,0.000,0.000,0.000,0,2,0,3,7,255,1440,250,0,0,-89.583,0.584,-31.154
EX0521-092111,5,C09,prep,2087,2087,0,456994.092,0.685,-0.678,0.193,0.187,0,0,0,0,0,0,0,0,0,0.000,0,0,0.063,0.006,0.000,-0.060,-0.020,0.015,0.995,0.011,0.002,-0.006,0.002,0.000,0.000,0.000,0.000,0,2,0,3,7,255,1440,250,0,0,-89.583,0.583,-31.154
EX0521-092111,5,C09,prep,2087,2087,0,456999.091,0.685,-0.678,0.193,0.187,0,0,0,0,0,0,0,0,0,0.000,0,0,0.063,0.002,0.000,-0.060,-0.020,0.014,0.995,0.010,0.002,0.000,0.002,0.000,0.000,0.000,0.000,0,2,0,3,7,255,1440,250,0,0,-89.583,0.583,-31.154
EX0521-092111,5,C09,prep,2087,2087,0,457004.091,0.685,-0.678,0.193,0.187,0,0,0,0,0,0,0,0,0,0.000,0,0,0.100,0.002,0.000,-0.060,-0.080,0.015,0.995,0.011,0.002,0.000,0.002,0.000,0.000,0.000,0.000,0,2,0,3,7,255,1440,250,0,0,-89.584,0.584,-31.154
EX0521-092111,5,C09,prep,2088,2088,0,457009.092,0.685,-0.678,0.193,0.187,0,0,0,0,0,0,0,0,0,0.000,0,0,0.072,0.002,0.000,-0.060,0.040,0.014,0.996,0.011,0.000,0.002,0.002,0.000,0.000,0.000,0.000,0,2,0,3,7,255,1440,250,0,0,-89.584,0.584,-31.154
EX0521-092111,5,C09,prep,2088,2088,0,457014.092,0.685,-0.678,0.193,0.187,0,0,0,0,0,0,0,0,0,0.000,0,0,0.087,0.003,-0.060,-0.060,-0.020,0.014,0.996,0.011,-0.002,0.002,0.012,0.000,0.000,0.000,0.000,0,2,0,3,7,255,1440,250,0,0,-89.584,0.584,-31.154
EX0521-092111,5,C09,prep,2095,2095,0,457019.092,0.685,-0.678,0.193,0.187,0,0,0,0,0,0,0,0,0,0.000,0,0,0.122,0.003,0.000,-0.120,-0.020,0.015,0.995,0.011,-0.002,0.002,0.012,0.000,0.000,0.000,0.000,0,2,0,3,7,255,1440,250,0,0,-89.585,0.585,-31.154
EX0521-092111,5,C09,prep,2095,2095,0,457024.091,0.685,-0.678,0.193,0.187,0,0,0,0,0,0,0,0,0,0.000,0,0,0.087,0.003,-0.060,-0.060,-0.020,0.014,0.995,0.011,-0.002,-0.002,0.002,0.000,0.000,0.000,0.000,0,2,0,3,7,255,1440,250,0,0,-89.585,0.584,-31.154
EX0521-092111,5,C09,prep,2111,2111,0,457029.091,0.685,-0.678,0.193,0.187,0,0,0,0,0,0,0,0,0,0.000,0,0,0.063,0.003,0.000,-0.060,-0.020,0.015,0.994,0.011,0.002,-0.002,0.002,0.000,0.000,0.000,0.000,0,2,0,3,7,255,1440,250,0,0,-89.585,0.584,-31.154
EX0521-092111,5,C09,prep,2111,2111,0,457034.092,0.685,-0.678,0.193,0.187,0,0,0,0,0,0,0,0,0,0.000,0,0,0.094,0.002,-0.060,-0.060,0.040,0.015,0.995,0.011,0.000,-0.002,0.002,0.000,0.000,0.000,0.000,0,2,0,3,7,255,1440,250,0,0,-89.585,0.584,-31.154
EX0521-092111,5,C09,prep,2127,2127,0,457039.092,0.685,-0.678,0.193,0.187,0,0,0,0,0,0,0,0,0,0.000,0,0,0.087,0.004,-0.060,-0.060,-0.020,0.015,0.994,0.012,0.000,-0.004,-0.002,0.000,0.000,0.000,0.000,0,2,0,3,7,255,1440,250,0,0,-89.586,0.584,-31.154
EX0521-092111,5,C09,prep,2127,2127,0,457044.091,0.685,-0.678,0.193,0.187,0,0,0,0,0,0,0,0,0,0.000,0,0,0.087,0.004,-0.060,-0.060,-0.020,0.015,0.995,0.011,0.000,-0.004,0.002,0.000,0.000,0.000,0.000,0,2,0,3,7,255,1440,250,0,0,-89.586,0.583,-31.154
EX0521-092111,5,C09,prep,2127,2127,0,457049.091,0.685,-0.678,0.193,0.187,0,0,0,0,0,0,0,0,0,0.000,0,0,0.100,0.006,-0.060,0.000,-0.080,0.014,0.994,0.012,-0.004,-0.004,-0.008,0.000,0.000,0.000,0.000,0,2,0,3,7,255,1440,250,0,0,-89.586,0.583,-31.154
EX0521-092111,5,C09,prep,2127,2127,0,457054.092,0.685,-0.678,0.193,0.187,0,0,0,0,0,0,0,0,0,0.000,0,0,0.063,0.004,0.000,-0.060,-0.020,0.015,0.994,0.012,0.000,-0.004,-0.002,0.000,0.000,0.000,0.000,0,2,0,3,7,255,1440,250,0,0,-89.587,0.584,-31.154
EX0521-092111,5,C09,prep,2148,2148,0,457059.092,0.685,-0.678,0.193,0.187,0,0,0,0,0,0,0,0,0,0.000,0,0,0.122,0.006,0.000,-0.120,-0.020,0.014,0.995,0.011,-0.004,-0.004,-0.002,0.000,0.000,0.000,0.000,0,2,0,3,7,255,1440,250,0,0,-89.587,0.584,-31.154
EX0521-092111,5,C09,prep,2148,2148,0,457064.092,0.685,-0.678,0.193,0.187,0,0,0,0,0,0,0,0,0,0.000,0,0,0.063,0.006,-0.060,0.000,-0.020,0.015,0.996,0.011,0.000,-0.006,0.002,0.000,0.000,0.000,0.000,0,2,0,3,7,255,1440,250,0,0,-89.587,0.585,-31.154
EX0521-092111,5,C09,prep,2183,2183,0,457069.095,0.685,-0.678,0.193,0.187,0,0,0,0,0,0,0,0,0,0.000,0,0,0.063,0.006,-0.060,0.000,-0.020,0.014,0.995,0.012,-0.004,-0.004,0.002,0.000,0.000,0.000,0.000,0,2,0,3,7,255,1440,250,0,0,-89.588,0.585,-31.154
EX0521-092111,5,C09,prep,2183,2183,0,457074.091,0.685,-0.678,0.193,0.187,0,0,0,0,0,0,0,0,0,0.000,0,0,0.156,0.004,-0.060,-0.120,-0.080,0.014,0.995,0.010,0.000,-0.004,0.002,0.000,0.000,0.000,0.000,0,2,0,3,7,255,1440,250,0,0,-89.588,0.585,-31.154
EX0521-092111,5,C09,prep,2183,2183,0,457079.094,0.685,-0.678,0.193,0.187,0,0,0,0,0,0,0,0,0,0.000,0,0,0.020,0.006,0.000,0.000,-0.020,0.015,0.994,0.012,-0.004,-0.004,0.002,0.000,0.000,0.000,0.000,0,2,0,3,7,255,1440,250,0,0,-89.588,0.584,-31.154
EX0521-092111,5,C09,prep,2183,2183,0,457084.092,0.685,-0.678,0.193,0.187,0,0,0,0,0,0,0,0,0,0.000,0,0,0.063,0.006,0.000,-0.060,-0.020,0.014,0.995,0.012,-0.004,-0.004,0.002,0.000,0.000,0.000,0.000,0,2,0,3,7,255,1440,250,0,0,-89.589,0.584,-31.154
EX0521-092111,5,C09,prep,2183,2183,0,457089.092,0.685,-0.678,0.193,0.187,0,0,0,0,0,0,0,0,0,0.000,0,0,0.063,0.006,0.000,-0.060,-0.020,0.015,0.995,0.011,-0.004,-0.004,0.002,0.000,0.000,0.000,0.000,0,2,0,3,7,255,1440,250,0,0,-89.589,0.584,-31.154
EX0521-092111,5,C09,prep,2183,2183,0,457094.091,0.685,-0.678,0.193,0.187,0,0,0,0,0,0,0,0,0,0.000,0,0,0.100,0.004,0.000,-0.060,-0.080,0.016,0.995,0.011,0.000,-0.004,0.002,0.000,0.000,0.000,0.000,0,2,0,3,7,255,1440,250,0,0,-89.589,0.585,-31.154
EX0521-092111,5,C09,prep,2192,2192,0,457099.091,0.685,-0.678,0.193,0.187,0,0,0,0,0,0,0,0,0,0.000,0,0,0.063,0.010,0.000,-0.060,-0.020,0.015,0.995,0.012,0.000,-0.010,0.002,0.000,0.000,0.000,0.000,0,2,0,3,7,255,1440,250,0,0,-89.585,0.586,-31.154
EX0521-092111,5,C09,prep,2192,2192,0,457104.092,0.685,-0.678,0.193,0.187,0,0,0,0,0,0,0,0,0,0.000,0,0,0.087,0.010,-0.060,-0.060,-0.020,0.014,0.994,0.010,0.000,-0.010,0.002,0.000,0.000,0.000,0.000,0,2,0,3,7,255,1440,250,0,0,-89.585,0.586,-31.154
EX0521-092111,5,C09,prep,2192,2192,0,457109.092,0.685,-0.678,0.193,0.187,0,0,0,0,0,0,0,0,0,0.000,0,0,0.087,0.003,-0.060,-0.060,-0.020,0.014,0.993,0.011,-0.002,0.002,-0.008,0.000,0.000,0.000,0.000,0,2,0,3,7,255,1440,250,0,0,-89.585,0.586,-31.154
EX0521-092111,5,C09,prep,2192,2192,0,457114.091,0.685,-0.678,0.193,0.187,0,0,0,0,0,0,0,0,0,0.000,0,0,0.063,0.003,0.000,-0.060,-0.020,0.014,0.995,0.011,-0.002,0.002,-0.008,0.000,0.000,0.000,0.000,0,2,0,3,7,255,1440,250,0,0,-89.586,0.585,-31.154
EX0521-092111,5,C09,prep,2192,2192,0,457119.092,0.685,-0.678,0.193,0.187,0,0,0,0,0,0,0,0,0,0.000,0,0,0.063,0.003,0.000,-0.060,-0.020,0.014,0.995,0.011,-0.002,0.002,0.002,0.000,0.000,0.000,0.000,0,2,0,3,7,255,1440,250,0,0,-89.586,0.585,-31.154
EX0521-092111,5,C09,prep,2192,2192,0,457124.092,0.685,-0.678,0.193,0.187,0,0,0,0,0,0,0,0,0,0.000,0,0,0.063,0.003,0.000,-0.060,-0.020,0.015,0.995,0.011,-0.002,0.002,0.008,0.000,0.000,0.000,0.000,0,2,0,3,7,255,1440,250,0,0,-89.586,0.585,-31.154
EX0521-092111,5,C09,prep,2216,2216,0,457129.092,0.685,-0.678,0.193,0.187,0,0,0,0,0,0,0,0,0,0.000,0,0,0.063,0.003,0.000,-0.060,-0.020,0.014,0.995,0.011,-0.002,-0.002,0.008,0.000,0.000,0.000,0.000,0,2,0,3,7,255,1440,250,0,0,-89.587,0.584,-31.154
EX0521-092111,5,C09,prep,2216,2216,0,457134.092,0.685,-0.678,0.193,0.187,0,0,0,0,0,0,0,0,0,0.000,0,0,0.100,0.003,-0.060,0.000,-0.080,0.014,0.994,0.011,-0.002,-0.002,0.008,0.000,0.000,0.000,0.000,0,2,0,3,7,255,1440,250,0,0,-89.587,0.584,-31.154
EX0521-092111,5,C09,prep,2217,2217,0,457139.091,0.685,-0.678,0.193,0.187,0,0,0,0,0,0,0,0,0,0.000,0,0,0.072,0.004,0.000,-0.060,0.040,0.014,0.995,0.011,-0.004,0.002,0.006,0.000,0.000,0.000,0.000,0,2,0,3,7,255,1440,250,0,0,-89.587,0.584,-31.154
EX0521-092111,5,C09,prep,2217,2217,0,457144.091,0.685,-0.678,0.193,0.187,0,0,0,0,0,0,0,0,0,0.000,0,0,0.087,0.003,0.060,-0.060,-0.020,0.015,0.996,0.011,-0.002,0.002,0.006,0.000,0.000,0.000,0.000,0,2,0,3,7,255,1440,250,0,0,-89.588,0.585,-31.154
EX0521-092111,5,C09,prep,2223,2223,0,457149.092,0.685,-0.678,0.193,0.187,0,0,0,0,0,0,0,0,0,0.000,0,0,0.063,0.007,0.060,0.000,-0.020,0.016,0.996,0.012,0.004,-0.006,0.012,0.000,0.000,0.000,0.000,0,2,0,3,7,255,1440,250,0,0,-89.588,0.586,-31.154
EX0521-092111,5,C09,prep,2223,2223,0,457154.092,0.685,-0.678,0.193,0.187,0,0,0,0,0,0,0,0,0,0.000,0,0,0.063,0.007,0.000,-0.060,-0.020,0.014,0.994,0.012,0.004,-0.006,0.012,0.000,0.000,0.000,0.000,0,2,0,3,7,255,1440,250,0,0,-89.588,0.586,-31.154
EX0521-092111,5,C09,prep,2246,2246,0,457159.095,0.685,-0.678,0.193,0.187,0,0,0,0,0,0,0,0,0,0.000,0,0,0.063,0.010,0.000,-0.060,-0.020,0.014,0.994,0.012,-0.008,-0.006,-0.002,0.000,0.000,0.000,0.000,0,2,0,3,7,255,1440,250,0,0,-89.588,0.586,-31.154
EX0521-092111,5,C09,prep,2246,2246,0,457164.091,0.685,-0.678,0.193,0.187,0,0,0,0,0,0,0,0,0,0.000,0,0,0.063,0.010,0.000,-0.060,-0.020,0.014,0.994,0.011,-0.008,-0.006,-0.002,0.000,0.000,0.000,0.000,0,2,0,3,7,255,1440,250,0,0,-89.589,0.585,-31.154
EX0521-092111,5,C09,prep,2287,2287,0,457169.091,0.685,-0.678,0.193,0.187,0,0,0,0,0,0,0,0,0,0.000,0,0,0.072,0.008,0.000,-0.060,0.040,0.014,0.994,0.011,-0.008,-0.002,-0.008,0.000,0.000,0.000,0.000,0,2,0,3,7,255,1440,250,0,0,-89.589,0.585,-31.154
EX0521-092111,5,C09,prep,2288,2288,0,457174.092,0.685,-0.678,0.193,0.187,0,0,0,0,0,0,0,0,0,0.000,0,0,0.063,0.004,0.000,-0.060,-0.020,0.015,0.995,0.011,-0.004,0.000,-0.002,0.000,0.000,0.000,0.000,0,2,0,3,7,255,1440,250,0,0,-89.589,0.585,-31.154
EX0521-092111,5,C09,prep,2288,2288,0,457179.094,0.685,-0.678,0.193,0.187,0,0,0,0,0,0,0,0,0,0.000,0,0,0.156,0.002,-0.060,-0.120,-0.080,0.014,0.994,0.011,-0.002,0.000,-0.002,0.000,0.000,0.000,0.000,0,2,0,3,7,255,1440,250,0,0,-89.590,0.585,-31.154
EX0521-092111,5,C09,prep,2288,2288,0,457184.091,0.685,-0.678,0.193,0.187,0,0,0,0,0,0,0,0,0,0.000,0,0,0.063,0.003,0.000,-0.060,-0.020,0.015,0.995,0.010,0.002,0.002,0.002,0.000,0.000,0.000,0.000,0,2,0,3,7,255,1440,250,0,0,-89.590,0.584,-31.154
EX0521-092111,5,C09,prep,2288,2288,0,457189.091,0.685,-0.678,0.193,0.187,0,0,0,0,0,0,0,0,0,0.000,0,0,0.122,0.004,0.000,-0.120,-0.020,0.013,0.993,0.011,-0.002,0.004,-0.002,0.000,0.000,0.000,0.000,0,2,0,3,7,255,1440,250,0,0,-89.590,0.584,-31.154
EX0521-092111,5,C09,prep,2288,2288,0,457194.092,0.685,-0.678,0.193,0.187,0,0,0,0,0,0,0,0,0,0.000,0,0,0.100,0.004,0.000,-0.060,-0.080,0.015,0.995,0.011,0.000,0.004,0.002,0.000,0.000,0.000,0.000,0,2,0,3,7,255,1440,250,0,0,-89.590,0.584,-31.154
EX0521-092111,5,C09,prep,2289,2289,0,457199.092,0.685,-0.678,0.193,0.187,0,0,0,0,0,0,0,0,0,0.000,0,0,0.087,0.004,-0.060,-0.060,-0.020,0.016,0.995,0.011,0.000,-0.004,0.002,0.000,0.000,0.000,0.000,0,2,0,3,7,255,1440,250,0,0,-89.591,0.585,-31.154
EX0521-092111,5,C09,prep,2289,2289,0,457204.092,0.685,-0.678,0.193,0.187,0,0,0,0,0,0,0,0,0,0.000,0,0,0.144,0.004,0.000,-0.120,-0.080,0.014,0.994,0.011,0.000,-0.004,0.002,0.000,0.000,0.000,0.000,0,2,0,3,7,255,1440,250,0,0,-89.591,0.585,-31.154
EX0521-092111,5,C09,prep,2290,2290,0,457209.092,0.685,-0.678,0.193,0.187,0,0,0,0,0,0,0,0,0,0.000,0,0,0.100,0.006,0.000,-0.060,-0.080,0.015,0.994,0.011,0.004,-0.004,-0.002,0.000,0.000,0.000,0.000,0,2,0,3,7,255,1440,250,0,0,-89.591,0.586,-31.154
EX0521-092111,5,C09,prep,2290,2290,0,457214.091,0.685,-0.678,0.193,0.187,0,0,0,0,0,0,0,0,0,0.000,0,0,0.063,0.002,0.000,-0.060,-0.020,0.014,0.995,0.010,0.000,-0.002,-0.002,0.000,0.000,0.000,0.000,0,2,0,3,7,255,1440,250,0,0,-89.592,0.586,-31.154
EX0521-092111,5,C09,prep,2316,2316,0,457219.092,0.685,-0.678,0.193,0.187,0,0,0,0,0,0,0,0,0,0.000,0,0,0.100,0.006,0.000,-0.060,-0.080,0.015,0.995,0.012,0.000,-0.006,0.006,0.000,0.000,0.000,0.000,0,2,0,3,7,255,1440,250,0,0,-89.592,0.585,-31.154
EX0521-092111,5,C09,prep,2316,2316,0,457224.092,0.685,-0.678,0.193,0.187,0,0,0,0,0,0,0,0,0,0.000,0,0,0.063,0.009,0.000,-0.060,-0.020,0.014,0.994,0.012,-0.004,-0.008,0.006,0.000,0.000,0.000,0.000,0,2,0,3,7,255,1440,250,0,0,-89.588,0.585,-31.154
EX0521-092111,5,C09,prep,2316,2316,0,457229.092,0.685,-0.678,0.193,0.187,0,0,0,0,0,0,0,0,0,0.000,0,0,0.063,0.009,0.000,-0.060,-0.020,0.015,0.995,0.012,-0.004,-0.008,0.006,0.000,0.000,0.000,0.000,0,2,0,3,7,255,1440,250,0,0,-89.588,0.585,-31.154
EX0521-092111,5,C09,prep,2316,2316,0,457234.091,0.685,-0.678,0.193,0.187,0,0,0,0,0,0,0,0,0,0.000,0,0,0.122,0.010,0.000,-0.120,-0.020,0.014,0.995,0.012,-0.006,-0.008,0.006,0.000,0.000,0.000,0.000,0,2,0,3,7,255,1440,250,0,0,-89.588,0.585,-31.154
EX0521-092111,5,C09,prep,2317,2317,0,457239.091,0.685,-0.678,0.193,0.187,0,0,0,0,0,0,0,0,0,0.000,0,0,0.100,0.007,0.000,-0.060,-0.080,0.013,0.996,0.010,-0.006,-0.004,0.006,0.000,0.000,0.000,0.000,0,2,0,3,7,255,1440,250,0,0,-89.589,0.584,-31.154
EX0521-092111,5,C09,prep,2317,2317,0,457244.092,0.685,-0.678,0.193,0.187,0,0,0,0,0,0,0,0,0,0.000,0,0,0.063,0.007,-0.060,0.000,-0.020,0.014,0.996,0.012,-0.006,-0.004,0.012,0.000,0.000,0.000,0.000,0,2,0,3,7,255,1440,250,0,0,-89.589,0.584,-31.154
EX0521-092111,5,C09,prep,2335,2335,0,457249.092,0.685,-0.678,0.193,0.187,0,0,0,0,0,0,0,0,0,0.000,0,0,0.087,0.008,-0.060,-0.060,-0.020,0.015,0.995,0.012,-0.006,-0.006,0.012,0.000,0.000,0.000,0.000,0,2,0,3,7,255,1440,250,0,0,-89.589,0.585,-31.154
EX0521-092111,5,C09,prep,2335,2335,0,457254.091,0.685,-0.678,0.193,0.187,0,0,0,0,0,0,0,0,0,0.000,0,0,0.087,0.008,0.060,-0.060,-0.020,0.014,0.994,0.011,-0.006,-0.006,0.002,0.000,0.000,0.000,0.000,0,2,0,3,7,255,1440,250,0,0,-89.589,0.585,-31.154
EX0521-092111,5,C09,prep,2335,2335,0,457259.091,0.685,-0.678,0.193,0.187,0,0,0,0,0,0,0,0,0,0.000,0,0,0.087,0.004,-0.060,-0.060,-0.020,0.015,0.995,0.010,0.002,0.004,0.002,0.000,0.000,0.000,0.000,0,2,0,3,7,255,1440,250,0,0,-89.590,0.585,-31.154
EX0521-092111,5,C09,prep,2335,2335,0,457264.092,0.685,-0.678,0.193,0.187,0,0,0,0,0,0,0,0,0,0.000,0,0,0.087,0.004,0.060,-0.060,-0.020,0.015,0.994,0.011,0.002,0.004,-0.004,0.000,0.000,0.000,0.000,0,2,0,3,7,255,1440,250,0,0,-89.590,0.584,-31.154
EX0521-092111,5,C09,prep,2367,2367,0,457269.092,0.685,-0.678,0.193,0.187,0,0,0,0,0,0,0,0,0,0.000,0,0,0.063,0.004,0.000,-0.060,-0.020,0.016,0.994,0.011,0.004,0.000,-0.002,0.000,0.000,0.000,0.000,0,2,0,3,7,255,1440,250,0,0,-89.590,0.586,-31.154
EX0521-092111,5,C09,prep,2367,2367,0,457274.092,0.685,-0.678,0.193,0.187,0,0,0,0,0,0,0,0,0,0.000,0,0,0.156,0.002,-0.060,-0.120,-0.080,0.015,0.995,0.011,0.002,0.000,-0.002,0.000,0.000,0.000,0.000,0,2,0,3,7,255,1440,250,0,0,-89.591,0.585,-31.154
EX0521-092111,5,C09,prep,2367,2367,0,457279.095,0.685,-0.678,0.193,0.187,0,0,0,0,0,0,0,0,0,0.000,0,0,0.063,0.003,0.000,-0.060,-0.020,0.014,0.995,0.012,0.002,-0.002,0.002,0.000,0.000,0.000,0.000,0,2,0,3,7,255,1440,250,0,0,-89.591,0.585,-31.154
EX0521-092111,5,C09,prep,2367,2367,0,457284.091,0.685,-0.678,0.193,0.187,0,0,0,0,0,0,0,0,0,0.000,0,0,0.063,0.003,0.000,-0.060,-0.020,0.015,0.996,0.011,0.002,-0.002,0.006,0.000,0.000,0.000,0.000,0,2,0,3,7,255,1440,250,0,0,-89.591,0.585,-31.154
EX0521-092111,5,C09,prep,2367,2367,0,457289.092,0.685,-0.678,0.193,0.187,0,0,0,0,0,0,0,0,0,0.000,0,0,0.144,0.004,0.000,-0.120,-0.080,0.015,0.995,0.010,0.004,-0.002,0.006,0.000,0.000,0.000,0.000,0,2,0,3,7,255,1440,250,0,0,-89.592,0.584,-31.154
EX0521-092111,5,C09,prep,2367,2367,0,457294.092,0.685,-0.678,0.193,0.187,0,0,0,0,0,0,0,0,0,0.000,0,0,0.063,0.006,0.000,-0.060,-0.020,0.014,0.994,0.010,0.004,0.004,0.006,0.000,0.000,0.000,0.000,0,2,0,3,7,255,1440,250,0,0,-89.592,0.584,-31.154
EX0521-092111,5,C09,prep,2383,2383,0,457299.092,0.685,-0.678,0.193,0.187,0,0,0,0,0,0,0,0,0,0.000,0,0,0.063,0.006,0.000,-0.060,-0.020,0.015,0.996,0.010,0.004,0.004,0.006,0.000,0.000,0.000,0.000,0,2,0,3,7,255,1440,250,0,0,-89.592,0.584,-31.154
EX0521-092111,5,C09,prep,2383,2383,0,457304.091,0.685,-0.678,0.193,0.187,0,0,0,0,0,0,0,0,0,0.000,0,0,0.063,0.006,0.000,-0.060,-0.020,0.015,0.995,0.010,0.004,0.004,0.006,0.000,0.000,0.000,0.000,0,2,0,3,7,255,1440,250,0,0,-89.592,0.584,-31.154
EX0521-092111,5,C09,prep,2383,2383,0,457309.091,0.685,-0.678,0.193,0.187,0,0,0,0,0,0,0,0,0,0.000,0,0,0.072,0.006,0.000,-0.060,0.040,0.014,0.995,0.011,0.004,0.004,0.006,0.000,0.000,0.000,0.000,0,2,0,3,7,255,1440,250,0,0,-89.593,0.583,-31.154
EX0521-092111,5,C09,prep,2383,2383,0,457314.092,0.685,-0.678,0.193,0.187,0,0,0,0,0,0,0,0,0,0.000,0,0,0.100,0.003,-0.060,0.000,-0.080,0.015,0.995,0.012,-0.002,-0.002,0.002,0.000,0.000,0.000,0.000,0,2,0,3,7,255,1440,250,0,0,-89.588,0.584,-31.154
EX0521-092111,5,C09,prep,2399,2399,0,457319.092,0.685,-0.678,0.193,0.187,0,0,0,0,0,0,0,0,0,0.000,0,0,0.136,0.003,0.060,-0.120,-0.020,0.014,0.996,0.011,-0.002,-0.002,0.002,0.000,0.000,0.000,0.000,0,2,0,3,7,255,1440,250,0,0,-89.589,0.584,-31.154
EX0521-092111,5,C09,prep,2399,2399,0,457324.092,0.685,-0.678,0.193,0.187,0,0,0,0,0,0,0,0,0,0.000,0,0,0.100,0.004,0.000,-0.060,-0.080,0.014,0.994,0.011,-0.002,0.004,0.002,0.000,0.000,0.000,0.000,0,2,0,3,7,255,1440,250,0,0,-89.589,0.584,-31.154
EX0521-092111,5,C09,prep,2421,2421,0,457329.091,0.685,-0.678,0.193,0.187,0,0,0,0,0,0,0,0,0,0.000,0,0,0.122,0.004,0.000,-0.120,-0.020,0.015,0.994,0.011,-0.002,0.004,-0.004,0.000,0.000,0.000,0.000,0,2,0,3,7,255,1440,250,0,0,-89.589,0.584,-31.154
EX0521-092111,5,C09,prep,2421,2421,0,457334.091,0.685,-0.678,0.193,0.187,0,0,0,0,0,0,0,0,0,0.000,0,0,0.063,0.004,0.000,-0.060,-0.020,0.015,0.994,0.011,0.000,-0.004,-0.004,0.000,0.000,0.000,0.000,0,2,0,3,7,255,1440,250,0,0,-89.590,0.583,-31.154
EX0521-092111,5,C09,prep,2421,2421,0,457339.092,0.685,-0.678,0.193,0.187,0,0,0,0,0,0,0,0,0,0.000,0,0,0.063,0.004,0.000,-0.060,-0.020,0.014,0.995,0.011,0.000,-0.004,-0.004,0.000,0.000,0.000,0.000,0,2,0,3,7,255,1440,250,0,0,-89.590,0.583,-31.154
EX0521-092111,5,C09,prep,2421,2421,0,457344.092,0.685,-0.678,0.193,0.187,0,0,0,0,0,0,0,0,0,0.000,0,0,0.020,0.003,0.000,0.000,-0.020,0.014,0.995,0.011,-0.002,0.002,0.002,0.000,0.000,0.000,0.000,0,2,0,3,7,255,1440,250,0,0,-89.590,0.583,-31.154
EX0521-092111,5,C09,prep,2431,2431,0,457349.091,0.685,-0.678,0.193,0.187,0,0,0,0,0,0,0,0,0,0.000,0,0,0.063,0.003,0.000,-0.060,-0.020,0.015,0.996,0.011,-0.002,0.002,0.002,0.000,0.000,0.000,0.000,0,2,0,3,7,255,1440,250,0,0,-89.590,0.583,-31.154
EX0521-092111,5,C09,prep,2431,2431,0,457354.091,0.685,-0.678,0.193,0.187,0,0,0,0,0,0,0,0,0,0.000,0,0,0.100,0.002,0.000,-0.060,-0.080,0.015,0.995,0.011,0.002,0.000,0.002,0.000,0.000,0.000,0.000,0,2,0,3,7,255,1440,250,0,0,-89.591,0.582,-31.154
EX0521-092111,5,C09,prep,2453,2453,0,457359.095,0.685,-0.678,0.193,0.187,0,0,0,0,0,0,0,0,0,0.000,0,0,0.087,0.002,-0.060,-0.060,-0.020,0.014,0.995,0.012,0.002,0.000,0.002,0.000,0.000,0.000,0.000,0,2,0,3,7,255,1440,250,0,0,-89.591,0.582,-31.154
EX0521-092111,5,C09,prep,2453,2453,0,457364.092,0.685,-0.678,0.193,0.187,0,0,0,0,0,0,0,0,0,0.000,0,0,0.087,0.004,-0.060,-0.060,-0.020,0.014,0.994,0.011,-0.004,-0.002,0.002,0.000,0.000,0.000,0.000,0,2,0,3,7,255,1440,250,0,0,-89.591,0.582,-31.154
EX0521-092111,5,C09,prep,2463,2463,0,457369.092,0.685,-0.678,0.193,0.187,0,0,0,0,0,0,0,0,0,0.000,0,0,0.087,0.004,-0.060,-0.060,-0.020,0.014,0.994,0.010,-0.004,-0.002,-0.004,0.000,0.000,0.000,0.000,0,2,0,3,7,255,1440,250,0,0,-89.592,0.581,-31.154
EX0521-092111,5,C09,prep,2463,2463,0,457374.091,0.685,-0.678,0.193,0.187,0,0,0,0,0,0,0,0,0,0.000,0,0,0.063,0.002,0.000,-0.060,-0.020,0.015,0.994,0.011,-0.002,0.000,-0.004,0.000,0.000,0.000,0.000,0,2,0,3,7,255,1440,250,0,0,-89.592,0.581,-31.154
EX0521-092111,5,C09,prep,2465,2465,0,457379.094,0.685,-0.678,0.193,0.187,0,0,0,0,0,0,0,0,0,0.000,0,0,0.087,0.004,-0.060,-0.060,-0.020,0.015,0.994,0.010,0.002,0.004,-0.004,0.000,0.000,0.000,0.000,0,2,0,3,7,255,1440,250,0,0,-89.592,0.581,-31.154
EX0521-092111,5,C09,prep,2465,2465,0,457384.092,0.685,-0.678,0.193,0.187,0,0,0,0,0,0,0,0,0,0.000,0,0,0.020,0.002,0.000,0.000,-0.020,0.014,0.994,0.012,0.002,0.000,-0.004,0.000,0.000,0.000,0.000,0,2,0,3,7,255,1440,250,0,0,-89.593,0.581,-31.154
