experiment_id,condition_order_index,condition_id,condition_phase,condition_phase_elapsed_ms,condition_elapsed_ms,is_stimulation_on,t_ms,R_q0,R_q1,R_q2,R_q3,R_heel1,R_mid1,R_fore1,R_heel2,R_fore3,R_mid2,R_fore4,R_fore2,R_cadence,R_speed,R_steps,R_zupt,R_gyroNorm,R_accH,R_gyro_x,R_gyro_y,R_gyro_z,R_acc_x,R_acc_y,R_acc_z,R_nav_ax,R_nav_ay,R_nav_az,R_stepVel,R_stepVelj,R_stepDispRaw,R_stepDispZUPT,R_gaitEvent,R_motorMode,R_motorActive,R_motorAlignment,R_motorRegionMask,R_motorAmplitude,R_motorIntervalMs,R_motorDurationMs,R_motorPhaseMs,R_motorCycleMs,R_roll,R_pitch,R_yaw
EX0521-092111,7,C17,prep,43,43,0,521789.092,0.685,-0.677,0.193,0.188,0,0,0,0,0,0,0,0,0,0.000,0,0,0.332,0.018,0.300,0.020,-0.140,0.015,0.995,0.010,0.014,0.012,0.006,0.000,0.000,0.000,0.000,0,2,0,2,7,255,960,250,0,0,-89.517,0.592,-31.213
EX0521-092111,7,C17,prep,43,43,0,521794.093,0.685,-0.677,0.193,0.188,0,0,0,0,0,0,0,0,0,0.000,0,0,0.961,0.020,0.360,0.880,-0.140,0.016,0.993,0.009,0.016,0.012,0.006,0.000,0.000,0.000,0.000,0,2,0,2,7,255,960,250,0,0,-89.517,0.592,-31.209
EX0521-092111,7,C17,prep,43,43,0,521799.092,0.685,-0.677,0.193,0.188,0,0,0,0,0,0,0,0,0,0.000,0,0,0.322,0.020,0.240,0.200,-0.080,0.014,0.992,0.012,0.016,0.012,-0.008,0.000,0.000,0.000,0.000,0,2,0,2,7,255,960,250,0,0,-89.517,0.592,-31.209
EX0521-092111,7,C17,prep,43,43,0,521804.093,0.685,-0.677,0.193,0.188,0,0,0,0,0,0,0,0,0,0.000,0,0,0.237,0.007,-0.120,0.200,0.040,0.013,0.992,0.016,-0.006,-0.004,-0.022,0.000,0.000,0.000,0.000,0,2,0,2,7,255,960,250,0,0,-89.510,0.592,-31.209
EX0521-092111,7,C17,prep,47,47,0,521809.091,0.685,-0.677,0.193,0.188,0,0,0,0,0,0,0,0,0,0.000,0,0,0.841,0.012,-0.800,0.140,0.220,0.016,0.993,0.012,-0.006,-0.010,-0.022,0.000,0.000,0.000,0.000,0,2,0,2,7,255,960,250,0,0,-89.506,0.593,-31.209
EX0521-092111,7,C17,prep,47,47,0,521814.091,0.685,-0.677,0.193,0.188,0,0,0,0,0,0,0,0,0,0.000,0,0,0.470,0.013,-0.440,-0.040,0.160,0.013,1.002,0.007,0.008,-0.010,-0.012,0.000,0.000,0.000,0.000,0,2,0,2,7,255,960,250,0,0,-89.507,0.592,-31.209
EX0521-092111,7,C17,prep,47,47,0,521819.091,0.685,-0.677,0.193,0.188,0,0,0,0,0,0,0,0,0,0.000,0,0,0.394,0.029,0.240,-0.280,-0.140,0.015,0.995,0.008,0.012,0.026,0.006,0.000,0.000,0.000,0.000,0,2,0,2,7,255,960,250,0,0,-89.507,0.592,-31.209
EX0521-092111,7,C17,prep,47,47,0,521824.092,0.685,-0.677,0.193,0.188,0,0,0,0,0,0,0,0,0,0.000,0,0,0.221,0.029,0.000,-0.220,-0.020,0.015,0.988,0.013,0.012,0.026,0.006,0.000,0.000,0.000,0.000,0,2,0,2,7,255,960,250,0,0,-89.507,0.592,-31.209
EX0521-092111,7,C17,prep,47,47,0,521829.092,0.685,-0.677,0.193,0.188,0,0,0,0,0,0,0,0,0,0.000,0,0,0.382,0.004,-0.360,0.080,0.100,0.015,0.997,0.012,0.000,-0.004,0.006,0.000,0.000,0.000,0.000,0,2,0,2,7,255,960,250,0,0,-89.507,0.592,-31.209
EX0521-092111,7,C17,prep,47,47,0,521834.093,0.685,-0.677,0.193,0.188,0,0,0,0,0,0,0,0,0,0.000,0,0,0.629,0.004,0.540,-0.040,-0.320,0.014,1.000,0.008,0.000,-0.004,0.030,0.000,0.000,0.000,0.000,0,2,0,2,7,255,960,250,0,0,-89.507,0.592,-31.209
EX0521-092111,7,C17,prep,65,65,0,521839.092,0.685,-0.677,0.193,0.188,0,0,0,0,0,0,0,0,0,0.000,0,0,0.424,0.006,-0.360,-0.040,0.220,0.015,0.984,0.012,0.004,-0.004,0.030,0.000,0.000,0.000,0.000,0,2,0,2,7,255,960,250,0,0,-89.508,0.593,-31.209
EX0521-092111,7,C17,prep,65,65,0,521844.091,0.685,-0.677,0.193,0.188,0,0,0,0,0,0,0,0,0,0.000,0,0,0.462,0.009,-0.440,-0.100,0.100,0.014,1.001,0.013,0.004,-0.008,0.054,0.000,0.000,0.000,0.000,0,2,0,2,7,255,960,250,0,0,-89.508,0.593,-31.209
EX0521-092111,7,C17,prep,65,65,0,521849.091,0.685,-0.677,0.193,0.188,0,0,0,0,0,0,0,0,0,0.000,0,0,1.371,0.009,1.220,0.080,-0.620,0.015,0.992,0.010,0.004,-0.008,-0.018,0.000,0.000,0.000,0.000,0,2,0,2,7,255,960,250,0,0,-89.514,0.590,-31.209
EX0521-092111,7,C17,prep,65,65,0,521854.091,0.685,-0.677,0.193,0.188,0,0,0,0,0,0,0,0,0,0.000,0,0,1.787,0.003,-1.600,-0.160,0.780,0.015,0.990,0.012,0.002,-0.002,-0.018,0.000,0.000,0.000,0.000,0,2,0,2,7,255,960,250,0,0,-89.506,0.594,-31.209
EX0521-092111,7,C17,prep,79,79,0,521859.091,0.685,-0.677,0.193,0.188,0,0,0,0,0,0,0,0,0,0.000,0,0,1.485,0.014,1.280,0.140,-0.740,0.012,1.002,0.012,0.002,0.014,-0.018,0.000,0.000,0.000,0.000,0,2,0,2,7,255,960,250,0,0,-89.513,0.590,-31.209
EX0521-092111,7,C17,prep,79,79,0,521864.092,0.685,-0.677,0.193,0.188,0,0,0,0,0,0,0,0,0,0.000,0,0,0.947,0.003,-0.800,-0.160,0.480,0.016,0.980,0.013,0.002,-0.002,-0.042,0.000,0.000,0.000,0.000,0,2,0,2,7,255,960,250,0,0,-89.509,0.590,-31.209
EX0521-092111,7,C17,prep,105,105,0,521869.092,0.685,-0.677,0.193,0.188,0,0,0,0,0,0,0,0,0,0.000,0,0,0.313,0.017,0.240,0.020,-0.200,0.012,1.010,0.009,-0.010,0.014,0.078,0.000,0.000,0.000,0.000,0,2,0,2,7,255,960,250,0,0,-89.509,0.590,-31.209
EX0521-092111,7,C17,prep,105,105,0,521874.092,0.685,-0.677,0.193,0.188,0,0,0,0,0,0,0,0,0,0.000,0,0,0.118,0.018,0.060,-0.100,-0.020,0.017,0.984,0.015,0.004,-0.018,-0.098,0.000,0.000,0.000,0.000,0,2,0,2,7,255,960,250,0,0,-89.504,0.592,-31.209
EX0521-092111,7,C17,prep,105,105,0,521879.092,0.685,-0.677,0.193,0.188,0,0,0,0,0,0,0,0,0,0.000,0,0,0.255,0.036,-0.180,0.020,0.180,0.013,1.000,0.007,0.004,0.036,0.054,0.000,0.000,0.000,0.000,0,2,0,2,7,255,960,250,0,0,-89.504,0.592,-31.209
EX0521-092111,7,C17,prep,105,105,0,521884.092,0.685,-0.677,0.193,0.188,0,0,0,0,0,0,0,0,0,0.000,0,0,0.221,0.006,-0.060,-0.160,-0.140,0.014,0.998,0.013,0.004,-0.004,0.034,0.000,0.000,0.000,0.000,0,2,0,2,7,255,960,250,0,0,-89.504,0.592,-31.209
EX0521-092111,7,C17,prep,105,105,0,521889.092,0.685,-0.677,0.193,0.188,0,0,0,0,0,0,0,0,0,0.000,0,0,0.369,0.012,0.360,0.080,-0.020,0.016,0.982,0.010,0.012,0.002,0.034,0.000,0.000,0.000,0.000,0,2,0,2,7,255,960,250,0,0,-89.505,0.593,-31.209
EX0521-092111,7,C17,prep,105,105,0,521894.091,0.685,-0.677,0.193,0.188,0,0,0,0,0,0,0,0,0,0.000,0,0,0.313,0.003,-0.300,-0.040,-0.080,0.013,1.009,0.009,0.002,0.002,0.034,0.000,0.000,0.000,0.000,0,2,0,2,7,255,960,250,0,0,-89.505,0.593,-31.209
EX0521-092111,7,C17,prep,115,115,0,521899.091,0.685,-0.677,0.193,0.188,0,0,0,0,0,0,0,0,0,0.000,0,0,0.157,0.003,0.120,-0.100,-0.020,0.017,0.981,0.017,0.002,0.002,-0.114,0.000,0.000,0.000,0.000,0,2,0,2,7,255,960,250,0,0,-89.498,0.595,-31.209
EX0521-092111,7,C17,prep,115,115,0,521904.091,0.685,-0.677,0.193,0.188,0,0,0,0,0,0,0,0,0,0.000,0,0,0.359,0.028,0.300,0.140,-0.140,0.014,1.002,0.005,0.002,0.028,0.076,0.000,0.000,0.000,0.000,0,2,0,2,7,255,960,250,0,0,-89.498,0.595,-31.209
EX0521-092111,7,C17,prep,147,147,0,521909.092,0.685,-0.677,0.193,0.188,0,0,0,0,0,0,0,0,0,0.000,0,0,0.902,0.008,-0.860,-0.220,0.160,0.015,0.997,0.013,-0.002,-0.008,0.030,0.000,0.000,0.000,0.000,0,2,0,2,7,255,960,250,0,0,-89.494,0.595,-31.209
EX0521-092111,7,C17,prep,147,147,0,521914.092,0.685,-0.677,0.193,0.188,0,0,0,0,0,0,0,0,0,0.000,0,0,0.793,0.008,0.780,-0.040,-0.140,0.016,0.982,0.014,0.002,-0.008,0.030,0.000,0.000,0.000,0.000,0,2,0,2,7,255,960,250,0,0,-89.496,0.595,-31.209
EX0521-092111,7,C17,prep,147,147,0,521919.092,0.685,-0.677,0.193,0.188,0,0,0,0,0,0,0,0,0,0.000,0,0,1.046,0.008,0.860,0.200,-0.560,0.012,1.009,0.004,0.002,-0.008,0.030,0.000,0.000,0.000,0.000,0,2,0,2,7,255,960,250,0,0,-89.501,0.595,-31.209
EX0521-092111,7,C17,prep,147,147,0,521924.092,0.685,-0.677,0.193,0.188,0,0,0,0,0,0,0,0,0,0.000,0,0,2.314,0.030,-2.200,-0.280,0.660,0.014,0.984,0.016,0.002,-0.030,-0.096,0.000,0.000,0.000,0.000,0,2,0,2,7,255,960,250,0,0,-89.488,0.598,-31.209
EX0521-092111,7,C17,prep,148,148,0,521929.092,0.685,-0.677,0.193,0.188,0,0,0,0,0,0,0,0,0,0.000,0,0,1.178,0.027,1.160,-0.040,-0.200,0.015,0.992,0.015,-0.012,-0.024,-0.024,0.000,0.000,0.000,0.000,0,2,0,2,7,255,960,250,0,0,-89.492,0.598,-31.209
EX0521-092111,7,C17,prep,148,148,0,521934.093,0.685,-0.677,0.193,0.188,0,0,0,0,0,0,0,0,0,0.000,0,0,1.920,0.027,1.760,0.200,-0.740,0.013,1.002,0.004,-0.012,-0.024,-0.024,0.000,0.000,0.000,0.000,0,2,0,2,7,255,960,250,0,0,-89.501,0.594,-31.209
EX0521-092111,7,C17,prep,168,168,0,521939.091,0.685,-0.677,0.193,0.188,0,0,0,0,0,0,0,0,0,0.000,0,0,3.370,0.014,-3.180,-0.280,1.080,0.015,0.989,0.013,0.000,-0.014,-0.024,0.000,0.000,0.000,0.000,0,2,0,2,7,255,960,250,0,0,-89.486,0.600,-31.209
EX0521-092111,7,C17,prep,168,168,0,521944.091,0.685,-0.677,0.193,0.188,0,0,0,0,0,0,0,0,0,0.000,0,0,1.320,0.014,1.280,-0.040,-0.320,0.015,0.996,0.016,0.000,-0.014,0.020,0.000,0.000,0.000,0.000,0,2,0,2,7,255,960,250,0,0,-89.490,0.600,-31.209
EX0521-092111,7,C17,prep,169,169,0,521949.092,0.685,-0.677,0.193,0.188,0,0,0,0,0,0,0,0,0,0.000,0,0,2.304,0.014,2.200,0.080,-0.680,0.016,0.989,0.005,0.000,-0.014,-0.048,0.000,0.000,0.000,0.000,0,2,0,2,7,255,960,250,0,0,-89.501,0.597,-31.209
EX0521-092111,7,C17,prep,169,169,0,521954.092,0.685,-0.677,0.193,0.188,0,0,0,0,0,0,0,0,0,0.000,0,0,3.249,0.027,-3.120,-0.100,0.900,0.013,1.002,0.010,-0.006,0.026,0.020,0.000,0.000,0.000,0.000,0,2,0,2,7,255,960,250,0,0,-89.486,0.601,-31.209
EX0521-092111,7,C17,prep,169,169,0,521959.093,0.685,-0.677,0.193,0.188,0,0,0,0,0,0,0,0,0,0.000,0,0,0.655,0.027,0.600,-0.040,-0.260,0.014,0.989,0.017,-0.006,0.026,-0.046,0.000,0.000,0.000,0.000,0,2,0,2,7,255,960,250,0,0,-89.482,0.601,-31.209
EX0521-092111,7,C17,prep,169,169,0,521964.093,0.685,-0.677,0.193,0.187,0,0,0,0,0,0,0,0,0,0.000,0,0,1.299,0.021,1.280,-0.100,-0.200,0.015,0.991,0.009,-0.006,0.020,-0.032,0.000,0.000,0.000,0.000,0,2,0,2,7,255,960,250,0,0,-89.488,0.601,-31.209
EX0521-092111,7,C17,prep,206,206,0,521969.092,0.685,-0.677,0.193,0.187,0,0,0,0,0,0,0,0,0,0.000,0,0,0.457,0.027,-0.420,-0.160,-0.080,0.014,1.006,0.006,0.018,0.020,-0.032,0.000,0.000,0.000,0.000,0,2,0,2,7,255,960,250,0,0,-89.488,0.601,-31.209
EX0521-092111,7,C17,prep,206,206,0,521974.092,0.685,-0.677,0.193,0.188,0,0,0,0,0,0,0,0,0,0.000,0,0,1.330,0.027,-1.280,-0.040,0.360,0.017,0.981,0.017,0.018,0.020,-0.032,0.000,0.000,0.000,0.000,0,2,0,2,7,255,960,250,0,0,-89.480,0.601,-31.209
EX0521-092111,7,C17,prep,206,206,0,521979.091,0.685,-0.677,0.193,0.188,0,0,0,0,0,0,0,0,0,0.000,0,0,0.665,0.012,0.660,0.080,-0.020,0.013,1.001,0.012,-0.006,0.010,0.068,0.000,0.000,0.000,0.000,0,2,0,2,7,255,960,250,0,0,-89.483,0.601,-31.209
EX0521-092111,7,C17,prep,206,206,0,521984.091,0.685,-0.677,0.193,0.187,0,0,0,0,0,0,0,0,0,0.000,0,0,0.886,0.012,0.800,0.020,-0.380,0.013,0.996,0.006,-0.006,0.010,0.018,0.000,0.000,0.000,0.000,0,2,0,2,7,255,960,250,0,0,-89.487,0.601,-31.209
EX0521-092111,7,C17,prep,208,208,0,521989.091,0.685,-0.677,0.193,0.187,0,0,0,0,0,0,0,0,0,0.000,0,0,1.772,0.011,-1.660,-0.160,0.600,0.015,0.991,0.012,0.004,0.010,0.018,0.000,0.000,0.000,0.000,0,2,0,2,7,255,960,250,0,0,-89.479,0.604,-31.209
EX0521-092111,7,C17,prep,208,208,0,521994.092,0.685,-0.677,0.193,0.187,0,0,0,0,0,0,0,0,0,0.000,0,0,1.051,0.006,0.980,0.020,-0.380,0.015,0.998,0.013,0.004,-0.004,0.018,0.000,0.000,0.000,0.000,0,2,0,2,7,255,960,250,0,0,-89.484,0.604,-31.209
EX0521-092111,7,C17,prep,223,223,0,521999.092,0.685,-0.677,0.193,0.187,0,0,0,0,0,0,0,0,0,0.000,0,0,0.450,0.006,0.420,0.080,-0.140,0.016,0.991,0.008,0.004,-0.004,-0.028,0.000,0.000,0.000,0.000,0,2,0,2,7,255,960,250,0,0,-89.485,0.605,-31.209
EX0521-092111,7,C17,prep,223,223,0,522004.092,0.685,-0.677,0.193,0.187,0,0,0,0,0,0,0,0,0,0.000,0,0,1.282,0.009,-1.220,-0.160,0.360,0.014,1.000,0.012,-0.004,0.008,0.038,0.000,0.000,0.000,0.000,0,2,0,2,7,255,960,250,0,0,-89.479,0.605,-31.209
EX0521-092111,7,C17,prep,223,223,0,522009.092,0.685,-0.677,0.193,0.187,0,0,0,0,0,0,0,0,0,0.000,0,0,0.654,0.009,0.600,0.020,-0.260,0.016,0.992,0.013,0.004,0.008,-0.024,0.000,0.000,0.000,0.000,0,2,0,2,7,255,960,250,0,0,-89.482,0.606,-31.209
EX0521-092111,7,C17,prep,223,223,0,522014.092,0.685,-0.677,0.193,0.187,0,0,0,0,0,0,0,0,0,0.000,0,0,0.123,0.009,0.060,-0.040,0.100,0.015,0.993,0.009,0.004,0.008,-0.010,0.000,0.000,0.000,0.000,0,2,0,2,7,255,960,250,0,0,-89.482,0.606,-31.209
EX0521-092111,7,C17,prep,256,256,0,522019.091,0.685,-0.677,0.193,0.187,0,0,0,0,0,0,0,0,0,0.000,0,0,0.326,0.015,-0.300,-0.100,-0.080,0.013,0.999,0.011,0.004,0.014,-0.010,0.000,0.000,0.000,0.000,0,2,0,2,7,255,960,250,0,0,-89.482,0.606,-31.209
EX0521-092111,7,C17,prep,256,256,0,522024.092,0.685,-0.677,0.193,0.187,0,0,0,0,0,0,0,0,0,0.000,0,0,0.118,0.016,-0.060,-0.100,-0.020,0.015,0.988,0.014,-0.008,0.014,-0.010,0.000,0.000,0.000,0.000,0,2,0,2,7,255,960,250,0,0,-89.478,0.606,-31.209
EX0521-092111,7,C17,prep,256,256,0,522029.091,0.685,-0.677,0.193,0.187,0,0,0,0,0,0,0,0,0,0.000,0,0,0.421,0.016,0.420,0.020,-0.020,0.013,0.999,0.009,-0.008,0.014,0.042,0.000,0.000,0.000,0.000,0,2,0,2,7,255,960,250,0,0,-89.478,0.606,-31.209
EX0521-092111,7,C17,prep,256,256,0,522034.093,0.685,-0.677,0.193,0.187,0,0,0,0,0,0,0,0,0,0.000,0,0,0.198,0.018,-0.180,0.020,-0.080,0.015,0.994,0.010,0.000,0.018,-0.006,0.000,0.000,0.000,0.000,0,2,0,2,7,255,960,250,0,0,-89.478,0.606,-31.209
EX0521-092111,7,C17,prep,256,256,0,522039.092,0.685,-0.677,0.193,0.187,0,0,0,0,0,0,0,0,0,0.000,0,0,0.597,0.018,-0.560,-0.100,0.180,0.015,0.991,0.013,0.000,0.018,-0.006,0.000,0.000,0.000,0.000,0,2,0,2,7,255,960,250,0,0,-89.479,0.606,-31.209
EX0521-092111,7,C17,prep,256,256,0,522044.092,0.685,-0.677,0.193,0.187,0,0,0,0,0,0,0,0,0,0.000,0,0,0.690,0.019,0.660,0.020,-0.200,0.013,0.997,0.011,-0.006,0.018,-0.006,0.000,0.000,0.000,0.000,0,2,0,2,7,255,960,250,0,0,-89.482,0.606,-31.209
EX0521-092111,7,C17,prep,271,271,0,522049.092,0.685,-0.677,0.193,0.187,0,0,0,0,0,0,0,0,0,0.000,0,0,0.128,0.019,-0.120,-0.040,-0.020,0.014,0.993,0.009,-0.006,0.018,-0.014,0.000,0.000,0.000,0.000,0,2,0,2,7,255,960,250,0,0,-89.482,0.606,-31.209
EX0521-092111,7,C17,prep,271,271,0,522054.092,0.685,-0.677,0.193,0.187,0,0,0,0,0,0,0,0,0,0.000,0,0,0.591,0.018,-0.560,-0.160,0.100,0.015,0.996,0.013,-0.002,0.018,0.014,0.000,0.000,0.000,0.000,0,2,0,2,7,255,960,250,0,0,-89.482,0.606,-31.209
EX0521-092111,7,C17,prep,271,271,0,522059.092,0.685,-0.677,0.193,0.187,0,0,0,0,0,0,0,0,0,0.000,0,0,0.710,0.004,0.660,0.020,-0.260,0.015,0.993,0.012,-0.002,-0.004,-0.010,0.000,0.000,0.000,0.000,0,2,0,2,7,255,960,250,0,0,-89.486,0.605,-31.209
EX0521-092111,7,C17,prep,271,271,0,522064.092,0.685,-0.677,0.193,0.187,0,0,0,0,0,0,0,0,0,0.000,0,0,0.161,0.004,-0.120,-0.040,0.100,0.014,0.995,0.009,-0.002,-0.004,0.004,0.000,0.000,0.000,0.000,0,2,0,2,7,255,960,250,0,0,-89.486,0.605,-31.209
EX0521-092111,7,C17,prep,287,287,0,522069.091,0.685,-0.677,0.193,0.187,0,0,0,0,0,0,0,0,0,0.000,0,0,0.444,0.003,-0.440,-0.040,0.040,0.014,0.995,0.012,-0.002,-0.002,0.004,0.000,0.000,0.000,0.000,0,2,0,2,7,255,960,250,0,0,-89.486,0.605,-31.209
EX0521-092111,7,C17,prep,287,287,0,522074.093,0.685,-0.677,0.193,0.187,0,0,0,0,0,0,0,0,0,0.000,0,0,0.313,0.003,0.300,-0.040,-0.080,0.015,0.991,0.012,0.002,-0.002,0.004,0.000,0.000,0.000,0.000,0,2,0,2,7,255,960,250,0,0,-89.487,0.605,-31.209
EX0521-092111,7,C17,prep,304,304,0,522079.091,0.685,-0.677,0.193,0.187,0,0,0,0,0,0,0,0,0,0.000,0,0,0.185,0.003,0.180,-0.040,-0.020,0.015,0.997,0.011,0.002,-0.002,0.004,0.000,0.000,0.000,0.000,0,2,0,2,7,255,960,250,0,0,-89.487,0.605,-31.209
EX0521-092111,7,C17,prep,304,304,0,522084.092,0.685,-0.677,0.193,0.187,0,0,0,0,0,0,0,0,0,0.000,0,0,0.317,0.008,-0.300,-0.100,-0.020,0.014,0.995,0.011,0.002,0.008,0.004,0.000,0.000,0.000,0.000,0,2,0,2,7,255,960,250,0,0,-89.487,0.605,-31.209
EX0521-092111,7,C17,prep,305,305,0,522089.092,0.685,-0.677,0.193,0.187,0,0,0,0,0,0,0,0,0,0.000,0,0,0.118,0.008,-0.060,-0.100,-0.020,0.014,0.993,0.012,-0.002,0.008,0.004,0.000,0.000,0.000,0.000,0,2,0,2,7,255,960,250,0,0,-89.487,0.605,-31.209
EX0521-092111,7,C17,prep,305,305,0,522094.092,0.685,-0.677,0.193,0.187,0,0,0,0,0,0,0,0,0,0.000,0,0,0.500,0.014,0.480,0.020,-0.140,0.014,0.998,0.010,-0.002,0.014,0.004,0.000,0.000,0.000,0.000,0,2,0,2,7,255,960,250,0,0,-89.487,0.605,-31.209
EX0521-092111,7,C17,prep,319,319,0,522099.092,0.685,-0.677,0.193,0.187,0,0,0,0,0,0,0,0,0,0.000,0,0,0.364,0.010,-0.360,-0.040,0.040,0.015,0.994,0.010,0.000,0.010,-0.006,0.000,0.000,0.000,0.000,0,2,0,2,7,255,960,250,0,0,-89.488,0.605,-31.209
EX0521-092111,7,C17,prep,319,319,0,522104.092,0.685,-0.677,0.193,0.187,0,0,0,0,0,0,0,0,0,0.000,0,0,0.185,0.010,-0.180,-0.040,-0.020,0.015,0.994,0.013,0.000,0.010,-0.006,0.000,0.000,0.000,0.000,0,2,0,2,7,255,960,250,0,0,-89.488,0.605,-31.209
EX0521-092111,7,C17,prep,351,351,0,522109.091,0.685,-0.677,0.193,0.187,0,0,0,0,0,0,0,0,0,0.000,0,0,0.500,0.011,0.480,0.020,-0.140,0.014,0.994,0.010,0.004,0.010,-0.006,0.000,0.000,0.000,0.000,0,2,0,2,7,255,960,250,0,0,-89.488,0.604,-31.209
EX0521-092111,7,C17,prep,351,351,0,522114.091,0.685,-0.677,0.193,0.187,0,0,0,0,0,0,0,0,0,0.000,0,0,0.189,0.015,-0.180,-0.040,0.040,0.014,0.995,0.009,0.004,0.014,0.000,0.000,0.000,0.000,0.000,0,2,0,2,7,255,960,250,0,0,-89.488,0.604,-31.209
EX0521-092111,7,C17,prep,351,351,0,522119.091,0.685,-0.677,0.193,0.187,0,0,0,0,0,0,0,0,0,0.000,0,0,0.289,0.015,-0.240,-0.160,-0.020,0.014,0.994,0.012,0.004,0.014,0.000,0.000,0.000,0.000,0.000,0,2,0,2,7,255,960,250,0,0,-89.488,0.604,-31.209
EX0521-092111,7,C17,prep,351,351,0,522124.092,0.685,-0.677,0.193,0.187,0,0,0,0,0,0,0,0,0,0.000,0,0,0.371,0.000,0.360,-0.040,-0.080,0.015,0.995,0.012,0.000,0.000,0.004,0.000,0.000,0.000,0.000,0,2,0,2,7,255,960,250,0,0,-89.489,0.604,-31.209
EX0521-092111,7,C17,prep,351,351,0,522129.092,0.685,-0.677,0.193,0.187,0,0,0,0,0,0,0,0,0,0.000,0,0,0.075,0.000,-0.060,-0.040,-0.020,0.015,0.996,0.010,0.000,0.000,0.004,0.000,0.000,0.000,0.000,0,2,0,2,7,255,960,250,0,0,-89.489,0.604,-31.209
EX0521-092111,7,C17,prep,351,351,0,522134.093,0.685,-0.677,0.193,0.187,0,0,0,0,0,0,0,0,0,0.000,0,0,0.303,0.006,-0.300,-0.040,-0.020,0.015,0.994,0.011,0.004,0.004,0.004,0.000,0.000,0.000,0.000,0,2,0,2,7,255,960,250,0,0,-89.489,0.604,-31.209
EX0521-092111,7,C17,prep,376,376,0,522139.092,0.685,-0.677,0.193,0.187,0,0,0,0,0,0,0,0,0,0.000,0,0,0.198,0.006,0.180,0.020,-0.080,0.014,0.993,0.012,0.004,0.004,0.000,0.000,0.000,0.000,0.000,0,2,0,2,7,255,960,250,0,0,-89.489,0.604,-31.209
EX0521-092111,7,C17,prep,376,376,0,522144.092,0.685,-0.677,0.193,0.187,0,0,0,0,0,0,0,0,0,0.000,0,0,0.198,0.004,0.180,0.020,-0.080,0.014,0.996,0.010,0.002,0.004,0.000,0.000,0.000,0.000,0.000,0,2,0,2,7,255,960,250,0,0,-89.489,0.604,-31.209
EX0521-092111,7,C17,prep,379,379,0,522149.092,0.685,-0.677,0.193,0.187,0,0,0,0,0,0,0,0,0,0.000,0,0,0.319,0.006,-0.300,-0.100,0.040,0.014,0.993,0.012,-0.004,0.004,-0.010,0.000,0.000,0.000,0.000,0,2,0,2,7,255,960,250,0,0,-89.490,0.604,-31.209
EX0521-092111,7,C17,prep,379,379,0,522154.091,0.685,-0.677,0.193,0.187,0,0,0,0,0,0,0,0,0,0.000,0,0,0.118,0.004,0.060,-0.100,-0.020,0.013,0.994,0.013,-0.004,0.002,0.000,0.000,0.000,0.000,0.000,0,2,0,2,7,255,960,250,0,0,-89.490,0.604,-31.209
EX0521-092111,7,C17,prep,379,379,0,522159.093,0.685,-0.677,0.193,0.187,0,0,0,0,0,0,0,0,0,0.000,0,0,0.346,0.004,0.300,-0.100,-0.140,0.014,0.996,0.010,-0.004,0.002,0.000,0.000,0.000,0.000,0.000,0,2,0,2,7,255,960,250,0,0,-89.490,0.603,-31.209
EX0521-092111,7,C17,prep,379,379,0,522164.093,0.685,-0.677,0.193,0.187,0,0,0,0,0,0,0,0,0,0.000,0,0,0.319,0.012,-0.300,-0.100,0.040,0.014,0.994,0.011,-0.002,0.012,0.000,0.000,0.000,0.000,0.000,0,2,0,2,7,255,960,250,0,0,-89.490,0.603,-31.209
EX0521-092111,7,C17,prep,385,385,0,522169.091,0.685,-0.677,0.193,0.187,0,0,0,0,0,0,0,0,0,0.000,0,0,0.108,0.012,-0.060,-0.040,-0.080,0.015,0.995,0.012,0.000,0.012,0.004,0.000,0.000,0.000,0.000,0,2,0,2,7,255,960,250,0,0,-89.490,0.603,-31.209
EX0521-092111,7,C17,prep,385,385,0,522174.092,0.685,-0.677,0.193,0.187,0,0,0,0,0,0,0,0,0,0.000,0,0,0.229,0.010,0.180,0.020,-0.140,0.014,0.995,0.011,0.002,0.010,0.004,0.000,0.000,0.000,0.000,0,2,0,2,7,255,960,250,0,0,-89.491,0.603,-31.209
EX0521-092111,7,C17,prep,399,399,0,522179.092,0.685,-0.677,0.193,0.187,0,0,0,0,0,0,0,0,0,0.000,0,0,0.133,0.010,-0.120,-0.040,0.040,0.014,0.995,0.010,0.002,0.010,0.004,0.000,0.000,0.000,0.000,0,2,0,2,7,255,960,250,0,0,-89.491,0.603,-31.209
EX0521-092111,7,C17,prep,399,399,0,522184.092,0.685,-0.677,0.193,0.187,0,0,0,0,0,0,0,0,0,0.000,0,0,0.157,0.010,-0.120,-0.100,-0.020,0.015,0.994,0.012,0.002,0.010,0.004,0.000,0.000,0.000,0.000,0,2,0,2,7,255,960,250,0,0,-89.491,0.603,-31.209
EX0521-092111,7,C17,prep,399,399,0,522189.092,0.685,-0.677,0.193,0.187,0,0,0,0,0,0,0,0,0,0.000,0,0,0.201,0.002,0.180,-0.040,-0.080,0.014,0.994,0.012,-0.002,0.000,-0.006,0.000,0.000,0.000,0.000,0,2,0,2,7,255,960,250,0,0,-89.491,0.603,-31.209
EX0521-092111,7,C17,prep,399,399,0,522194.091,0.685,-0.677,0.193,0.187,0,0,0,0,0,0,0,0,0,0.000,0,0,0.045,0.002,0.000,-0.040,-0.020,0.014,0.995,0.009,-0.002,0.000,-0.006,0.000,0.000,0.000,0.000,0,2,0,2,7,255,960,250,0,0,-89.491,0.603,-31.209
EX0521-092111,7,C17,prep,415,415,0,522199.091,0.685,-0.677,0.193,0.187,0,0,0,0,0,0,0,0,0,0.000,0,0,0.247,0.000,-0.240,-0.040,0.040,0.015,0.994,0.012,0.000,0.000,0.000,0.000,0.000,0.000,0.000,0,2,0,2,7,255,960,250,0,0,-89.492,0.603,-31.209
EX0521-092111,7,C17,prep,415,415,0,522204.091,0.685,-0.677,0.193,0.187,0,0,0,0,0,0,0,0,0,0.000,0,0,0.146,0.008,0.120,0.020,-0.080,0.014,0.993,0.011,0.002,0.008,0.000,0.000,0.000,0.000,0.000,0,2,0,2,7,255,960,250,0,0,-89.492,0.603,-31.209
EX0521-092111,7,C17,prep,448,448,0,522209.091,0.685,-0.677,0.193,0.187,0,0,0,0,0,0,0,0,0,0.000,0,0,0.150,0.008,0.120,-0.040,-0.080,0.013,0.993,0.010,0.000,0.008,-0.010,0.000,0.000,0.000,0.000,0,2,0,2,7,255,960,250,0,0,-89.492,0.602,-31.209
EX0521-092111,7,C17,prep,448,448,0,522214.092,0.685,-0.677,0.193,0.187,0,0,0,0,0,0,0,0,0,0.000,0,0,0.189,0.008,-0.180,-0.040,0.040,0.015,0.995,0.012,0.002,0.008,-0.010,0.000,0.000,0.000,0.000,0,2,0,2,7,255,960,250,0,0,-89.492,0.602,-31.209
EX0521-092111,7,C17,prep,448,448,0,522219.092,0.685,-0.677,0.193,0.187,0,0,0,0,0,0,0,0,0,0.000,0,0,0.118,0.004,0.060,-0.100,-0.020,0.015,0.995,0.012,0.002,-0.004,0.004,0.000,0.000,0.000,0.000,0,2,0,2,7,255,960,250,0,0,-89.492,0.602,-31.209
EX0521-092111,7,C17,prep,448,448,0,522224.092,0.685,-0.677,0.193,0.187,0,0,0,0,0,0,0,0,0,0.000,0,0,0.157,0.006,0.120,-0.100,-0.020,0.015,0.995,0.010,0.004,-0.004,0.004,0.000,0.000,0.000,0.000,0,2,0,2,7,255,960,250,0,0,-89.492,0.602,-31.209
EX0521-092111,7,C17,prep,449,449,0,522229.092,0.685,-0.677,0.193,0.187,0,0,0,0,0,0,0,0,0,0.000,0,0,0.210,0.013,-0.180,-0.100,0.040,0.014,0.996,0.010,0.004,0.012,0.008,0.000,0.000,0.000,0.000,0,2,0,2,7,255,960,250,0,0,-89.493,0.602,-31.209
EX0521-092111,7,C17,prep,449,449,0,522234.093,0.685,-0.677,0.193,0.187,0,0,0,0,0,0,0,0,0,0.000,0,0,0.028,0.013,0.000,0.020,-0.020,0.016,0.994,0.012,0.006,0.012,0.008,0.000,0.000,0.000,0.000,0,2,0,2,7,255,960,250,0,0,-89.493,0.603,-31.209
EX0521-092111,7,C17,prep,474,474,0,522239.092,0.685,-0.677,0.193,0.187,0,0,0,0,0,0,0,0,0,0.000,0,0,0.185,0.004,0.180,-0.040,-0.020,0.014,0.994,0.012,0.004,0.000,0.000,0.000,0.000,0.000,0.000,0,2,0,2,7,255,960,250,0,0,-89.493,0.603,-31.209
EX0521-092111,7,C17,prep,474,474,0,522244.091,0.685,-0.677,0.193,0.187,0,0,0,0,0,0,0,0,0,0.000,0,0,0.128,0.002,-0.120,-0.040,-0.020,0.014,0.995,0.011,-0.002,0.000,0.000,0.000,0.000,0.000,0.000,0,2,0,2,7,255,960,250,0,0,-89.493,0.603,-31.209
EX0521-092111,7,C17,prep,476,476,0,522249.091,0.685,-0.677,0.193,0.187,0,0,0,0,0,0,0,0,0,0.000,0,0,0.108,0.004,-0.060,-0.040,-0.080,0.014,0.993,0.011,-0.002,0.004,-0.006,0.000,0.000,0.000,0.000,0,2,0,2,7,255,960,250,0,0,-89.493,0.603,-31.209
EX0521-092111,7,C17,prep,476,476,0,522254.091,0.685,-0.677,0.193,0.187,0,0,0,0,0,0,0,0,0,0.000,0,0,0.150,0.004,0.120,-0.040,-0.080,0.014,0.994,0.012,-0.002,0.004,-0.006,0.000,0.000,0.000,0.000,0,2,0,2,7,255,960,250,0,0,-89.494,0.603,-31.209
EX0521-092111,7,C17,prep,480,480,0,522259.092,0.685,-0.677,0.193,0.187,0,0,0,0,0,0,0,0,0,0.000,0,0,0.089,0.004,0.000,-0.040,-0.080,0.014,0.994,0.010,-0.002,0.004,-0.006,0.000,0.000,0.000,0.000,0,2,0,2,7,255,960,250,0,0,-89.494,0.603,-31.209
EX0521-092111,7,C17,prep,480,480,0,522264.092,0.685,-0.677,0.193,0.187,0,0,0,0,0,0,0,0,0,0.000,0,0,0.189,0.004,-0.180,-0.040,0.040,0.014,0.994,0.012,-0.004,0.002,0.000,0.000,0.000,0.000,0.000,0,2,0,2,7,255,960,250,0,0,-89.494,0.603,-31.209
EX0521-092111,7,C17,prep,499,499,0,522269.092,0.685,-0.677,0.193,0.187,0,0,0,0,0,0,0,0,0,0.000,0,0,0.123,0.007,0.120,0.020,-0.020,0.014,0.995,0.011,-0.004,0.006,0.000,0.000,0.000,0.000,0.000,0,2,0,2,7,255,960,250,0,0,-89.494,0.603,-31.209
EX0521-092111,7,C17,prep,499,499,0,522274.092,0.685,-0.677,0.193,0.187,0,0,0,0,0,0,0,0,0,0.000,0,0,0.075,0.006,0.060,-0.040,-0.020,0.014,0.995,0.011,-0.004,0.004,0.008,0.000,0.000,0.000,0.000,0,2,0,2,7,255,960,250,0,0,-89.494,0.603,-31.209
EX0521-092111,7,C17,prep,499,499,0,522279.092,0.685,-0.677,0.193,0.187,0,0,0,0,0,0,0,0,0,0.000,0,0,0.157,0.008,-0.120,-0.100,-0.020,0.014,0.995,0.011,-0.006,0.006,0.008,0.000,0.000,0.000,0.000,0,2,0,2,7,255,960,250,0,0,-89.495,0.602,-31.209
EX0521-092111,7,C17,prep,499,499,0,522284.091,0.685,-0.677,0.193,0.187,0,0,0,0,0,0,0,0,0,0.000,0,0,0.075,0.007,0.060,-0.040,-0.020,0.014,0.994,0.012,-0.006,0.004,0.004,0.000,0.000,0.000,0.000,0,2,0,2,7,255,960,250,0,0,-89.495,0.602,-31.209
EX0521-092111,7,C17,prep,514,514,0,522289.091,0.685,-0.677,0.193,0.187,0,0,0,0,0,0,0,0,0,0.000,0,0,0.128,0.008,0.120,-0.040,-0.020,0.014,0.995,0.010,-0.006,0.006,0.004,0.000,0.000,0.000,0.000,0,2,0,2,7,255,960,250,0,0,-89.495,0.602,-31.209
EX0521-092111,7,C17,prep,514,514,0,522294.091,0.685,-0.677,0.193,0.187,0,0,0,0,0,0,0,0,0,0.000,0,0,0.185,0.010,-0.180,-0.040,-0.020,0.014,0.995,0.011,-0.002,0.010,0.004,0.000,0.000,0.000,0.000,0,2,0,2,7,255,960,250,0,0,-89.495,0.602,-31.209
EX0521-092111,7,C17,prep,514,514,0,522299.091,0.685,-0.677,0.193,0.187,0,0,0,0,0,0,0,0,0,0.000,0,0,0.045,0.010,0.000,-0.040,-0.020,0.014,0.994,0.012,-0.002,0.010,0.004,0.000,0.000,0.000,0.000,0,2,0,2,7,255,960,250,0,0,-89.495,0.602,-31.209
EX0521-092111,7,C17,prep,514,514,0,522304.092,0.685,-0.677,0.193,0.187,0,0,0,0,0,0,0,0,0,0.000,0,0,0.066,0.003,0.060,0.020,-0.020,0.015,0.995,0.011,-0.002,-0.002,0.004,0.000,0.000,0.000,0.000,0,2,0,2,7,255,960,250,0,0,-89.496,0.602,-31.209
EX0521-092111,7,C17,prep,534,534,0,522309.092,0.685,-0.677,0.193,0.187,0,0,0,0,0,0,0,0,0,0.000,0,0,0.075,0.004,-0.060,-0.040,-0.020,0.014,0.994,0.012,-0.004,-0.002,0.000,0.000,0.000,0.000,0.000,0,2,0,2,7,255,960,250,0,0,-89.496,0.602,-31.209
EX0521-092111,7,C17,prep,534,534,0,522314.092,0.685,-0.677,0.193,0.187,0,0,0,0,0,0,0,0,0,0.000,0,0,0.075,0.006,-0.060,-0.040,-0.020,0.015,0.994,0.011,0.006,-0.002,-0.002,0.000,0.000,0.000,0.000,0,2,0,2,7,255,960,250,0,0,-89.496,0.602,-31.209
EX0521-092111,7,C17,prep,570,570,0,522319.092,0.685,-0.677,0.193,0.187,0,0,0,0,0,0,0,0,0,0.000,0,0,0.150,0.006,0.120,-0.040,-0.080,0.014,0.995,0.010,0.004,0.004,-0.002,0.000,0.000,0.000,0.000,0,2,0,2,7,255,960,250,0,0,-89.496,0.602,-31.209
EX0521-092111,7,C17,prep,570,570,0,522324.092,0.685,-0.677,0.193,0.187,0,0,0,0,0,0,0,0,0,0.000,0,0,0.141,0.007,-0.060,-0.100,-0.080,0.014,0.994,0.011,0.004,0.006,-0.002,0.000,0.000,0.000,0.000,0,2,0,2,7,255,960,250,0,0,-89.496,0.602,-31.209
EX0521-092111,7,C17,prep,570,570,0,522329.092,0.685,-0.677,0.193,0.187,0,0,0,0,0,0,0,0,0,0.000,0,0,0.157,0.006,-0.120,-0.100,-0.020,0.013,0.995,0.012,0.002,0.006,0.004,0.000,0.000,0.000,0.000,0,2,0,2,7,255,960,250,0,0,-89.497,0.601,-31.209
EX0521-092111,7,C17,prep,570,570,0,522334.093,0.685,-0.677,0.193,0.187,0,0,0,0,0,0,0,0,0,0.000,0,0,0.108,0.006,0.060,-0.040,-0.080,0.015,0.994,0.011,0.002,0.006,-0.002,0.000,0.000,0.000,0.000,0,2,0,2,7,255,960,250,0,0,-89.497,0.601,-31.209
EX0521-092111,7,C17,prep,570,570,0,522339.091,0.685,-0.677,0.193,0.187,0,0,0,0,0,0,0,0,0,0.000,0,0,0.089,0.007,0.000,-0.040,-0.080,0.015,0.994,0.010,0.004,0.006,-0.002,0.000,0.000,0.000,0.000,0,2,0,2,7,255,960,250,0,0,-89.497,0.601,-31.209
EX0521-092111,7,C17,prep,570,570,0,522344.091,0.685,-0.677,0.193,0.187,0,0,0,0,0,0,0,0,0,0.000,0,0,0.157,0.007,-0.120,-0.100,-0.020,0.014,0.994,0.011,0.004,0.006,-0.002,0.000,0.000,0.000,0.000,0,2,0,2,7,255,960,250,0,0,-89.497,0.601,-31.209
EX0521-092111,7,C17,prep,570,570,0,522349.092,0.685,-0.677,0.193,0.187,0,0,0,0,0,0,0,0,0,0.000,0,0,0.118,0.006,0.060,-0.100,-0.020,0.014,0.995,0.011,0.002,0.006,-0.002,0.000,0.000,0.000,0.000,0,2,0,2,7,255,960,250,0,0,-89.497,0.601,-31.209
EX0521-092111,7,C17,prep,570,570,0,522354.092,0.685,-0.677,0.193,0.187,0,0,0,0,0,0,0,0,0,0.000,0,0,0.108,0.004,0.060,-0.040,-0.080,0.015,0.995,0.011,0.002,0.004,0.004,0.000,0.000,0.000,0.000,0,2,0,2,7,255,960,250,0,0,-89.498,0.601,-31.209
EX0521-092111,7,C17,prep,577,577,0,522359.092,0.685,-0.677,0.193,0.187,0,0,0,0,0,0,0,0,0,0.000,0,0,0.118,0.004,-0.060,-0.100,-0.020,0.014,0.995,0.011,-0.002,0.004,0.004,0.000,0.000,0.000,0.000,0,2,0,2,7,255,960,250,0,0,-89.498,0.601,-31.209
EX0521-092111,7,C17,prep,577,577,0,522364.093,0.685,-0.677,0.193,0.187,0,0,0,0,0,0,0,0,0,0.000,0,0,0.045,0.007,0.000,-0.040,-0.020,0.014,0.995,0.012,-0.006,0.004,0.004,0.000,0.000,0.000,0.000,0,2,0,2,7,255,960,250,0,0,-89.498,0.601,-31.209
EX0521-092111,7,C17,prep,601,601,0,522369.092,0.685,-0.677,0.193,0.187,0,0,0,0,0,0,0,0,0,0.000,0,0,0.141,0.007,0.060,-0.100,-0.080,0.014,0.995,0.011,-0.006,0.004,0.004,0.000,0.000,0.000,0.000,0,2,0,2,7,255,960,250,0,0,-89.498,0.601,-31.209
EX0521-092111,7,C17,prep,601,601,0,522374.091,0.685,-0.677,0.193,0.187,0,0,0,0,0,0,0,0,0,0.000,0,0,0.128,0.002,-0.120,-0.040,-0.020,0.015,0.994,0.011,-0.002,0.000,0.004,0.000,0.000,0.000,0.000,0,2,0,2,7,255,960,250,0,0,-89.498,0.601,-31.209
EX0521-092111,7,C17,prep,601,601,0,522379.091,0.685,-0.677,0.193,0.187,0,0,0,0,0,0,0,0,0,0.000,0,0,0.118,0.009,-0.060,-0.100,-0.020,0.016,0.994,0.012,0.008,-0.004,-0.002,0.000,0.000,0.000,0.000,0,2,0,2,7,255,960,250,0,0,-89.499,0.602,-31.209
EX0521-092111,7,C17,prep,601,601,0,522384.091,0.685,-0.677,0.193,0.187,0,0,0,0,0,0,0,0,0,0.000,0,0,0.108,0.011,0.060,-0.040,-0.080,0.015,0.994,0.012,0.008,-0.008,-0.006,0.000,0.000,0.000,0.000,0,2,0,2,7,255,960,250,0,0,-89.499,0.602,-31.209
EX0521-092111,7,C17,prep,602,602,0,522389.091,0.685,-0.677,0.193,0.187,0,0,0,0,0,0,0,0,0,0.000,0,0,0.123,0.009,-0.060,-0.100,0.040,0.015,0.994,0.012,0.004,-0.008,-0.006,0.000,0.000,0.000,0.000,0,2,0,2,7,255,960,250,0,0,-89.499,0.602,-31.209
EX0521-092111,7,C17,prep,602,602,0,522394.091,0.685,-0.677,0.193,0.187,0,0,0,0,0,0,0,0,0,0.000,0,0,0.082,0.009,-0.060,-0.040,0.040,0.015,0.994,0.012,0.004,-0.008,-0.006,0.000,0.000,0.000,0.000,0,2,0,2,7,255,960,250,0,0,-89.499,0.602,-31.209
EX0521-092111,7,C17,prep,638,638,0,522399.092,0.685,-0.677,0.193,0.187,0,0,0,0,0,0,0,0,0,0.000,0,0,0.075,0.009,0.060,-0.040,-0.020,0.015,0.996,0.012,0.004,-0.008,-0.006,0.000,0.000,0.000,0.000,0,2,0,2,7,255,960,250,0,0,-89.499,0.601,-31.209
EX0521-092111,7,C17,prep,638,638,0,522404.092,0.685,-0.677,0.193,0.187,0,0,0,0,0,0,0,0,0,0.000,0,0,0.045,0.007,0.000,-0.040,-0.020,0.016,0.995,0.010,0.004,-0.006,0.004,0.000,0.000,0.000,0.000,0,2,0,2,7,255,960,250,0,0,-89.500,0.603,-31.209
EX0521-092111,7,C17,prep,655,655,0,522409.092,0.685,-0.677,0.193,0.187,0,0,0,0,0,0,0,0,0,0.000,0,0,0.075,0.006,-0.060,-0.040,-0.020,0.014,0.994,0.011,0.004,0.004,0.004,0.000,0.000,0.000,0.000,0,2,0,2,7,255,960,250,0,0,-89.500,0.603,-31.209
EX0521-092111,7,C17,prep,655,655,0,522414.092,0.685,-0.677,0.193,0.187,0,0,0,0,0,0,0,0,0,0.000,0,0,0.075,0.004,0.060,-0.040,-0.020,0.014,0.994,0.012,0.000,0.004,-0.006,0.000,0.000,0.000,0.000,0,2,0,2,7,255,960,250,0,0,-89.500,0.603,-31.209
EX0521-092111,7,C17,prep,655,655,0,522419.092,0.685,-0.677,0.193,0.187,0,0,0,0,0,0,0,0,0,0.000,0,0,0.108,0.000,0.060,-0.040,-0.080,0.015,0.995,0.011,0.000,0.000,-0.006,0.000,0.000,0.000,0.000,0,2,0,2,7,255,960,250,0,0,-89.500,0.603,-31.209
EX0521-092111,7,C17,prep,655,655,0,522424.092,0.685,-0.677,0.193,0.187,0,0,0,0,0,0,0,0,0,0.000,0,0,0.123,0.003,-0.120,0.020,-0.020,0.015,0.995,0.011,0.002,-0.002,0.004,0.000,0.000,0.000,0.000,0,2,0,2,7,255,960,250,0,0,-89.500,0.602,-31.209
EX0521-092111,7,C17,prep,655,655,0,522429.091,0.685,-0.677,0.193,0.187,0,0,0,0,0,0,0,0,0,0.000,0,0,0.075,0.002,0.060,-0.040,-0.020,0.014,0.994,0.010,0.002,0.000,0.004,0.000,0.000,0.000,0.000,0,2,0,2,7,255,960,250,0,0,-89.501,0.602,-31.209
EX0521-092111,7,C17,prep,655,655,0,522434.093,0.685,-0.677,0.193,0.187,0,0,0,0,0,0,0,0,0,0.000,0,0,0.128,0.002,0.120,-0.040,-0.020,0.014,0.995,0.012,0.000,-0.002,0.004,0.000,0.000,0.000,0.000,0,2,0,2,7,255,960,250,0,0,-89.501,0.602,-31.209
EX0521-092111,7,C17,prep,672,672,0,522439.092,0.685,-0.677,0.193,0.187,0,0,0,0,0,0,0,0,0,0.000,0,0,0.108,0.000,-0.060,-0.040,-0.080,0.015,0.994,0.011,0.000,0.000,-0.002,0.000,0.000,0.000,0.000,0,2,0,2,7,255,960,250,0,0,-89.501,0.602,-31.209
EX0521-092111,7,C17,prep,672,672,0,522444.092,0.685,-0.677,0.193,0.187,0,0,0,0,0,0,0,0,0,0.000,0,0,0.045,0.002,0.000,-0.040,-0.020,0.015,0.996,0.011,0.002,0.000,0.004,0.000,0.000,0.000,0.000,0,2,0,2,7,255,960,250,0,0,-89.501,0.602,-31.209
EX0521-092111,7,C17,prep,672,672,0,522449.092,0.685,-0.677,0.193,0.187,0,0,0,0,0,0,0,0,0,0.000,0,0,0.108,0.002,0.060,-0.040,-0.080,0.014,0.995,0.011,0.002,0.000,0.004,0.000,0.000,0.000,0.000,0,2,0,2,7,255,960,250,0,0,-89.501,0.602,-31.209
EX0521-092111,7,C17,prep,672,672,0,522454.092,0.685,-0.677,0.193,0.187,0,0,0,0,0,0,0,0,0,0.000,0,0,0.066,0.003,-0.060,0.020,-0.020,0.013,0.995,0.010,-0.002,0.002,0.008,0.000,0.000,0.000,0.000,0,2,0,2,7,255,960,250,0,0,-89.502,0.602,-31.209
EX0521-092111,7,C17,prep,672,672,0,522459.092,0.685,-0.677,0.193,0.187,0,0,0,0,0,0,0,0,0,0.000,0,0,0.075,0.004,-0.060,-0.040,-0.020,0.014,0.995,0.011,-0.002,0.004,0.004,0.000,0.000,0.000,0.000,0,2,0,2,7,255,960,250,0,0,-89.502,0.602,-31.209
EX0521-092111,7,C17,prep,672,672,0,522464.092,0.685,-0.677,0.193,0.187,0,0,0,0,0,0,0,0,0,0.000,0,0,0.075,0.004,0.060,-0.040,-0.020,0.015,0.995,0.012,-0.002,0.004,0.004,0.000,0.000,0.000,0.000,0,2,0,2,7,255,960,250,0,0,-89.502,0.602,-31.209
EX0521-092111,7,C17,prep,687,687,0,522469.091,0.685,-0.677,0.193,0.187,0,0,0,0,0,0,0,0,0,0.000,0,0,0.102,0.006,0.000,-0.100,-0.020,0.015,0.995,0.011,0.004,0.004,0.004,0.000,0.000,0.000,0.000,0,2,0,2,7,255,960,250,0,0,-89.502,0.602,-31.209
EX0521-092111,7,C17,prep,687,687,0,522474.091,0.685,-0.677,0.193,0.187,0,0,0,0,0,0,0,0,0,0.000,0,0,0.118,0.009,-0.060,-0.100,-0.020,0.015,0.994,0.012,0.004,-0.008,0.004,0.000,0.000,0.000,0.000,0,2,0,2,7,255,960,250,0,0,-89.502,0.601,-31.209
EX0521-092111,7,C17,prep,703,703,0,522479.091,0.685,-0.677,0.193,0.187,0,0,0,0,0,0,0,0,0,0.000,0,0,0.045,0.006,0.000,-0.040,-0.020,0.014,0.995,0.011,0.004,0.004,0.008,0.000,0.000,0.000,0.000,0,2,0,2,7,255,960,250,0,0,-89.503,0.601,-31.209
EX0521-092111,7,C17,prep,703,703,0,522484.092,0.685,-0.677,0.193,0.187,0,0,0,0,0,0,0,0,0,0.000,0,0,0.045,0.006,0.000,-0.040,-0.020,0.013,0.995,0.011,0.000,0.006,0.008,0.000,0.000,0.000,0.000,0,2,0,2,7,255,960,250,0,0,-89.503,0.601,-31.209
EX0521-092111,7,C17,prep,703,703,0,522489.092,0.685,-0.677,0.193,0.187,0,0,0,0,0,0,0,0,0,0.000,0,0,0.141,0.006,-0.060,-0.100,-0.080,0.016,0.995,0.012,0.000,0.006,0.008,0.000,0.000,0.000,0.000,0,2,0,2,7,255,960,250,0,0,-89.503,0.603,-31.209
EX0521-092111,7,C17,prep,703,703,0,522494.092,0.685,-0.677,0.193,0.187,0,0,0,0,0,0,0,0,0,0.000,0,0,0.045,0.006,0.000,-0.040,-0.020,0.015,0.995,0.012,0.000,-0.006,0.008,0.000,0.000,0.000,0.000,0,2,0,2,7,255,960,250,0,0,-89.503,0.603,-31.209
EX0521-092111,7,C17,prep,719,719,0,522499.092,0.685,-0.677,0.193,0.187,0,0,0,0,0,0,0,0,0,0.000,0,0,0.075,0.008,0.060,-0.040,-0.020,0.015,0.995,0.011,0.006,-0.006,0.004,0.000,0.000,0.000,0.000,0,2,0,2,7,255,960,250,0,0,-89.503,0.603,-31.209
EX0521-092111,7,C17,prep,719,719,0,522504.092,0.685,-0.677,0.193,0.187,0,0,0,0,0,0,0,0,0,0.000,0,0,0.108,0.004,-0.060,-0.040,-0.080,0.014,0.994,0.012,0.000,-0.004,0.002,0.000,0.000,0.000,0.000,0,2,0,2,7,255,960,250,0,0,-89.504,0.602,-31.209
EX0521-092111,7,C17,prep,752,752,0,522509.092,0.685,-0.677,0.193,0.187,0,0,0,0,0,0,0,0,0,0.000,0,0,0.045,0.004,0.000,-0.040,-0.020,0.015,0.995,0.012,0.000,-0.004,0.002,0.000,0.000,0.000,0.000,0,2,0,2,7,255,960,250,0,0,-89.504,0.602,-31.209
EX0521-092111,7,C17,prep,752,752,0,522514.091,0.685,-0.677,0.193,0.187,0,0,0,0,0,0,0,0,0,0.000,0,0,0.045,0.000,0.000,-0.040,-0.020,0.014,0.994,0.011,0.000,0.000,-0.002,0.000,0.000,0.000,0.000,0,2,0,2,7,255,960,250,0,0,-89.504,0.602,-31.209
EX0521-092111,7,C17,prep,752,752,0,522519.091,0.685,-0.677,0.193,0.187,0,0,0,0,0,0,0,0,0,0.000,0,0,0.045,0.004,0.000,-0.040,-0.020,0.015,0.994,0.011,0.000,-0.004,-0.002,0.000,0.000,0.000,0.000,0,2,0,2,7,255,960,250,0,0,-89.504,0.602,-31.209
EX0521-092111,7,C17,prep,752,752,0,522524.092,0.685,-0.677,0.193,0.187,0,0,0,0,0,0,0,0,0,0.000,0,0,0.075,0.006,-0.060,-0.040,-0.020,0.014,0.995,0.011,0.000,0.006,-0.002,0.000,0.000,0.000,0.000,0,2,0,2,7,255,960,250,0,0,-89.504,0.602,-31.209
EX0521-092111,7,C17,prep,752,752,0,522529.091,0.685,-0.677,0.193,0.187,0,0,0,0,0,0,0,0,0,0.000,0,0,0.045,0.004,0.000,-0.040,-0.020,0.015,0.994,0.011,0.004,0.002,-0.006,0.000,0.000,0.000,0.000,0,2,0,2,7,255,960,250,0,0,-89.505,0.602,-31.209
EX0521-092111,7,C17,prep,752,752,0,522534.093,0.685,-0.677,0.193,0.187,0,0,0,0,0,0,0,0,0,0.000,0,0,0.108,0.008,-0.060,-0.040,-0.080,0.014,0.995,0.010,0.002,0.008,0.002,0.000,0.000,0.000,0.000,0,2,0,2,7,255,960,250,0,0,-89.505,0.602,-31.209
EX0521-092111,7,C17,prep,767,767,0,522539.092,0.685,-0.677,0.193,0.187,0,0,0,0,0,0,0,0,0,0.000,0,0,0.102,0.003,0.000,-0.100,-0.020,0.014,0.993,0.012,0.002,0.002,-0.006,0.000,0.000,0.000,0.000,0,2,0,2,7,255,960,250,0,0,-89.505,0.602,-31.209
EX0521-092111,7,C17,prep,767,767,0,522544.092,0.685,-0.677,0.193,0.187,0,0,0,0,0,0,0,0,0,0.000,0,0,0.118,0.008,0.060,-0.100,-0.020,0.014,0.996,0.012,-0.008,0.000,0.002,0.000,0.000,0.000,0.000,0,2,0,2,7,255,960,250,0,0,-89.505,0.602,-31.209
EX0521-092111,7,C17,prep,767,767,0,522549.092,0.685,-0.677,0.193,0.187,0,0,0,0,0,0,0,0,0,0.000,0,0,0.045,0.008,0.000,-0.040,-0.020,0.015,0.995,0.010,-0.008,0.000,0.002,0.000,0.000,0.000,0.000,0,2,0,2,7,255,960,250,0,0,-89.505,0.602,-31.209
EX0521-092111,7,C17,prep,767,767,0,522554.092,0.685,-0.677,0.193,0.187,0,0,0,0,0,0,0,0,0,0.000,0,0,0.075,0.006,-0.060,-0.040,-0.020,0.014,0.995,0.011,0.000,0.006,0.002,0.000,0.000,0.000,0.000,0,2,0,2,7,255,960,250,0,0,-89.505,0.601,-31.209
EX0521-092111,7,C17,prep,767,767,0,522559.093,0.685,-0.677,0.193,0.187,0,0,0,0,0,0,0,0,0,0.000,0,0,0.028,0.006,0.000,0.020,-0.020,0.015,0.994,0.012,0.000,0.006,0.002,0.000,0.000,0.000,0.000,0,2,0,2,7,255,960,250,0,0,-89.506,0.601,-31.209
EX0521-092111,7,C17,prep,767,767,0,522564.093,0.685,-0.677,0.193,0.187,0,0,0,0,0,0,0,0,0,0.000,0,0,0.089,0.004,0.000,-0.040,-0.080,0.014,0.994,0.012,-0.002,-0.004,-0.002,0.000,0.000,0.000,0.000,0,2,0,2,7,255,960,250,0,0,-89.506,0.601,-31.209
EX0521-092111,7,C17,prep,783,783,0,522569.091,0.685,-0.677,0.193,0.187,0,0,0,0,0,0,0,0,0,0.000,0,0,0.045,0.006,0.000,-0.040,-0.020,0.013,0.995,0.011,-0.004,-0.004,-0.002,0.000,0.000,0.000,0.000,0,2,0,2,7,255,960,250,0,0,-89.506,0.601,-31.209
EX0521-092111,7,C17,prep,783,783,0,522574.091,0.685,-0.677,0.193,0.187,0,0,0,0,0,0,0,0,0,0.000,0,0,0.045,0.004,0.000,-0.040,-0.020,0.015,0.995,0.011,-0.004,0.002,0.002,0.000,0.000,0.000,0.000,0,2,0,2,7,255,960,250,0,0,-89.506,0.601,-31.209
EX0521-092111,7,C17,prep,799,799,0,522579.092,0.685,-0.677,0.193,0.187,0,0,0,0,0,0,0,0,0,0.000,0,0,0.075,0.004,0.060,-0.040,-0.020,0.015,0.994,0.011,0.004,0.002,0.002,0.000,0.000,0.000,0.000,0,2,0,2,7,255,960,250,0,0,-89.506,0.601,-31.209
EX0521-092111,7,C17,prep,799,799,0,522584.092,0.685,-0.677,0.193,0.187,0,0,0,0,0,0,0,0,0,0.000,0,0,0.075,0.004,-0.060,-0.040,-0.020,0.014,0.994,0.011,0.004,0.002,-0.006,0.000,0.000,0.000,0.000,0,2,0,2,7,255,960,250,0,0,-89.507,0.601,-31.209
EX0521-092111,7,C17,prep,815,815,0,522589.092,0.685,-0.677,0.193,0.187,0,0,0,0,0,0,0,0,0,0.000,0,0,0.108,0.004,-0.060,-0.040,-0.080,0.015,0.993,0.011,0.004,0.002,-0.006,0.000,0.000,0.000,0.000,0,2,0,2,7,255,960,250,0,0,-89.507,0.601,-31.209
EX0521-092111,7,C17,prep,815,815,0,522594.092,0.685,-0.677,0.193,0.187,0,0,0,0,0,0,0,0,0,0.000,0,0,0.066,0.003,0.060,0.020,-0.020,0.015,0.995,0.011,0.002,0.002,-0.006,0.000,0.000,0.000,0.000,0,2,0,2,7,255,960,250,0,0,-89.507,0.601,-31.209
EX0521-092111,7,C17,prep,815,815,0,522599.092,0.685,-0.677,0.193,0.187,0,0,0,0,0,0,0,0,0,0.000,0,0,0.045,0.004,0.000,-0.040,-0.020,0.016,0.994,0.011,0.004,-0.002,-0.002,0.000,0.000,0.000,0.000,0,2,0,2,7,255,960,250,0,0,-89.507,0.602,-31.209
EX0521-092111,7,C17,prep,815,815,0,522604.091,0.685,-0.677,0.193,0.187,0,0,0,0,0,0,0,0,0,0.000,0,0,0.089,0.006,0.000,-0.040,-0.080,0.015,0.994,0.010,0.006,-0.002,-0.002,0.000,0.000,0.000,0.000,0,2,0,2,7,255,960,250,0,0,-89.507,0.602,-31.209
EX0521-092111,7,C17,prep,838,838,0,522609.091,0.685,-0.677,0.193,0.187,0,0,0,0,0,0,0,0,0,0.000,0,0,0.028,0.013,0.000,0.020,-0.020,0.015,0.994,0.010,0.012,0.006,-0.002,0.000,0.000,0.000,0.000,0,2,0,2,7,255,960,250,0,0,-89.508,0.602,-31.209
EX0521-092111,7,C17,prep,838,838,0,522614.091,0.685,-0.677,0.193,0.187,0,0,0,0,0,0,0,0,0,0.000,0,0,0.045,0.008,0.000,-0.040,-0.020,0.014,0.994,0.012,0.006,0.006,-0.002,0.000,0.000,0.000,0.000,0,2,0,2,7,255,960,250,0,0,-89.508,0.602,-31.209
EX0521-092111,7,C17,prep,871,871,0,522619.091,0.685,-0.677,0.193,0.187,0,0,0,0,0,0,0,0,0,0.000,0,0,0.075,0.006,-0.060,-0.040,-0.020,0.016,0.994,0.012,0.004,-0.004,-0.006,0.000,0.000,0.000,0.000,0,2,0,2,7,255,960,250,0,0,-89.508,0.603,-31.209
EX0521-092111,7,C17,prep,871,871,0,522624.092,0.685,-0.677,0.193,0.187,0,0,0,0,0,0,0,0,0,0.000,0,0,0.045,0.004,0.000,-0.040,-0.020,0.014,0.995,0.011,-0.002,-0.004,-0.006,0.000,0.000,0.000,0.000,0,2,0,2,7,255,960,250,0,0,-89.508,0.603,-31.209
EX0521-092111,7,C17,prep,871,871,0,522629.092,0.685,-0.677,0.193,0.187,0,0,0,0,0,0,0,0,0,0.000,0,0,0.045,0.004,0.000,-0.040,-0.020,0.015,0.994,0.011,0.004,0.000,-0.002,0.000,0.000,0.000,0.000,0,2,0,2,7,255,960,250,0,0,-89.508,0.603,-31.209
EX0521-092111,7,C17,prep,871,871,0,522634.093,0.685,-0.677,0.193,0.187,0,0,0,0,0,0,0,0,0,0.000,0,0,0.075,0.002,-0.060,-0.040,-0.020,0.014,0.994,0.012,-0.002,0.000,-0.002,0.000,0.000,0.000,0.000,0,2,0,2,7,255,960,250,0,0,-89.509,0.603,-31.209
EX0521-092111,7,C17,prep,871,871,0,522639.092,0.685,-0.677,0.193,0.187,0,0,0,0,0,0,0,0,0,0.000,0,0,0.045,0.003,0.000,-0.040,-0.020,0.014,0.994,0.010,0.002,0.002,-0.002,0.000,0.000,0.000,0.000,0,2,0,2,7,255,960,250,0,0,-89.509,0.603,-31.209
EX0521-092111,7,C17,prep,871,871,0,522644.092,0.685,-0.677,0.193,0.187,0,0,0,0,0,0,0,0,0,0.000,0,0,0.089,0.002,0.000,-0.040,-0.080,0.015,0.993,0.011,0.002,0.000,-0.006,0.000,0.000,0.000,0.000,0,2,0,2,7,255,960,250,0,0,-89.509,0.603,-31.209
EX0521-092111,7,C17,prep,871,871,0,522649.092,0.685,-0.677,0.193,0.187,0,0,0,0,0,0,0,0,0,0.000,0,0,0.102,0.002,0.000,-0.100,-0.020,0.015,0.994,0.011,0.002,0.000,-0.006,0.000,0.000,0.000,0.000,0,2,0,2,7,255,960,250,0,0,-89.509,0.602,-31.209
EX0521-092111,7,C17,prep,871,871,0,522654.091,0.685,-0.677,0.193,0.187,0,0,0,0,0,0,0,0,0,0.000,0,0,0.075,0.002,-0.060,-0.040,-0.020,0.014,0.994,0.011,0.002,0.000,-0.006,0.000,0.000,0.000,0.000,0,2,0,2,7,255,960,250,0,0,-89.509,0.602,-31.209
EX0521-092111,7,C17,prep,871,871,0,522659.091,0.685,-0.677,0.193,0.187,0,0,0,0,0,0,0,0,0,0.000,0,0,0.045,0.003,0.000,-0.040,-0.020,0.015,0.995,0.011,0.002,0.002,-0.002,0.000,0.000,0.000,0.000,0,2,0,2,7,255,960,250,0,0,-89.510,0.602,-31.209
EX0521-092111,7,C17,prep,871,871,0,522664.092,0.685,-0.677,0.193,0.187,0,0,0,0,0,0,0,0,0,0.000,0,0,0.089,0.004,0.000,-0.040,-0.080,0.015,0.995,0.011,0.004,0.002,0.004,0.000,0.000,0.000,0.000,0,2,0,2,7,255,960,250,0,0,-89.510,0.602,-31.209
EX0521-092111,7,C17,prep,879,879,0,522669.092,0.685,-0.677,0.193,0.187,0,0,0,0,0,0,0,0,0,0.000,0,0,0.045,0.004,0.000,-0.040,-0.020,0.015,0.993,0.012,0.004,0.002,0.004,0.000,0.000,0.000,0.000,0,2,0,2,7,255,960,250,0,0,-89.510,0.602,-31.209
EX0521-092111,7,C17,prep,879,879,0,522674.092,0.685,-0.677,0.193,0.187,0,0,0,0,0,0,0,0,0,0.000,0,0,0.089,0.011,0.000,-0.040,-0.080,0.016,0.995,0.012,0.004,-0.010,0.008,0.000,0.000,0.000,0.000,0,2,0,2,7,255,960,250,0,0,-89.510,0.603,-31.209
EX0521-092111,7,C17,prep,902,902,0,522679.092,0.685,-0.677,0.193,0.187,0,0,0,0,0,0,0,0,0,0.000,0,0,0.089,0.010,0.000,-0.040,-0.080,0.015,0.995,0.011,0.000,-0.010,0.004,0.000,0.000,0.000,0.000,0,2,0,2,7,255,960,250,0,0,-89.510,0.603,-31.209
EX0521-092111,7,C17,prep,902,902,0,522684.092,0.685,-0.677,0.193,0.187,0,0,0,0,0,0,0,0,0,0.000,0,0,0.102,0.002,0.000,-0.100,-0.020,0.015,0.993,0.011,0.000,-0.002,0.004,0.000,0.000,0.000,0.000,0,2,0,2,7,255,960,250,0,0,-89.511,0.603,-31.209
EX0521-092111,7,C17,prep,903,903,0,522689.092,0.685,-0.677,0.193,0.187,0,0,0,0,0,0,0,0,0,0.000,0,0,0.089,0.002,0.000,-0.040,-0.080,0.015,0.995,0.011,0.000,-0.002,0.004,0.000,0.000,0.000,0.000,0,2,0,2,7,255,960,250,0,0,-89.511,0.603,-31.209
EX0521-092111,7,C17,prep,903,903,0,522694.091,0.685,-0.677,0.193,0.187,0,0,0,0,0,0,0,0,0,0.000,0,0,0.045,0.002,0.000,-0.040,-0.020,0.015,0.994,0.012,0.000,-0.002,-0.006,0.000,0.000,0.000,0.000,0,2,0,2,7,255,960,250,0,0,-89.511,0.603,-31.209
EX0521-092111,7,C17,prep,912,912,0,522699.091,0.685,-0.677,0.193,0.187,0,0,0,0,0,0,0,0,0,0.000,0,0,0.075,0.004,-0.060,-0.040,-0.020,0.015,0.994,0.011,0.002,-0.004,-0.002,0.000,0.000,0.000,0.000,0,2,0,2,7,255,960,250,0,0,-89.511,0.603,-31.209
EX0521-092111,7,C17,prep,912,912,0,522704.091,0.685,-0.677,0.193,0.187,0,0,0,0,0,0,0,0,0,0.000,0,0,0.045,0.006,0.000,-0.040,-0.020,0.015,0.994,0.011,0.004,-0.004,-0.006,0.000,0.000,0.000,0.000,0,2,0,2,7,255,960,250,0,0,-89.511,0.603,-31.209
EX0521-092111,7,C17,prep,960,960,0,522709.091,0.685,-0.677,0.193,0.187,0,0,0,0,0,0,0,0,0,0.000,0,0,0.108,0.004,0.060,-0.040,-0.080,0.014,0.995,0.011,0.004,0.002,-0.002,0.000,0.000,0.000,0.000,0,2,0,2,7,255,960,250,0,0,-89.512,0.603,-31.209
EX0521-092111,7,C17,prep,960,960,0,522714.091,0.685,-0.677,0.193,0.187,0,0,0,0,0,0,0,0,0,0.000,0,0,0.075,0.004,-0.060,-0.040,-0.020,0.014,0.994,0.011,-0.004,0.002,-0.006,0.000,0.000,0.000,0.000,0,2,0,2,7,255,960,250,0,0,-89.512,0.603,-31.209
EX0521-092111,7,C17,prep,960,960,0,522719.092,0.685,-0.677,0.193,0.187,0,0,0,0,0,0,0,0,0,0.000,0,0,0.075,0.008,-0.060,-0.040,-0.020,0.014,0.993,0.011,-0.008,0.002,-0.006,0.000,0.000,0.000,0.000,0,2,0,2,7,255,960,250,0,0,-89.512,0.603,-31.209
EX0521-092111,7,C17,prep,960,960,0,522724.092,0.685,-0.677,0.193,0.187,0,0,0,0,0,0,0,0,0,0.000,0,0,0.075,0.004,-0.060,-0.040,-0.020,0.016,0.994,0.011,-0.004,0.002,-0.006,0.000,0.000,0.000,0.000,0,2,0,2,7,255,960,250,0,0,-89.512,0.604,-31.209
EX0521-092111,7,C17,prep,960,960,0,522729.092,0.685,-0.677,0.193,0.187,0,0,0,0,0,0,0,0,0,0.000,0,0,0.118,0.006,-0.060,-0.100,-0.020,0.015,0.994,0.010,0.006,0.002,-0.002,0.000,0.000,0.000,0.000,0,2,0,2,7,255,960,250,0,0,-89.512,0.604,-31.209
EX0521-092111,7,C17,prep,960,960,0,522734.093,0.685,-0.677,0.193,0.187,0,0,0,0,0,0,0,0,0,0.000,0,0,0.089,0.007,0.000,-0.040,-0.080,0.014,0.993,0.011,0.006,0.004,-0.002,0.000,0.000,0.000,0.000,0,2,0,2,7,255,960,250,0,0,-89.512,0.604,-31.209
EX0521-092111,7,C17,prep,993,993,0,522739.092,0.685,-0.677,0.193,0.187,0,0,0,0,0,0,0,0,0,0.000,0,0,0.075,0.004,0.060,-0.040,-0.020,0.014,0.995,0.012,-0.002,0.004,-0.002,0.000,0.000,0.000,0.000,0,2,0,2,7,255,960,250,0,0,-89.513,0.604,-31.209
EX0521-092111,7,C17,prep,993,993,0,522744.091,0.685,-0.677,0.193,0.187,0,0,0,0,0,0,0,0,0,0.000,0,0,0.089,0.004,0.000,-0.040,-0.080,0.014,0.994,0.011,-0.002,0.004,-0.006,0.000,0.000,0.000,0.000,0,2,0,2,7,255,960,250,0,0,-89.513,0.603,-31.209
EX0521-092111,7,C17,prep,993,993,0,522749.091,0.685,-0.677,0.193,0.187,0,0,0,0,0,0,0,0,0,0.000,0,0,0.045,0.002,0.000,-0.040,-0.020,0.015,0.995,0.011,0.000,-0.002,0.004,0.000,0.000,0.000,0.000,0,2,0,2,7,255,960,250,0,0,-89.513,0.603,-31.209
EX0521-092111,7,C17,prep,993,993,0,522754.091,0.685,-0.677,0.193,0.187,0,0,0,0,0,0,0,0,0,0.000,0,0,0.102,0.002,0.000,-0.100,-0.020,0.014,0.995,0.011,0.000,0.002,0.004,0.000,0.000,0.000,0.000,0,2,0,2,7,255,960,250,0,0,-89.513,0.603,-31.209
EX0521-092111,7,C17,prep,993,993,0,522759.092,0.685,-0.677,0.193,0.187,0,0,0,0,0,0,0,0,0,0.000,0,0,0.108,0.002,-0.060,-0.040,-0.080,0.015,0.995,0.011,0.000,0.002,0.004,0.000,0.000,0.000,0.000,0,2,0,2,7,255,960,250,0,0,-89.513,0.603,-31.209
EX0521-092111,7,C17,prep,993,993,0,522764.093,0.685,-0.677,0.193,0.187,0,0,0,0,0,0,0,0,0,0.000,0,0,0.075,0.002,-0.060,-0.040,-0.020,0.015,0.995,0.011,0.000,0.002,0.004,0.000,0.000,0.000,0.000,0,2,0,2,7,255,960,250,0,0,-89.514,0.603,-31.209
EX0521-092111,7,C17,prep,1007,1007,0,522769.092,0.685,-0.677,0.193,0.187,0,0,0,0,0,0,0,0,0,0.000,0,0,0.128,0.002,0.000,-0.100,-0.080,0.014,0.994,0.012,0.000,-0.002,0.004,0.000,0.000,0.000,0.000,0,2,0,2,7,255,960,250,0,0,-89.514,0.603,-31.209
EX0521-092111,7,C17,prep,1007,1007,0,522774.092,0.685,-0.677,0.193,0.187,0,0,0,0,0,0,0,0,0,0.000,0,0,0.089,0.004,0.000,-0.040,-0.080,0.015,0.994,0.011,0.000,-0.004,0.000,0.000,0.000,0.000,0.000,0,2,0,2,7,255,960,250,0,0,-89.514,0.603,-31.209
EX0521-092111,7,C17,prep,1007,1007,0,522779.092,0.685,-0.677,0.193,0.187,0,0,0,0,0,0,0,0,0,0.000,0,0,0.045,0.007,0.000,-0.040,-0.020,0.014,0.995,0.012,-0.006,-0.004,0.000,0.000,0.000,0.000,0.000,0,2,0,2,7,255,960,250,0,0,-89.514,0.603,-31.209
EX0521-092111,7,C17,prep,1007,1007,0,522784.092,0.685,-0.677,0.193,0.187,0,0,0,0,0,0,0,0,0,0.000,0,0,0.028,0.007,0.000,0.020,-0.020,0.013,0.996,0.010,-0.006,-0.004,0.004,0.000,0.000,0.000,0.000,0,2,0,2,7,255,960,250,0,0,-89.514,0.603,-31.209
EX0521-092111,7,C17,prep,1007,1007,0,522789.091,0.685,-0.677,0.193,0.187,0,0,0,0,0,0,0,0,0,0.000,0,0,0.045,0.012,0.000,-0.040,-0.020,0.014,0.994,0.010,-0.006,0.010,0.004,0.000,0.000,0.000,0.000,0,2,0,2,7,255,960,250,0,0,-89.515,0.603,-31.209
EX0521-092111,7,C17,prep,1007,1007,0,522794.091,0.685,-0.677,0.193,0.187,0,0,0,0,0,0,0,0,0,0.000,0,0,0.028,0.013,0.000,0.020,-0.020,0.014,0.994,0.012,-0.008,0.010,-0.002,0.000,0.000,0.000,0.000,0,2,0,2,7,255,960,250,0,0,-89.515,0.602,-31.209
EX0521-092111,7,C17,prep,1023,1023,0,522799.091,0.685,-0.677,0.193,0.187,0,0,0,0,0,0,0,0,0,0.000,0,0,0.045,0.004,0.000,-0.040,-0.020,0.014,0.995,0.011,-0.004,0.000,-0.002,0.000,0.000,0.000,0.000,0,2,0,2,7,255,960,250,0,0,-89.515,0.602,-31.209
EX0521-092111,7,C17,prep,1023,1023,0,522804.091,0.685,-0.677,0.193,0.187,0,0,0,0,0,0,0,0,0,0.000,0,0,0.075,0.009,-0.060,-0.040,-0.020,0.015,0.995,0.012,-0.004,-0.008,0.004,0.000,0.000,0.000,0.000,0,2,0,2,7,255,960,250,0,0,-89.515,0.602,-31.209
EX0521-092111,7,C17,prep,1071,1071,0,522809.092,0.685,-0.677,0.193,0.187,0,0,0,0,0,0,0,0,0,0.000,0,0,0.075,0.004,-0.060,-0.040,-0.020,0.014,0.995,0.011,-0.004,0.000,0.004,0.000,0.000,0.000,0.000,0,2,0,2,7,255,960,250,0,0,-89.515,0.602,-31.209
EX0521-092111,7,C17,prep,1071,1071,0,522814.092,0.685,-0.677,0.193,0.187,0,0,0,0,0,0,0,0,0,0.000,0,0,0.089,0.004,0.000,-0.040,-0.080,0.015,0.995,0.011,-0.004,-0.002,0.004,0.000,0.000,0.000,0.000,0,2,0,2,7,255,960,250,0,0,-89.516,0.602,-31.209
EX0521-092111,7,C17,prep,1071,1071,0,522819.092,0.685,-0.677,0.193,0.187,0,0,0,0,0,0,0,0,0,0.000,0,0,0.066,0.002,-0.060,0.020,-0.020,0.015,0.993,0.012,0.000,-0.002,0.004,0.000,0.000,0.000,0.000,0,2,0,2,7,255,960,250,0,0,-89.516,0.602,-31.209
EX0521-092111,7,C17,prep,1071,1071,0,522824.092,0.685,-0.677,0.193,0.187,0,0,0,0,0,0,0,0,0,0.000,0,0,0.028,0.002,0.000,0.020,-0.020,0.014,0.994,0.011,0.000,-0.002,-0.006,0.000,0.000,0.000,0.000,0,2,0,2,7,255,960,250,0,0,-89.516,0.602,-31.209
EX0521-092111,7,C17,prep,1071,1071,0,522829.092,0.685,-0.677,0.193,0.187,0,0,0,0,0,0,0,0,0,0.000,0,0,0.045,0.004,0.000,-0.040,-0.020,0.014,0.993,0.011,-0.004,0.002,-0.010,0.000,0.000,0.000,0.000,0,2,0,2,7,255,960,250,0,0,-89.516,0.602,-31.209
EX0521-092111,7,C17,prep,1071,1071,0,522834.093,0.685,-0.677,0.193,0.187,0,0,0,0,0,0,0,0,0,0.000,0,0,0.102,0.004,0.000,-0.100,-0.020,0.015,0.994,0.012,-0.004,0.002,-0.006,0.000,0.000,0.000,0.000,0,2,0,2,7,255,960,250,0,0,-89.516,0.602,-31.209
EX0521-092111,7,C17,prep,1071,1071,0,522839.091,0.685,-0.677,0.193,0.187,0,0,0,0,0,0,0,0,0,0.000,0,0,0.045,0.007,0.000,-0.040,-0.020,0.015,0.995,0.012,-0.004,-0.006,-0.002,0.000,0.000,0.000,0.000,0,2,0,2,7,255,960,250,0,0,-89.517,0.602,-31.209
EX0521-092111,7,C17,prep,1071,1071,0,522844.091,0.685,-0.677,0.193,0.187,0,0,0,0,0,0,0,0,0,0.000,0,0,0.089,0.006,0.000,-0.040,-0.080,0.015,0.995,0.011,-0.002,-0.006,0.008,0.000,0.000,0.000,0.000,0,2,0,2,7,255,960,250,0,0,-89.517,0.602,-31.209
EX0521-092111,7,C17,prep,1071,1071,0,522849.091,0.685,-0.677,0.193,0.187,0,0,0,0,0,0,0,0,0,0.000,0,0,0.118,0.008,-0.060,-0.100,-0.020,0.015,0.993,0.011,0.006,-0.006,0.008,0.000,0.000,0.000,0.000,0,2,0,2,7,255,960,250,0,0,-89.517,0.601,-31.209
EX0521-092111,7,C17,prep,1071,1071,0,522854.091,0.685,-0.677,0.193,0.187,0,0,0,0,0,0,0,0,0,0.000,0,0,0.108,0.008,-0.060,-0.040,-0.080,0.014,0.994,0.011,0.006,-0.006,-0.002,0.000,0.000,0.000,0.000,0,2,0,2,7,255,960,250,0,0,-89.517,0.601,-31.209
EX0521-092111,7,C17,prep,1071,1071,0,522859.092,0.685,-0.677,0.193,0.187,0,0,0,0,0,0,0,0,0,0.000,0,0,0.082,0.006,0.000,0.020,-0.080,0.015,0.995,0.010,0.006,0.002,-0.002,0.000,0.000,0.000,0.000,0,2,0,2,7,255,960,250,0,0,-89.517,0.601,-31.209
EX0521-092111,7,C17,prep,1071,1071,0,522864.092,0.685,-0.677,0.193,0.187,0,0,0,0,0,0,0,0,0,0.000,0,0,0.057,0.004,0.000,-0.040,0.040,0.015,0.994,0.011,0.004,0.002,-0.002,0.000,0.000,0.000,0.000,0,2,0,2,7,255,960,250,0,0,-89.518,0.601,-31.209
EX0521-092111,7,C17,prep,1088,1088,0,522869.092,0.685,-0.677,0.193,0.187,0,0,0,0,0,0,0,0,0,0.000,0,0,0.082,0.004,-0.060,-0.040,0.040,0.014,0.993,0.011,0.004,0.002,-0.006,0.000,0.000,0.000,0.000,0,2,0,2,7,255,960,250,0,0,-89.518,0.601,-31.209
EX0521-092111,7,C17,prep,1088,1088,0,522874.092,0.685,-0.677,0.193,0.187,0,0,0,0,0,0,0,0,0,0.000,0,0,0.075,0.004,-0.060,-0.040,-0.020,0.014,0.994,0.012,-0.004,0.000,-0.006,0.000,0.000,0.000,0.000,0,2,0,2,7,255,960,250,0,0,-89.518,0.601,-31.209
EX0521-092111,7,C17,prep,1088,1088,0,522879.092,0.685,-0.677,0.193,0.187,0,0,0,0,0,0,0,0,0,0.000,0,0,0.045,0.004,0.000,-0.040,-0.020,0.014,0.995,0.011,-0.004,0.000,-0.006,0.000,0.000,0.000,0.000,0,2,0,2,7,255,960,250,0,0,-89.518,0.601,-31.209
EX0521-092111,7,C17,prep,1088,1088,0,522884.091,0.685,-0.677,0.193,0.187,0,0,0,0,0,0,0,0,0,0.000,0,0,0.045,0.004,0.000,-0.040,-0.020,0.014,0.995,0.011,-0.004,0.000,0.004,0.000,0.000,0.000,0.000,0,2,0,2,7,255,960,250,0,0,-89.518,0.601,-31.209
EX0521-092111,7,C17,prep,1103,1103,0,522889.091,0.685,-0.677,0.193,0.187,0,0,0,0,0,0,0,0,0,0.000,0,0,0.075,0.002,-0.060,-0.040,-0.020,0.016,0.994,0.012,-0.002,0.000,0.004,0.000,0.000,0.000,0.000,0,2,0,2,7,255,960,250,0,0,-89.518,0.602,-31.209
EX0521-092111,7,C17,prep,1103,1103,0,522894.091,0.685,-0.677,0.193,0.187,0,0,0,0,0,0,0,0,0,0.000,0,0,0.075,0.006,-0.060,-0.040,-0.020,0.015,0.994,0.012,-0.002,-0.006,0.000,0.000,0.000,0.000,0.000,0,2,0,2,7,255,960,250,0,0,-89.519,0.602,-31.209
EX0521-092111,7,C17,prep,1119,1119,0,522899.091,0.685,-0.677,0.193,0.187,0,0,0,0,0,0,0,0,0,0.000,0,0,0.045,0.006,0.000,-0.040,-0.020,0.015,0.995,0.012,-0.002,-0.006,0.000,0.000,0.000,0.000,0.000,0,2,0,2,7,255,960,250,0,0,-89.519,0.602,-31.209
EX0521-092111,7,C17,prep,1119,1119,0,522904.092,0.685,-0.677,0.193,0.187,0,0,0,0,0,0,0,0,0,0.000,0,0,0.075,0.006,0.060,-0.040,-0.020,0.013,0.995,0.012,-0.002,-0.006,0.004,0.000,0.000,0.000,0.000,0,2,0,2,7,255,960,250,0,0,-89.519,0.602,-31.209
EX0521-092111,7,C17,prep,1119,1119,0,522909.092,0.685,-0.677,0.193,0.187,0,0,0,0,0,0,0,0,0,0.000,0,0,0.118,0.007,-0.060,-0.100,-0.020,0.015,0.993,0.012,-0.004,-0.006,0.004,0.000,0.000,0.000,0.000,0,2,0,2,7,255,960,250,0,0,-89.519,0.602,-31.209
EX0521-092111,7,C17,prep,1119,1119,0,522914.092,0.685,-0.677,0.193,0.187,0,0,0,0,0,0,0,0,0,0.000,0,0,0.045,0.007,0.000,-0.040,-0.020,0.015,0.994,0.012,-0.004,-0.006,-0.006,0.000,0.000,0.000,0.000,0,2,0,2,7,255,960,250,0,0,-89.519,0.602,-31.209
EX0521-092111,7,C17,prep,1156,1156,0,522919.092,0.685,-0.677,0.193,0.187,0,0,0,0,0,0,0,0,0,0.000,0,0,0.045,0.007,0.000,-0.040,-0.020,0.013,0.994,0.010,-0.004,-0.006,-0.006,0.000,0.000,0.000,0.000,0,2,0,2,7,255,960,250,0,0,-89.520,0.601,-31.209
EX0521-092111,7,C17,prep,1156,1156,0,522924.092,0.685,-0.677,0.193,0.187,0,0,0,0,0,0,0,0,0,0.000,0,0,0.045,0.007,0.000,-0.040,-0.020,0.015,0.995,0.012,-0.004,-0.006,-0.002,0.000,0.000,0.000,0.000,0,2,0,2,7,255,960,250,0,0,-89.520,0.601,-31.209
EX0521-092111,7,C17,prep,1156,1156,0,522929.092,0.685,-0.677,0.193,0.187,0,0,0,0,0,0,0,0,0,0.000,0,0,0.045,0.011,0.000,-0.040,-0.020,0.015,0.994,0.012,-0.004,-0.010,0.000,0.000,0.000,0.000,0.000,0,2,0,2,7,255,960,250,0,0,-89.520,0.601,-31.209
EX0521-092111,7,C17,prep,1156,1156,0,522934.093,0.685,-0.677,0.193,0.187,0,0,0,0,0,0,0,0,0,0.000,0,0,0.102,0.011,0.000,-0.100,-0.020,0.015,0.994,0.012,-0.004,-0.010,0.000,0.000,0.000,0.000,0.000,0,2,0,2,7,255,960,250,0,0,-89.520,0.601,-31.209
EX0521-092111,7,C17,prep,1157,1157,0,522939.091,0.685,-0.677,0.193,0.187,0,0,0,0,0,0,0,0,0,0.000,0,0,0.075,0.006,0.060,-0.040,-0.020,0.015,0.993,0.012,-0.002,-0.006,-0.006,0.000,0.000,0.000,0.000,0,2,0,2,7,255,960,250,0,0,-89.520,0.601,-31.209
EX0521-092111,7,C17,prep,1157,1157,0,522944.091,0.685,-0.677,0.193,0.187,0,0,0,0,0,0,0,0,0,0.000,0,0,0.045,0.006,0.000,-0.040,-0.020,0.015,0.993,0.011,-0.002,-0.006,-0.010,0.000,0.000,0.000,0.000,0,2,0,2,7,255,960,250,0,0,-89.521,0.601,-31.209
EX0521-092111,7,C17,prep,1167,1167,0,522949.092,0.685,-0.677,0.193,0.187,0,0,0,0,0,0,0,0,0,0.000,0,0,0.066,0.002,0.060,0.020,-0.020,0.014,0.994,0.011,-0.002,0.000,-0.010,0.000,0.000,0.000,0.000,0,2,0,2,7,255,960,250,0,0,-89.521,0.601,-31.209
EX0521-092111,7,C17,prep,1167,1167,0,522954.092,0.685,-0.677,0.193,0.187,0,0,0,0,0,0,0,0,0,0.000,0,0,0.089,0.002,0.000,-0.040,-0.080,0.014,0.993,0.011,0.000,0.002,-0.010,0.000,0.000,0.000,0.000,0,2,0,2,7,255,960,250,0,0,-89.521,0.601,-31.209
EX0521-092111,7,C17,prep,1184,1184,0,522959.092,0.685,-0.677,0.193,0.187,0,0,0,0,0,0,0,0,0,0.000,0,0,0.045,0.004,0.000,-0.040,-0.020,0.015,0.994,0.010,0.000,0.004,0.000,0.000,0.000,0.000,0.000,0,2,0,2,7,255,960,250,0,0,-89.521,0.601,-31.209
EX0521-092111,7,C17,prep,1184,1184,0,522964.093,0.685,-0.677,0.193,0.187,0,0,0,0,0,0,0,0,0,0.000,0,0,0.089,0.006,0.000,-0.040,-0.080,0.014,0.994,0.010,0.002,0.006,0.000,0.000,0.000,0.000,0.000,0,2,0,2,7,255,960,250,0,0,-89.521,0.601,-31.209
EX0521-092111,7,C17,prep,1185,1185,0,522969.092,0.685,-0.677,0.193,0.187,0,0,0,0,0,0,0,0,0,0.000,0,0,0.045,0.008,0.000,-0.040,-0.020,0.015,0.995,0.011,0.006,0.006,0.000,0.000,0.000,0.000,0.000,0,2,0,2,7,255,960,250,0,0,-89.522,0.601,-31.209
EX0521-092111,7,C17,prep,1185,1185,0,522974.092,0.685,-0.677,0.193,0.187,0,0,0,0,0,0,0,0,0,0.000,0,0,0.089,0.008,0.000,-0.040,-0.080,0.016,0.994,0.011,0.008,-0.002,0.000,0.000,0.000,0.000,0.000,0,2,0,2,7,255,960,250,0,0,-89.522,0.602,-31.209
EX0521-092111,7,C17,prep,1199,1199,0,522979.091,0.685,-0.677,0.193,0.187,0,0,0,0,0,0,0,0,0,0.000,0,0,0.028,0.009,0.000,0.020,-0.020,0.014,0.994,0.012,0.008,-0.004,0.000,0.000,0.000,0.000,0.000,0,2,0,2,7,255,960,250,0,0,-89.522,0.602,-31.209
EX0521-092111,7,C17,prep,1199,1199,0,522984.091,0.685,-0.677,0.193,0.187,0,0,0,0,0,0,0,0,0,0.000,0,0,0.089,0.009,0.000,-0.040,-0.080,0.015,0.995,0.011,0.008,-0.004,0.000,0.000,0.000,0.000,0.000,0,2,0,2,7,255,960,250,0,0,-89.522,0.602,-31.209
EX0521-092111,7,C17,prep,1222,1222,0,522989.091,0.685,-0.677,0.193,0.187,0,0,0,0,0,0,0,0,0,0.000,0,0,0.089,0.006,0.000,-0.040,-0.080,0.015,0.994,0.011,0.004,-0.004,0.000,0.000,0.000,0.000,0.000,0,2,0,2,7,255,960,250,0,0,-89.522,0.602,-31.209
EX0521-092111,7,C17,prep,1222,1222,0,522994.091,0.685,-0.677,0.193,0.187,0,0,0,0,0,0,0,0,0,0.000,0,0,0.045,0.004,0.000,-0.040,-0.020,0.015,0.994,0.011,0.004,-0.002,-0.006,0.000,0.000,0.000,0.000,0,2,0,2,7,255,960,250,0,0,-89.523,0.601,-31.209
EX0521-092111,7,C17,prep,1222,1222,0,522999.092,0.685,-0.677,0.193,0.187,0,0,0,0,0,0,0,0,0,0.000,0,0,0.089,0.002,0.000,-0.040,-0.080,0.014,0.993,0.011,0.000,-0.002,-0.006,0.000,0.000,0.000,0.000,0,2,0,2,7,255,960,250,0,0,-89.523,0.601,-31.209
EX0521-092111,7,C17,prep,1222,1222,0,523004.092,0.685,-0.677,0.193,0.187,0,0,0,0,0,0,0,0,0,0.000,0,0,0.045,0.002,0.000,-0.040,-0.020,0.015,0.993,0.012,0.000,-0.002,-0.010,0.000,0.000,0.000,0.000,0,2,0,2,7,255,960,250,0,0,-89.523,0.601,-31.209
EX0521-092111,7,C17,prep,1257,1257,0,523009.092,0.685,-0.677,0.193,0.187,0,0,0,0,0,0,0,0,0,0.000,0,0,0.102,0.006,0.000,-0.100,-0.020,0.015,0.994,0.011,0.002,-0.006,-0.010,0.000,0.000,0.000,0.000,0,2,0,2,7,255,960,250,0,0,-89.523,0.601,-31.209
EX0521-092111,7,C17,prep,1257,1257,0,523014.092,0.685,-0.677,0.193,0.187,0,0,0,0,0,0,0,0,0,0.000,0,0,0.075,0.007,-0.060,-0.040,-0.020,0.015,0.995,0.011,0.004,-0.006,0.000,0.000,0.000,0.000,0.000,0,2,0,2,7,255,960,250,0,0,-89.523,0.601,-31.209
EX0521-092111,7,C17,prep,1258,1258,0,523019.092,0.685,-0.677,0.193,0.187,0,0,0,0,0,0,0,0,0,0.000,0,0,0.045,0.007,0.000,-0.040,-0.020,0.014,0.995,0.011,0.004,-0.006,0.004,0.000,0.000,0.000,0.000,0,2,0,2,7,255,960,250,0,0,-89.524,0.601,-31.209
EX0521-092111,7,C17,prep,1258,1258,0,523024.092,0.685,-0.677,0.193,0.187,0,0,0,0,0,0,0,0,0,0.000,0,0,0.075,0.003,-0.060,-0.040,-0.020,0.015,0.995,0.011,0.002,0.002,0.004,0.000,0.000,0.000,0.000,0,2,0,2,7,255,960,250,0,0,-89.524,0.601,-31.209
EX0521-092111,7,C17,prep,1259,1259,0,523029.091,0.685,-0.677,0.193,0.187,0,0,0,0,0,0,0,0,0,0.000,0,0,0.082,0.003,0.000,0.020,-0.080,0.015,0.995,0.011,0.002,0.002,0.010,0.000,0.000,0.000,0.000,0,2,0,2,7,255,960,250,0,0,-89.524,0.601,-31.209
EX0521-092111,7,C17,prep,1259,1259,0,523034.093,0.685,-0.677,0.193,0.187,0,0,0,0,0,0,0,0,0,0.000,0,0,0.089,0.006,0.000,-0.040,-0.080,0.015,0.994,0.012,0.002,-0.006,0.004,0.000,0.000,0.000,0.000,0,2,0,2,7,255,960,250,0,0,-89.524,0.601,-31.209
EX0521-092111,7,C17,prep,1263,1263,0,523039.091,0.685,-0.677,0.193,0.187,0,0,0,0,0,0,0,0,0,0.000,0,0,0.141,0.006,-0.060,-0.100,-0.080,0.014,0.995,0.012,0.002,-0.006,0.004,0.000,0.000,0.000,0.000,0,2,0,2,7,255,960,250,0,0,-89.524,0.601,-31.209
EX0521-092111,7,C17,prep,1263,1263,0,523044.092,0.685,-0.677,0.193,0.187,0,0,0,0,0,0,0,0,0,0.000,0,0,0.045,0.007,0.000,-0.040,-0.020,0.013,0.995,0.011,-0.006,-0.004,0.004,0.000,0.000,0.000,0.000,0,2,0,2,7,255,960,250,0,0,-89.524,0.600,-31.209
EX0521-092111,7,C17,prep,1263,1263,0,523049.092,0.685,-0.677,0.193,0.187,0,0,0,0,0,0,0,0,0,0.000,0,0,0.066,0.008,-0.060,0.020,-0.020,0.014,0.995,0.011,-0.008,0.002,0.004,0.000,0.000,0.000,0.000,0,2,0,2,7,255,960,250,0,0,-89.525,0.600,-31.209
EX0521-092111,7,C17,prep,1263,1263,0,523054.092,0.685,-0.677,0.193,0.187,0,0,0,0,0,0,0,0,0,0.000,0,0,0.045,0.008,0.000,-0.040,-0.020,0.014,0.994,0.012,-0.008,0.002,0.004,0.000,0.000,0.000,0.000,0,2,0,2,7,255,960,250,0,0,-89.525,0.600,-31.209
EX0521-092111,7,C17,prep,1280,1280,0,523059.092,0.685,-0.677,0.193,0.187,0,0,0,0,0,0,0,0,0,0.000,0,0,0.089,0.007,0.000,-0.040,-0.080,0.015,0.996,0.012,-0.006,-0.004,0.004,0.000,0.000,0.000,0.000,0,2,0,2,7,255,960,250,0,0,-89.525,0.600,-31.209
EX0521-092111,7,C17,prep,1280,1280,0,523064.092,0.685,-0.677,0.193,0.187,0,0,0,0,0,0,0,0,0,0.000,0,0,0.102,0.010,0.000,-0.100,-0.020,0.014,0.994,0.012,-0.006,-0.008,0.000,0.000,0.000,0.000,0.000,0,2,0,2,7,255,960,250,0,0,-89.525,0.600,-31.209
EX0521-092111,7,C17,prep,1295,1295,0,523069.092,0.685,-0.677,0.193,0.187,0,0,0,0,0,0,0,0,0,0.000,0,0,0.108,0.011,-0.060,-0.040,-0.080,0.014,0.994,0.011,-0.008,-0.008,-0.006,0.000,0.000,0.000,0.000,0,2,0,2,7,255,960,250,0,0,-89.525,0.600,-31.209
EX0521-092111,7,C17,prep,1295,1295,0,523074.093,0.685,-0.677,0.193,0.187,0,0,0,0,0,0,0,0,0,0.000,0,0,0.102,0.008,0.000,-0.100,-0.020,0.014,0.994,0.011,-0.008,0.000,-0.006,0.000,0.000,0.000,0.000,0,2,0,2,7,255,960,250,0,0,-89.526,0.600,-31.209
EX0521-092111,7,C17,prep,1295,1295,0,523079.091,0.685,-0.677,0.193,0.187,0,0,0,0,0,0,0,0,0,0.000,0,0,0.045,0.004,0.000,-0.040,-0.020,0.015,0.995,0.012,-0.004,0.000,0.000,0.000,0.000,0.000,0.000,0,2,0,2,7,255,960,250,0,0,-89.526,0.600,-31.209
EX0521-092111,7,C17,prep,1295,1295,0,523084.091,0.685,-0.677,0.193,0.187,0,0,0,0,0,0,0,0,0,0.000,0,0,0.045,0.006,0.000,-0.040,-0.020,0.015,0.993,0.011,-0.002,-0.006,0.000,0.000,0.000,0.000,0.000,0,2,0,2,7,255,960,250,0,0,-89.526,0.600,-31.209
EX0521-092111,7,C17,prep,1318,1318,0,523089.091,0.685,-0.677,0.193,0.187,0,0,0,0,0,0,0,0,0,0.000,0,0,0.089,0.006,0.000,-0.040,-0.080,0.014,0.995,0.011,0.000,-0.006,0.004,0.000,0.000,0.000,0.000,0,2,0,2,7,255,960,250,0,0,-89.526,0.600,-31.209
EX0521-092111,7,C17,prep,1318,1318,0,523094.092,0.685,-0.677,0.193,0.187,0,0,0,0,0,0,0,0,0,0.000,0,0,0.045,0.008,0.000,-0.040,-0.020,0.015,0.994,0.011,0.006,-0.006,-0.006,0.000,0.000,0.000,0.000,0,2,0,2,7,255,960,250,0,0,-89.526,0.599,-31.209
EX0521-092111,7,C17,prep,1318,1318,0,523099.092,0.685,-0.677,0.193,0.187,0,0,0,0,0,0,0,0,0,0.000,0,0,0.045,0.004,0.000,-0.040,-0.020,0.015,0.994,0.011,0.000,-0.004,0.000,0.000,0.000,0.000,0.000,0,2,0,2,7,255,960,250,0,0,-89.527,0.599,-31.209
EX0521-092111,7,C17,prep,1318,1318,0,523104.092,0.685,-0.677,0.193,0.187,0,0,0,0,0,0,0,0,0,0.000,0,0,0.141,0.004,-0.060,-0.100,-0.080,0.014,0.994,0.012,0.000,-0.004,0.000,0.000,0.000,0.000,0.000,0,2,0,2,7,255,960,250,0,0,-89.527,0.599,-31.209
EX0521-092111,7,C17,prep,1356,1356,0,523109.092,0.685,-0.677,0.193,0.187,0,0,0,0,0,0,0,0,0,0.000,0,0,0.045,0.004,0.000,-0.040,-0.020,0.015,0.995,0.011,0.000,-0.004,0.000,0.000,0.000,0.000,0.000,0,2,0,2,7,255,960,250,0,0,-89.527,0.599,-31.209
EX0521-092111,7,C17,prep,1356,1356,0,523114.092,0.685,-0.677,0.193,0.187,0,0,0,0,0,0,0,0,0,0.000,0,0,0.128,0.006,0.000,-0.100,-0.080,0.016,0.995,0.011,0.004,-0.004,0.004,0.000,0.000,0.000,0.000,0,2,0,2,7,255,960,250,0,0,-89.527,0.601,-31.209
EX0521-092111,7,C17,prep,1357,1357,0,523119.091,0.685,-0.677,0.193,0.187,0,0,0,0,0,0,0,0,0,0.000,0,0,0.089,0.004,0.000,-0.040,-0.080,0.014,0.995,0.012,0.004,-0.002,0.004,0.000,0.000,0.000,0.000,0,2,0,2,7,255,960,250,0,0,-89.527,0.600,-31.209
EX0521-092111,7,C17,prep,1357,1357,0,523124.092,0.685,-0.677,0.193,0.187,0,0,0,0,0,0,0,0,0,0.000,0,0,0.108,0.009,0.000,-0.100,0.040,0.016,0.995,0.011,0.008,-0.004,0.004,0.000,0.000,0.000,0.000,0,2,0,2,7,255,960,250,0,0,-89.528,0.602,-31.209
EX0521-092111,7,C17,prep,1358,1358,0,523129.091,0.685,-0.677,0.193,0.187,0,0,0,0,0,0,0,0,0,0.000,0,0,0.045,0.010,0.000,-0.040,-0.020,0.013,0.995,0.011,-0.010,-0.002,0.004,0.000,0.000,0.000,0.000,0,2,0,2,7,255,960,250,0,0,-89.528,0.602,-31.209
EX0521-092111,7,C17,prep,1358,1358,0,523134.093,0.685,-0.677,0.193,0.187,0,0,0,0,0,0,0,0,0,0.000,0,0,0.102,0.004,0.000,-0.100,-0.020,0.014,0.994,0.011,-0.002,0.004,0.004,0.000,0.000,0.000,0.000,0,2,0,2,7,255,960,250,0,0,-89.528,0.602,-31.209
EX0521-092111,7,C17,prep,1393,1393,0,523139.091,0.685,-0.677,0.193,0.187,0,0,0,0,0,0,0,0,0,0.000,0,0,0.102,0.004,0.000,-0.100,-0.020,0.015,0.994,0.012,-0.002,0.004,-0.002,0.000,0.000,0.000,0.000,0,2,0,2,7,255,960,250,0,0,-89.528,0.602,-31.209
EX0521-092111,7,C17,prep,1393,1393,0,523144.092,0.685,-0.677,0.193,0.187,0,0,0,0,0,0,0,0,0,0.000,0,0,0.089,0.008,0.000,-0.040,-0.080,0.015,0.994,0.012,-0.002,-0.008,-0.002,0.000,0.000,0.000,0.000,0,2,0,2,7,255,960,250,0,0,-89.528,0.601,-31.209
EX0521-092111,7,C17,prep,1393,1393,0,523149.092,0.685,-0.677,0.193,0.187,0,0,0,0,0,0,0,0,0,0.000,0,0,0.075,0.008,-0.060,-0.040,-0.020,0.015,0.993,0.012,-0.002,-0.008,-0.006,0.000,0.000,0.000,0.000,0,2,0,2,7,255,960,250,0,0,-89.529,0.601,-31.209
EX0521-092111,7,C17,prep,1393,1393,0,523154.092,0.685,-0.677,0.193,0.187,0,0,0,0,0,0,0,0,0,0.000,0,0,0.045,0.009,0.000,-0.040,-0.020,0.014,0.994,0.011,-0.004,-0.008,-0.006,0.000,0.000,0.000,0.000,0,2,0,2,7,255,960,250,0,0,-89.529,0.601,-31.209
EX0521-092111,7,C17,prep,1393,1393,0,523159.092,0.685,-0.677,0.193,0.187,0,0,0,0,0,0,0,0,0,0.000,0,0,0.108,0.004,-0.060,-0.040,-0.080,0.014,0.995,0.011,-0.004,0.000,-0.006,0.000,0.000,0.000,0.000,0,2,0,2,7,255,960,250,0,0,-89.529,0.601,-31.209
EX0521-092111,7,C17,prep,1393,1393,0,523164.093,0.685,-0.677,0.193,0.187,0,0,0,0,0,0,0,0,0,0.000,0,0,0.075,0.006,0.060,-0.040,-0.020,0.014,0.995,0.011,-0.006,0.002,0.004,0.000,0.000,0.000,0.000,0,2,0,2,7,255,960,250,0,0,-89.529,0.601,-31.209
EX0521-092111,7,C17,prep,1393,1393,0,523169.091,0.685,-0.677,0.193,0.187,0,0,0,0,0,0,0,0,0,0.000,0,0,0.075,0.008,0.060,-0.040,-0.020,0.015,0.995,0.010,-0.006,0.006,0.004,0.000,0.000,0.000,0.000,0,2,0,2,7,255,960,250,0,0,-89.529,0.601,-31.209
EX0521-092111,7,C17,prep,1393,1393,0,523174.091,0.685,-0.677,0.193,0.187,0,0,0,0,0,0,0,0,0,0.000,0,0,0.075,0.008,-0.060,-0.040,-0.020,0.014,0.995,0.011,-0.006,0.006,0.008,0.000,0.000,0.000,0.000,0,2,0,2,7,255,960,250,0,0,-89.529,0.601,-31.209
EX0521-092111,7,C17,prep,1394,1394,0,523179.091,0.685,-0.677,0.193,0.187,0,0,0,0,0,0,0,0,0,0.000,0,0,0.102,0.008,0.000,-0.100,-0.020,0.014,0.994,0.011,-0.008,0.002,0.008,0.000,0.000,0.000,0.000,0,2,0,2,7,255,960,250,0,0,-89.530,0.601,-31.209
EX0521-092111,7,C17,prep,1394,1394,0,523184.091,0.685,-0.677,0.193,0.187,0,0,0,0,0,0,0,0,0,0.000,0,0,0.089,0.008,0.000,-0.040,-0.080,0.015,0.995,0.012,-0.008,0.002,0.004,0.000,0.000,0.000,0.000,0,2,0,2,7,255,960,250,0,0,-89.530,0.601,-31.209
EX0521-092111,7,C17,prep,1415,1415,0,523189.092,0.685,-0.677,0.193,0.187,0,0,0,0,0,0,0,0,0,0.000,0,0,0.089,0.007,0.000,-0.040,-0.080,0.014,0.995,0.012,-0.006,-0.004,0.004,0.000,0.000,0.000,0.000,0,2,0,2,7,255,960,250,0,0,-89.530,0.601,-31.209
EX0521-092111,7,C17,prep,1415,1415,0,523194.092,0.685,-0.677,0.193,0.187,0,0,0,0,0,0,0,0,0,0.000,0,0,0.075,0.007,0.060,-0.040,-0.020,0.014,0.994,0.012,-0.006,-0.004,0.004,0.000,0.000,0.000,0.000,0,2,0,2,7,255,960,250,0,0,-89.530,0.600,-31.209
EX0521-092111,7,C17,prep,1415,1415,0,523199.092,0.685,-0.677,0.193,0.187,0,0,0,0,0,0,0,0,0,0.000,0,0,0.045,0.007,0.000,-0.040,-0.020,0.013,0.994,0.011,-0.006,-0.004,-0.002,0.000,0.000,0.000,0.000,0,2,0,2,7,255,960,250,0,0,-89.530,0.600,-31.209
EX0521-092111,7,C17,prep,1415,1415,0,523204.092,0.685,-0.677,0.193,0.187,0,0,0,0,0,0,0,0,0,0.000,0,0,0.075,0.007,0.060,-0.040,-0.020,0.014,0.994,0.011,-0.006,0.004,-0.002,0.000,0.000,0.000,0.000,0,2,0,2,7,255,960,250,0,0,-89.531,0.600,-31.209
EX0521-092111,7,C17,prep,1423,1423,0,523209.092,0.685,-0.677,0.193,0.187,0,0,0,0,0,0,0,0,0,0.000,0,0,0.045,0.004,0.000,-0.040,-0.020,0.014,0.995,0.011,0.000,0.004,-0.002,0.000,0.000,0.000,0.000,0,2,0,2,7,255,960,250,0,0,-89.531,0.600,-31.209
EX0521-092111,7,C17,prep,1423,1423,0,523214.092,0.685,-0.677,0.193,0.187,0,0,0,0,0,0,0,0,0,0.000,0,0,0.075,0.004,-0.060,-0.040,-0.020,0.015,0.996,0.011,0.000,0.004,0.008,0.000,0.000,0.000,0.000,0,2,0,2,7,255,960,250,0,0,-89.531,0.600,-31.209
EX0521-092111,7,C17,prep,1456,1456,0,523219.091,0.685,-0.677,0.193,0.187,0,0,0,0,0,0,0,0,0,0.000,0,0,0.108,0.004,0.060,-0.040,-0.080,0.014,0.995,0.012,0.000,-0.004,0.008,0.000,0.000,0.000,0.000,0,2,0,2,7,255,960,250,0,0,-89.531,0.600,-31.209
EX0521-092111,7,C17,prep,1456,1456,0,523224.092,0.685,-0.677,0.193,0.187,0,0,0,0,0,0,0,0,0,0.000,0,0,0.045,0.004,0.000,-0.040,-0.020,0.015,0.994,0.011,0.000,-0.004,0.004,0.000,0.000,0.000,0.000,0,2,0,2,7,255,960,250,0,0,-89.531,0.600,-31.209
EX0521-092111,7,C17,prep,1478,1478,0,523229.091,0.685,-0.677,0.193,0.187,0,0,0,0,0,0,0,0,0,0.000,0,0,0.045,0.006,0.000,-0.040,-0.020,0.014,0.994,0.011,-0.004,-0.004,-0.006,0.000,0.000,0.000,0.000,0,2,0,2,7,255,960,250,0,0,-89.532,0.600,-31.209
EX0521-092111,7,C17,prep,1478,1478,0,523234.093,0.685,-0.677,0.193,0.187,0,0,0,0,0,0,0,0,0,0.000,0,0,0.128,0.006,0.000,-0.100,-0.080,0.015,0.994,0.011,0.006,-0.002,-0.006,0.000,0.000,0.000,0.000,0,2,0,2,7,255,960,250,0,0,-89.532,0.600,-31.209
EX0521-092111,7,C17,prep,1478,1478,0,523239.092,0.685,-0.677,0.193,0.187,0,0,0,0,0,0,0,0,0,0.000,0,0,0.075,0.004,-0.060,-0.040,-0.020,0.014,0.994,0.011,-0.004,0.002,-0.006,0.000,0.000,0.000,0.000,0,2,0,2,7,255,960,250,0,0,-89.532,0.600,-31.209
EX0521-092111,7,C17,prep,1478,1478,0,523244.092,0.685,-0.677,0.193,0.187,0,0,0,0,0,0,0,0,0,0.000,0,0,0.028,0.003,0.000,0.020,-0.020,0.015,0.993,0.011,0.002,-0.002,-0.006,0.000,0.000,0.000,0.000,0,2,0,2,7,255,960,250,0,0,-89.532,0.599,-31.209
EX0521-092111,7,C17,prep,1478,1478,0,523249.092,0.685,-0.677,0.193,0.187,0,0,0,0,0,0,0,0,0,0.000,0,0,0.082,0.009,0.000,0.020,-0.080,0.014,0.994,0.012,-0.008,-0.004,-0.002,0.000,0.000,0.000,0.000,0,2,0,2,7,255,960,250,0,0,-89.532,0.599,-31.209
EX0521-092111,7,C17,prep,1478,1478,0,523254.092,0.685,-0.677,0.193,0.187,0,0,0,0,0,0,0,0,0,0.000,0,0,0.045,0.004,0.000,-0.040,-0.020,0.016,0.995,0.011,0.002,-0.004,0.000,0.000,0.000,0.000,0.000,0,2,0,2,7,255,960,250,0,0,-89.533,0.601,-31.209
EX0521-092111,7,C17,prep,1478,1478,0,523259.092,0.685,-0.677,0.193,0.187,0,0,0,0,0,0,0,0,0,0.000,0,0,0.066,0.007,0.060,0.020,-0.020,0.015,0.994,0.011,0.004,-0.006,0.000,0.000,0.000,0.000,0.000,0,2,0,2,7,255,960,250,0,0,-89.533,0.601,-31.209
EX0521-092111,7,C17,prep,1478,1478,0,523264.092,0.685,-0.677,0.193,0.187,0,0,0,0,0,0,0,0,0,0.000,0,0,0.045,0.006,0.000,-0.040,-0.020,0.014,0.995,0.010,0.004,-0.004,0.004,0.000,0.000,0.000,0.000,0,2,0,2,7,255,960,250,0,0,-89.533,0.601,-31.209
EX0521-092111,7,C17,prep,1478,1478,0,523269.091,0.685,-0.677,0.193,0.187,0,0,0,0,0,0,0,0,0,0.000,0,0,0.045,0.004,0.000,-0.040,-0.020,0.014,0.994,0.011,0.002,0.004,-0.006,0.000,0.000,0.000,0.000,0,2,0,2,7,255,960,250,0,0,-89.533,0.600,-31.209
EX0521-092111,7,C17,prep,1478,1478,0,523274.091,0.685,-0.677,0.193,0.187,0,0,0,0,0,0,0,0,0,0.000,0,0,0.045,0.004,0.000,-0.040,-0.020,0.015,0.995,0.011,0.000,0.004,0.004,0.000,0.000,0.000,0.000,0,2,0,2,7,255,960,250,0,0,-89.533,0.600,-31.209
EX0521-092111,7,C17,prep,1503,1503,0,523279.091,0.685,-0.677,0.193,0.187,0,0,0,0,0,0,0,0,0,0.000,0,0,0.045,0.004,0.000,-0.040,-0.020,0.015,0.995,0.012,0.000,-0.004,0.004,0.000,0.000,0.000,0.000,0,2,0,2,7,255,960,250,0,0,-89.534,0.600,-31.209
EX0521-092111,7,C17,prep,1503,1503,0,523284.091,0.685,-0.677,0.193,0.187,0,0,0,0,0,0,0,0,0,0.000,0,0,0.123,0.004,-0.060,-0.100,0.040,0.015,0.994,0.011,0.000,-0.004,0.004,0.000,0.000,0.000,0.000,0,2,0,2,7,255,960,250,0,0,-89.534,0.600,-31.209
EX0521-092111,7,C17,prep,1503,1503,0,523289.092,0.685,-0.677,0.193,0.187,0,0,0,0,0,0,0,0,0,0.000,0,0,0.075,0.002,-0.060,-0.040,-0.020,0.014,0.994,0.011,-0.002,0.000,0.000,0.000,0.000,0.000,0.000,0,2,0,2,7,255,960,250,0,0,-89.534,0.600,-31.209
EX0521-092111,7,C17,prep,1503,1503,0,523294.092,0.685,-0.677,0.193,0.187,0,0,0,0,0,0,0,0,0,0.000,0,0,0.089,0.004,0.000,-0.040,-0.080,0.015,0.993,0.011,0.004,0.000,-0.006,0.000,0.000,0.000,0.000,0,2,0,2,7,255,960,250,0,0,-89.534,0.600,-31.209
EX0521-092111,7,C17,prep,1522,1522,0,523299.092,0.685,-0.677,0.193,0.187,0,0,0,0,0,0,0,0,0,0.000,0,0,0.128,0.002,0.000,-0.100,-0.080,0.014,0.993,0.011,0.000,0.002,-0.010,0.000,0.000,0.000,0.000,0,2,0,2,7,255,960,250,0,0,-89.534,0.600,-31.209
EX0521-092111,7,C17,prep,1522,1522,0,523304.092,0.685,-0.677,0.193,0.187,0,0,0,0,0,0,0,0,0,0.000,0,0,0.045,0.002,0.000,-0.040,-0.020,0.014,0.995,0.011,0.000,0.002,-0.010,0.000,0.000,0.000,0.000,0,2,0,2,7,255,960,250,0,0,-89.535,0.600,-31.209
EX0521-092111,7,C17,prep,1567,1567,0,523309.092,0.685,-0.677,0.193,0.187,0,0,0,0,0,0,0,0,0,0.000,0,0,0.045,0.002,0.000,-0.040,-0.020,0.014,0.995,0.011,0.000,0.002,0.004,0.000,0.000,0.000,0.000,0,2,0,2,7,255,960,250,0,0,-89.535,0.600,-31.209
EX0521-092111,7,C17,prep,1567,1567,0,523314.091,0.685,-0.677,0.193,0.187,0,0,0,0,0,0,0,0,0,0.000,0,0,0.045,0.002,0.000,-0.040,-0.020,0.015,0.994,0.011,0.000,0.002,0.004,0.000,0.000,0.000,0.000,0,2,0,2,7,255,960,250,0,0,-89.535,0.600,-31.209
EX0521-092111,7,C17,prep,1567,1567,0,523319.091,0.685,-0.677,0.193,0.187,0,0,0,0,0,0,0,0,0,0.000,0,0,0.089,0.007,0.000,-0.040,-0.080,0.014,0.994,0.012,-0.006,-0.004,-0.006,0.000,0.000,0.000,0.000,0,2,0,2,7,255,960,250,0,0,-89.535,0.599,-31.209
EX0521-092111,7,C17,prep,1567,1567,0,523324.092,0.685,-0.677,0.193,0.187,0,0,0,0,0,0,0,0,0,0.000,0,0,0.045,0.004,0.000,-0.040,-0.020,0.014,0.994,0.011,0.000,-0.004,-0.006,0.000,0.000,0.000,0.000,0,2,0,2,7,255,960,250,0,0,-89.535,0.599,-31.209
EX0521-092111,7,C17,prep,1567,1567,0,523329.091,0.685,-0.677,0.193,0.187,0,0,0,0,0,0,0,0,0,0.000,0,0,0.045,0.006,0.000,-0.040,-0.020,0.014,0.994,0.012,-0.006,-0.002,-0.006,0.000,0.000,0.000,0.000,0,2,0,2,7,255,960,250,0,0,-89.535,0.599,-31.209
EX0521-092111,7,C17,prep,1567,1567,0,523334.093,0.685,-0.677,0.193,0.187,0,0,0,0,0,0,0,0,0,0.000,0,0,0.045,0.010,0.000,-0.040,-0.020,0.013,0.994,0.011,-0.010,0.002,0.000,0.000,0.000,0.000,0.000,0,2,0,2,7,255,960,250,0,0,-89.536,0.599,-31.209
EX0521-092111,7,C17,prep,1567,1567,0,523339.092,0.685,-0.677,0.193,0.187,0,0,0,0,0,0,0,0,0,0.000,0,0,0.045,0.010,0.000,-0.040,-0.020,0.015,0.995,0.012,-0.010,-0.002,0.000,0.000,0.000,0.000,0.000,0,2,0,2,7,255,960,250,0,0,-89.536,0.599,-31.209
EX0521-092111,7,C17,prep,1567,1567,0,523344.092,0.685,-0.677,0.193,0.187,0,0,0,0,0,0,0,0,0,0.000,0,0,0.045,0.002,0.000,-0.040,-0.020,0.015,0.995,0.011,0.000,-0.002,0.004,0.000,0.000,0.000,0.000,0,2,0,2,7,255,960,250,0,0,-89.536,0.599,-31.209
EX0521-092111,7,C17,prep,1567,1567,0,523349.092,0.685,-0.677,0.193,0.187,0,0,0,0,0,0,0,0,0,0.000,0,0,0.045,0.008,0.000,-0.040,-0.020,0.015,0.994,0.012,0.000,-0.008,0.004,0.000,0.000,0.000,0.000,0,2,0,2,7,255,960,250,0,0,-89.536,0.599,-31.209
EX0521-092111,7,C17,prep,1567,1567,0,523354.092,0.685,-0.677,0.193,0.187,0,0,0,0,0,0,0,0,0,0.000,0,0,0.118,0.011,0.060,-0.100,-0.020,0.016,0.994,0.011,0.008,-0.008,0.000,0.000,0.000,0.000,0.000,0,2,0,2,7,255,960,250,0,0,-89.536,0.600,-31.209
EX0521-092111,7,C17,prep,1568,1568,0,523359.092,0.685,-0.677,0.193,0.187,0,0,0,0,0,0,0,0,0,0.000,0,0,0.075,0.008,-0.060,-0.040,-0.020,0.014,0.994,0.012,-0.002,-0.008,0.000,0.000,0.000,0.000,0.000,0,2,0,2,7,255,960,250,0,0,-89.537,0.600,-31.209
EX0521-092111,7,C17,prep,1568,1568,0,523364.093,0.685,-0.677,0.193,0.187,0,0,0,0,0,0,0,0,0,0.000,0,0,0.045,0.007,0.000,0.020,0.040,0.015,0.993,0.011,0.004,-0.006,-0.006,0.000,0.000,0.000,0.000,0,2,0,2,7,255,960,250,0,0,-89.537,0.600,-31.209
EX0521-092111,7,C17,prep,1585,1585,0,523369.091,0.685,-0.677,0.193,0.187,0,0,0,0,0,0,0,0,0,0.000,0,0,0.075,0.008,-0.060,-0.040,-0.020,0.013,0.995,0.012,-0.006,-0.006,-0.006,0.000,0.000,0.000,0.000,0,2,0,2,7,255,960,250,0,0,-89.537,0.600,-31.209
EX0521-092111,7,C17,prep,1585,1585,0,523374.091,0.685,-0.677,0.193,0.187,0,0,0,0,0,0,0,0,0,0.000,0,0,0.089,0.006,0.000,-0.040,-0.080,0.015,0.995,0.012,0.002,-0.006,0.004,0.000,0.000,0.000,0.000,0,2,0,2,7,255,960,250,0,0,-89.537,0.600,-31.209
EX0521-092111,7,C17,prep,1599,1599,0,523379.091,0.685,-0.677,0.193,0.187,0,0,0,0,0,0,0,0,0,0.000,0,0,0.102,0.002,-0.060,0.020,-0.080,0.015,0.994,0.011,0.002,0.000,0.004,0.000,0.000,0.000,0.000,0,2,0,2,7,255,960,250,0,0,-89.537,0.600,-31.209
EX0521-092111,7,C17,prep,1599,1599,0,523384.092,0.685,-0.677,0.193,0.187,0,0,0,0,0,0,0,0,0,0.000,0,0,0.118,0.010,-0.060,-0.100,-0.020,0.014,0.994,0.012,0.002,-0.010,0.000,0.000,0.000,0.000,0.000,0,2,0,2,7,255,960,250,0,0,-89.538,0.600,-31.209
EX0521-092111,7,C17,prep,1599,1599,0,523389.092,0.685,-0.677,0.193,0.187,0,0,0,0,0,0,0,0,0,0.000,0,0,0.128,0.011,0.000,-0.100,-0.080,0.016,0.993,0.012,0.004,-0.010,-0.006,0.000,0.000,0.000,0.000,0,2,0,2,7,255,960,250,0,0,-89.538,0.601,-31.209
EX0521-092111,7,C17,prep,1599,1599,0,523394.092,0.685,-0.677,0.193,0.187,0,0,0,0,0,0,0,0,0,0.000,0,0,0.045,0.010,0.000,-0.040,-0.020,0.015,0.993,0.011,0.002,-0.010,-0.010,0.000,0.000,0.000,0.000,0,2,0,2,7,255,960,250,0,0,-89.538,0.601,-31.209
EX0521-092111,7,C17,prep,1621,1621,0,523399.092,0.685,-0.677,0.193,0.187,0,0,0,0,0,0,0,0,0,0.000,0,0,0.045,0.002,0.000,-0.040,-0.020,0.014,0.993,0.010,0.002,0.000,-0.010,0.000,0.000,0.000,0.000,0,2,0,2,7,255,960,250,0,0,-89.538,0.601,-31.209
EX0521-092111,7,C17,prep,1621,1621,0,523404.092,0.685,-0.677,0.193,0.187,0,0,0,0,0,0,0,0,0,0.000,0,0,0.102,0.002,0.000,-0.100,-0.020,0.015,0.995,0.011,0.002,0.000,-0.010,0.000,0.000,0.000,0.000,0,2,0,2,7,255,960,250,0,0,-89.538,0.601,-31.209
EX0521-092111,7,C17,prep,1656,1656,0,523409.092,0.685,-0.677,0.193,0.187,0,0,0,0,0,0,0,0,0,0.000,0,0,0.045,0.002,0.000,-0.040,-0.020,0.015,0.995,0.011,0.002,0.000,0.004,0.000,0.000,0.000,0.000,0,2,0,2,7,255,960,250,0,0,-89.539,0.601,-31.209
EX0521-092111,7,C17,prep,1656,1656,0,523414.091,0.685,-0.677,0.193,0.187,0,0,0,0,0,0,0,0,0,0.000,0,0,0.089,0.003,0.000,-0.040,-0.080,0.015,0.994,0.012,0.002,-0.002,0.004,0.000,0.000,0.000,0.000,0,2,0,2,7,255,960,250,0,0,-89.539,0.601,-31.209
EX0521-092111,7,C17,prep,1657,1657,0,523419.091,0.685,-0.677,0.193,0.187,0,0,0,0,0,0,0,0,0,0.000,0,0,0.075,0.003,-0.060,-0.040,-0.020,0.015,0.994,0.011,0.002,-0.002,0.000,0.000,0.000,0.000,0.000,0,2,0,2,7,255,960,250,0,0,-89.539,0.601,-31.209
EX0521-092111,7,C17,prep,1657,1657,0,523424.092,0.685,-0.677,0.193,0.187,0,0,0,0,0,0,0,0,0,0.000,0,0,0.045,0.002,0.000,-0.040,-0.020,0.015,0.994,0.010,0.002,0.000,0.000,0.000,0.000,0.000,0.000,0,2,0,2,7,255,960,250,0,0,-89.539,0.600,-31.209
EX0521-092111,7,C17,prep,1658,1658,0,523429.091,0.685,-0.677,0.193,0.187,0,0,0,0,0,0,0,0,0,0.000,0,0,0.075,0.004,-0.060,-0.040,-0.020,0.014,0.993,0.011,0.002,0.004,0.000,0.000,0.000,0.000,0.000,0,2,0,2,7,255,960,250,0,0,-89.539,0.600,-31.209
EX0521-092111,7,C17,prep,1658,1658,0,523434.093,0.685,-0.677,0.193,0.187,0,0,0,0,0,0,0,0,0,0.000,0,0,0.118,0.007,-0.060,-0.100,-0.020,0.014,0.994,0.012,-0.006,0.004,0.000,0.000,0.000,0.000,0.000,0,2,0,2,7,255,960,250,0,0,-89.540,0.600,-31.209
EX0521-092111,7,C17,prep,1688,1688,0,523439.092,0.685,-0.677,0.193,0.187,0,0,0,0,0,0,0,0,0,0.000,0,0,0.066,0.006,-0.060,0.020,-0.020,0.015,0.993,0.011,-0.006,0.000,-0.010,0.000,0.000,0.000,0.000,0,2,0,2,7,255,960,250,0,0,-89.540,0.600,-31.209
EX0521-092111,7,C17,prep,1688,1688,0,523444.092,0.685,-0.677,0.193,0.187,0,0,0,0,0,0,0,0,0,0.000,0,0,0.141,0.003,-0.060,-0.100,-0.080,0.016,0.995,0.011,0.002,-0.002,0.000,0.000,0.000,0.000,0.000,0,2,0,2,7,255,960,250,0,0,-89.540,0.602,-31.209
EX0521-092111,7,C17,prep,1688,1688,0,523449.092,0.685,-0.677,0.193,0.187,0,0,0,0,0,0,0,0,0,0.000,0,0,0.028,0.007,0.000,0.020,-0.020,0.016,0.994,0.012,0.006,-0.004,0.000,0.000,0.000,0.000,0.000,0,2,0,2,7,255,960,250,0,0,-89.540,0.603,-31.209
EX0521-092111,7,C17,prep,1688,1688,0,523454.092,0.685,-0.677,0.193,0.187,0,0,0,0,0,0,0,0,0,0.000,0,0,0.075,0.007,0.060,-0.040,-0.020,0.013,0.994,0.011,0.006,-0.004,0.000,0.000,0.000,0.000,0.000,0,2,0,2,7,255,960,250,0,0,-89.540,0.603,-31.209
EX0521-092111,7,C17,prep,1688,1688,0,523459.092,0.685,-0.677,0.193,0.187,0,0,0,0,0,0,0,0,0,0.000,0,0,0.128,0.008,0.000,-0.100,-0.080,0.014,0.994,0.011,-0.006,0.006,-0.006,0.000,0.000,0.000,0.000,0,2,0,2,7,255,960,250,0,0,-89.541,0.603,-31.209
EX0521-092111,7,C17,prep,1688,1688,0,523464.092,0.685,-0.677,0.193,0.187,0,0,0,0,0,0,0,0,0,0.000,0,0,0.028,0.008,0.000,0.020,-0.020,0.015,0.994,0.012,-0.006,0.006,-0.006,0.000,0.000,0.000,0.000,0,2,0,2,7,255,960,250,0,0,-89.541,0.603,-31.209
EX0521-092111,7,C17,prep,1688,1688,0,523469.092,0.685,-0.677,0.193,0.187,0,0,0,0,0,0,0,0,0,0.000,0,0,0.128,0.006,0.000,-0.100,-0.080,0.014,0.995,0.012,-0.006,-0.002,0.000,0.000,0.000,0.000,0.000,0,2,0,2,7,255,960,250,0,0,-89.541,0.603,-31.209
EX0521-092111,7,C17,prep,1688,1688,0,523474.091,0.685,-0.677,0.193,0.187,0,0,0,0,0,0,0,0,0,0.000,0,0,0.102,0.006,0.000,-0.100,-0.020,0.015,0.994,0.011,-0.002,-0.006,0.000,0.000,0.000,0.000,0.000,0,2,0,2,7,255,960,250,0,0,-89.541,0.602,-31.209
EX0521-092111,7,C17,prep,1690,1690,0,523479.091,0.685,-0.677,0.193,0.187,0,0,0,0,0,0,0,0,0,0.000,0,0,0.057,0.004,0.000,-0.040,0.040,0.015,0.994,0.011,0.000,-0.004,0.000,0.000,0.000,0.000,0.000,0,2,0,2,7,255,960,250,0,0,-89.541,0.602,-31.209
EX0521-092111,7,C17,prep,1690,1690,0,523484.092,0.685,-0.677,0.193,0.187,0,0,0,0,0,0,0,0,0,0.000,0,0,0.045,0.004,0.000,-0.040,-0.020,0.014,0.994,0.011,0.000,-0.004,0.000,0.000,0.000,0.000,0.000,0,2,0,2,7,255,960,250,0,0,-89.541,0.602,-31.209
EX0521-092111,7,C17,prep,1721,1721,0,523489.092,0.685,-0.677,0.193,0.187,0,0,0,0,0,0,0,0,0,0.000,0,0,0.108,0.002,-0.060,-0.040,-0.080,0.015,0.993,0.011,0.000,-0.002,0.000,0.000,0.000,0.000,0.000,0,2,0,2,7,255,960,250,0,0,-89.542,0.602,-31.209
EX0521-092111,7,C17,prep,1721,1721,0,523494.092,0.685,-0.677,0.193,0.187,0,0,0,0,0,0,0,0,0,0.000,0,0,0.075,0.004,-0.060,-0.040,-0.020,0.015,0.994,0.012,-0.004,-0.002,-0.004,0.000,0.000,0.000,0.000,0,2,0,2,7,255,960,250,0,0,-89.542,0.602,-31.209
EX0521-092111,7,C17,prep,1723,1723,0,523499.092,0.685,-0.677,0.193,0.187,0,0,0,0,0,0,0,0,0,0.000,0,0,0.045,0.007,0.000,-0.040,-0.020,0.014,0.993,0.012,-0.004,-0.006,-0.010,0.000,0.000,0.000,0.000,0,2,0,2,7,255,960,250,0,0,-89.542,0.602,-31.209
EX0521-092111,7,C17,prep,1723,1723,0,523504.092,0.685,-0.677,0.193,0.187,0,0,0,0,0,0,0,0,0,0.000,0,0,0.102,0.013,0.000,-0.100,-0.020,0.015,0.993,0.012,-0.004,-0.012,-0.010,0.000,0.000,0.000,0.000,0,2,0,2,7,255,960,250,0,0,-89.542,0.602,-31.209
EX0521-092111,7,C17,prep,1724,1724,0,523509.092,0.685,-0.677,0.193,0.187,0,0,0,0,0,0,0,0,0,0.000,0,0,0.075,0.006,-0.060,-0.040,-0.020,0.015,0.993,0.011,0.000,-0.006,-0.010,0.000,0.000,0.000,0.000,0,2,0,2,7,255,960,250,0,0,-89.542,0.602,-31.209
EX0521-092111,7,C17,prep,1724,1724,0,523514.091,0.685,-0.677,0.193,0.187,0,0,0,0,0,0,0,0,0,0.000,0,0,0.045,0.002,0.000,-0.040,-0.020,0.015,0.993,0.011,0.002,0.000,-0.010,0.000,0.000,0.000,0.000,0,2,0,2,7,255,960,250,0,0,-89.543,0.602,-31.209
EX0521-092111,7,C17,prep,1754,1754,0,523519.091,0.685,-0.677,0.193,0.187,0,0,0,0,0,0,0,0,0,0.000,0,0,0.082,0.002,0.000,0.020,-0.080,0.014,0.995,0.012,0.002,0.000,-0.010,0.000,0.000,0.000,0.000,0,2,0,2,7,255,960,250,0,0,-89.543,0.602,-31.209
EX0521-092111,7,C17,prep,1754,1754,0,523524.092,0.685,-0.677,0.193,0.187,0,0,0,0,0,0,0,0,0,0.000,0,0,0.075,0.004,-0.060,-0.040,-0.020,0.014,0.993,0.011,-0.004,0.000,-0.010,0.000,0.000,0.000,0.000,0,2,0,2,7,255,960,250,0,0,-89.543,0.601,-31.209
EX0521-092111,7,C17,prep,1756,1756,0,523529.091,0.685,-0.677,0.193,0.187,0,0,0,0,0,0,0,0,0,0.000,0,0,0.045,0.004,0.000,-0.040,-0.020,0.015,0.994,0.011,-0.004,0.000,0.000,0.000,0.000,0.000,0.000,0,2,0,2,7,255,960,250,0,0,-89.543,0.601,-31.209
EX0521-092111,7,C17,prep,1756,1756,0,523534.093,0.685,-0.677,0.193,0.187,0,0,0,0,0,0,0,0,0,0.000,0,0,0.089,0.000,0.000,-0.040,-0.080,0.014,0.994,0.010,0.000,0.000,0.000,0.000,0.000,0.000,0.000,0,2,0,2,7,255,960,250,0,0,-89.543,0.601,-31.209
EX0521-092111,7,C17,prep,1756,1756,0,523539.092,0.685,-0.677,0.193,0.187,0,0,0,0,0,0,0,0,0,0.000,0,0,0.102,0.010,-0.060,0.020,-0.080,0.014,0.994,0.010,0.000,0.010,0.000,0.000,0.000,0.000,0.000,0,2,0,2,7,255,960,250,0,0,-89.544,0.601,-31.209
EX0521-092111,7,C17,prep,1756,1756,0,523544.092,0.685,-0.677,0.193,0.187,0,0,0,0,0,0,0,0,0,0.000,0,0,0.045,0.011,0.000,-0.040,-0.020,0.014,0.994,0.012,-0.004,0.010,-0.004,0.000,0.000,0.000,0.000,0,2,0,2,7,255,960,250,0,0,-89.544,0.601,-31.209
EX0521-092111,7,C17,prep,1779,1779,0,523549.092,0.685,-0.677,0.193,0.187,0,0,0,0,0,0,0,0,0,0.000,0,0,0.045,0.006,0.000,-0.040,-0.020,0.015,0.995,0.010,-0.004,0.004,-0.004,0.000,0.000,0.000,0.000,0,2,0,2,7,255,960,250,0,0,-89.544,0.601,-31.209
EX0521-092111,7,C17,prep,1779,1779,0,523554.092,0.685,-0.677,0.193,0.187,0,0,0,0,0,0,0,0,0,0.000,0,0,0.045,0.004,0.000,-0.040,-0.020,0.014,0.995,0.011,-0.004,-0.002,0.006,0.000,0.000,0.000,0.000,0,2,0,2,7,255,960,250,0,0,-89.544,0.601,-31.209
EX0521-092111,7,C17,prep,1779,1779,0,523559.092,0.685,-0.677,0.193,0.187,0,0,0,0,0,0,0,0,0,0.000,0,0,0.045,0.004,0.000,-0.040,-0.020,0.014,0.994,0.012,-0.004,-0.002,0.006,0.000,0.000,0.000,0.000,0,2,0,2,7,255,960,250,0,0,-89.544,0.601,-31.209
EX0521-092111,7,C17,prep,1779,1779,0,523564.093,0.685,-0.677,0.193,0.187,0,0,0,0,0,0,0,0,0,0.000,0,0,0.089,0.004,0.000,-0.040,-0.080,0.014,0.994,0.010,-0.004,-0.002,0.000,0.000,0.000,0.000,0.000,0,2,0,2,7,255,960,250,0,0,-89.545,0.601,-31.209
EX0521-092111,7,C17,prep,1779,1779,0,523569.091,0.685,-0.677,0.193,0.187,0,0,0,0,0,0,0,0,0,0.000,0,0,0.045,0.006,0.000,-0.040,-0.020,0.014,0.994,0.010,-0.002,0.006,0.000,0.000,0.000,0.000,0.000,0,2,0,2,7,255,960,250,0,0,-89.545,0.601,-31.209
EX0521-092111,7,C17,prep,1779,1779,0,523574.091,0.685,-0.677,0.193,0.187,0,0,0,0,0,0,0,0,0,0.000,0,0,0.045,0.006,0.000,-0.040,-0.020,0.015,0.994,0.011,0.002,0.006,0.000,0.000,0.000,0.000,0.000,0,2,0,2,7,255,960,250,0,0,-89.545,0.600,-31.209
EX0521-092111,7,C17,prep,1822,1822,0,523579.092,0.685,-0.677,0.193,0.187,0,0,0,0,0,0,0,0,0,0.000,0,0,0.028,0.003,0.000,0.020,-0.020,0.014,0.994,0.011,-0.002,0.002,0.000,0.000,0.000,0.000,0.000,0,2,0,2,7,255,960,250,0,0,-89.545,0.600,-31.209
EX0521-092111,7,C17,prep,1822,1822,0,523584.092,0.685,-0.677,0.193,0.187,0,0,0,0,0,0,0,0,0,0.000,0,0,0.045,0.004,0.000,-0.040,-0.020,0.015,0.993,0.010,0.004,0.002,-0.004,0.000,0.000,0.000,0.000,0,2,0,2,7,255,960,250,0,0,-89.545,0.600,-31.209
EX0521-092111,7,C17,prep,1822,1822,0,523589.092,0.685,-0.677,0.193,0.187,0,0,0,0,0,0,0,0,0,0.000,0,0,0.045,0.002,0.000,-0.040,-0.020,0.015,0.994,0.011,0.000,0.002,-0.004,0.000,0.000,0.000,0.000,0,2,0,2,7,255,960,250,0,0,-89.546,0.600,-31.209
EX0521-092111,7,C17,prep,1822,1822,0,523594.092,0.685,-0.677,0.193,0.187,0,0,0,0,0,0,0,0,0,0.000,0,0,0.118,0.006,-0.060,-0.100,-0.020,0.015,0.994,0.010,0.006,0.002,-0.004,0.000,0.000,0.000,0.000,0,2,0,2,7,255,960,250,0,0,-89.546,0.600,-31.209
EX0521-092111,7,C17,prep,1822,1822,0,523599.092,0.685,-0.677,0.193,0.187,0,0,0,0,0,0,0,0,0,0.000,0,0,0.045,0.007,0.000,-0.040,-0.020,0.016,0.993,0.012,0.006,-0.004,-0.004,0.000,0.000,0.000,0.000,0,2,0,2,7,255,960,250,0,0,-89.546,0.602,-31.209
EX0521-092111,7,C17,prep,1822,1822,0,523604.092,0.685,-0.677,0.193,0.187,0,0,0,0,0,0,0,0,0,0.000,0,0,0.075,0.010,-0.060,-0.040,-0.020,0.016,0.994,0.010,0.010,0.000,-0.004,0.000,0.000,0.000,0.000,0,2,0,2,7,255,960,250,0,0,-89.546,0.603,-31.209
EX0521-092111,7,C17,prep,1854,1854,0,523609.091,0.685,-0.677,0.193,0.187,0,0,0,0,0,0,0,0,0,0.000,0,0,0.089,0.013,0.000,-0.040,-0.080,0.016,0.994,0.011,0.010,-0.008,-0.004,0.000,0.000,0.000,0.000,0,2,0,2,7,255,960,250,0,0,-89.546,0.604,-31.209
EX0521-092111,7,C17,prep,1854,1854,0,523614.091,0.685,-0.677,0.193,0.187,0,0,0,0,0,0,0,0,0,0.000,0,0,0.102,0.010,0.000,-0.100,-0.020,0.015,0.994,0.011,0.008,-0.006,-0.004,0.000,0.000,0.000,0.000,0,2,0,2,7,255,960,250,0,0,-89.547,0.604,-31.209
EX0521-092111,7,C17,prep,1855,1855,0,523619.091,0.685,-0.677,0.193,0.187,0,0,0,0,0,0,0,0,0,0.000,0,0,0.102,0.007,0.000,-0.100,-0.020,0.014,0.993,0.011,0.004,-0.006,-0.004,0.000,0.000,0.000,0.000,0,2,0,2,7,255,960,250,0,0,-89.547,0.604,-31.209
EX0521-092111,7,C17,prep,1855,1855,0,523624.092,0.685,-0.677,0.193,0.187,0,0,0,0,0,0,0,0,0,0.000,0,0,0.028,0.006,0.000,0.020,-0.020,0.014,0.994,0.012,-0.002,-0.006,0.000,0.000,0.000,0.000,0.000,0,2,0,2,7,255,960,250,0,0,-89.547,0.604,-31.209
EX0521-092111,7,C17,prep,1856,1856,0,523629.092,0.685,-0.677,0.193,0.187,0,0,0,0,0,0,0,0,0,0.000,0,0,0.075,0.003,0.060,-0.040,-0.020,0.015,0.994,0.010,-0.002,0.002,0.000,0.000,0.000,0.000,0.000,0,2,0,2,7,255,960,250,0,0,-89.547,0.604,-31.209
EX0521-092111,7,C17,prep,1856,1856,0,523634.093,0.685,-0.677,0.193,0.187,0,0,0,0,0,0,0,0,0,0.000,0,0,0.102,0.003,0.000,-0.100,-0.020,0.014,0.995,0.011,-0.002,0.002,0.000,0.000,0.000,0.000,0.000,0,2,0,2,7,255,960,250,0,0,-89.547,0.604,-31.209
EX0521-092111,7,C17,prep,1881,1881,0,523639.092,0.685,-0.677,0.193,0.187,0,0,0,0,0,0,0,0,0,0.000,0,0,0.045,0.006,0.000,-0.040,-0.020,0.015,0.994,0.011,0.006,0.002,0.000,0.000,0.000,0.000,0.000,0,2,0,2,7,255,960,250,0,0,-89.547,0.604,-31.209
EX0521-092111,7,C17,prep,1881,1881,0,523644.092,0.685,-0.677,0.193,0.187,0,0,0,0,0,0,0,0,0,0.000,0,0,0.045,0.002,0.000,-0.040,-0.020,0.015,0.994,0.011,0.000,-0.002,0.000,0.000,0.000,0.000,0.000,0,2,0,2,7,255,960,250,0,0,-89.548,0.604,-31.209
EX0521-092111,7,C17,prep,1881,1881,0,523649.092,0.685,-0.677,0.193,0.187,0,0,0,0,0,0,0,0,0,0.000,0,0,0.102,0.004,0.000,-0.100,-0.020,0.015,0.994,0.012,0.000,-0.004,-0.004,0.000,0.000,0.000,0.000,0,2,0,2,7,255,960,250,0,0,-89.548,0.604,-31.209
EX0521-092111,7,C17,prep,1881,1881,0,523654.091,0.685,-0.677,0.193,0.187,0,0,0,0,0,0,0,0,0,0.000,0,0,0.102,0.004,0.000,-0.100,-0.020,0.015,0.994,0.011,0.000,-0.004,-0.004,0.000,0.000,0.000,0.000,0,2,0,2,7,255,960,250,0,0,-89.548,0.603,-31.209
EX0521-092111,7,C17,prep,1881,1881,0,523659.091,0.685,-0.677,0.193,0.187,0,0,0,0,0,0,0,0,0,0.000,0,0,0.045,0.003,0.000,-0.040,-0.020,0.015,0.993,0.011,0.002,-0.002,-0.004,0.000,0.000,0.000,0.000,0,2,0,2,7,255,960,250,0,0,-89.548,0.603,-31.209
EX0521-092111,7,C17,prep,1881,1881,0,523664.092,0.685,-0.677,0.193,0.187,0,0,0,0,0,0,0,0,0,0.000,0,0,0.075,0.004,-0.060,-0.040,-0.020,0.016,0.994,0.012,0.004,-0.002,-0.004,0.000,0.000,0.000,0.000,0,2,0,2,7,255,960,250,0,0,-89.548,0.605,-31.209
EX0521-092111,7,C17,prep,1887,1887,0,523669.091,0.685,-0.677,0.193,0.187,0,0,0,0,0,0,0,0,0,0.000,0,0,0.118,0.013,-0.060,-0.100,-0.020,0.015,0.993,0.012,0.004,-0.012,-0.008,0.000,0.000,0.000,0.000,0,2,0,2,7,255,960,250,0,0,-89.549,0.605,-31.209
EX0521-092111,7,C17,prep,1887,1887,0,523674.091,0.685,-0.677,0.193,0.187,0,0,0,0,0,0,0,0,0,0.000,0,0,0.118,0.012,-0.060,-0.100,-0.020,0.014,0.993,0.011,-0.002,-0.012,-0.008,0.000,0.000,0.000,0.000,0,2,0,2,7,255,960,250,0,0,-89.549,0.604,-31.209
EX0521-092111,7,C17,prep,1903,1903,0,523679.092,0.685,-0.677,0.193,0.187,0,0,0,0,0,0,0,0,0,0.000,0,0,0.102,0.006,0.000,-0.100,-0.020,0.014,0.995,0.011,-0.006,-0.002,-0.008,0.000,0.000,0.000,0.000,0,2,0,2,7,255,960,250,0,0,-89.549,0.604,-31.209
EX0521-092111,7,C17,prep,1903,1903,0,523684.092,0.685,-0.677,0.193,0.187,0,0,0,0,0,0,0,0,0,0.000,0,0,0.045,0.006,0.000,-0.040,-0.020,0.015,0.993,0.011,-0.006,-0.002,-0.008,0.000,0.000,0.000,0.000,0,2,0,2,7,255,960,250,0,0,-89.549,0.604,-31.209
EX0521-092111,7,C17,prep,1903,1903,0,523689.092,0.685,-0.677,0.193,0.187,0,0,0,0,0,0,0,0,0,0.000,0,0,0.082,0.007,0.000,0.020,-0.080,0.014,0.994,0.012,-0.006,-0.004,-0.004,0.000,0.000,0.000,0.000,0,2,0,2,7,255,960,250,0,0,-89.549,0.604,-31.209
EX0521-092111,7,C17,prep,1903,1903,0,523694.092,0.685,-0.677,0.193,0.187,0,0,0,0,0,0,0,0,0,0.000,0,0,0.045,0.009,0.000,-0.040,-0.020,0.013,0.994,0.012,-0.008,-0.004,-0.004,0.000,0.000,0.000,0.000,0,2,0,2,7,255,960,250,0,0,-89.550,0.604,-31.209
EX0521-092111,7,C17,prep,1919,1919,0,523699.092,0.685,-0.677,0.193,0.187,0,0,0,0,0,0,0,0,0,0.000,0,0,0.045,0.010,0.000,-0.040,-0.020,0.014,0.994,0.012,-0.008,-0.006,0.002,0.000,0.000,0.000,0.000,0,2,0,2,7,255,960,250,0,0,-89.550,0.604,-31.209
EX0521-092111,7,C17,prep,1919,1919,0,523704.091,0.685,-0.677,0.193,0.187,0,0,0,0,0,0,0,0,0,0.000,0,0,0.102,0.010,0.000,-0.100,-0.020,0.015,0.994,0.012,-0.008,-0.006,0.002,0.000,0.000,0.000,0.000,0,2,0,2,7,255,960,250,0,0,-89.550,0.604,-31.209
EX0521-092111,7,C17,prep,1953,1953,0,523709.091,0.685,-0.677,0.193,0.187,0,0,0,0,0,0,0,0,0,0.000,0,0,0.045,0.007,0.000,-0.040,-0.020,0.015,0.993,0.011,-0.004,-0.006,-0.004,0.000,0.000,0.000,0.000,0,2,0,2,7,255,960,250,0,0,-89.550,0.604,-31.209
EX0521-092111,7,C17,prep,1953,1953,0,523714.091,0.685,-0.677,0.193,0.187,0,0,0,0,0,0,0,0,0,0.000,0,0,0.057,0.004,0.000,-0.040,0.040,0.014,0.994,0.011,-0.004,0.000,-0.004,0.000,0.000,0.000,0.000,0,2,0,2,7,255,960,250,0,0,-89.550,0.604,-31.209
EX0521-092111,7,C17,prep,1954,1954,0,523719.091,0.685,-0.677,0.193,0.187,0,0,0,0,0,0,0,0,0,0.000,0,0,0.089,0.003,0.000,-0.040,-0.080,0.014,0.994,0.011,-0.002,0.002,-0.004,0.000,0.000,0.000,0.000,0,2,0,2,7,255,960,250,0,0,-89.551,0.604,-31.209
EX0521-092111,7,C17,prep,1954,1954,0,523724.092,0.685,-0.677,0.193,0.187,0,0,0,0,0,0,0,0,0,0.000,0,0,0.089,0.003,0.000,-0.040,-0.080,0.015,0.994,0.011,-0.002,0.002,-0.004,0.000,0.000,0.000,0.000,0,2,0,2,7,255,960,250,0,0,-89.551,0.604,-31.209
EX0521-092111,7,C17,prep,1954,1954,0,523729.092,0.685,-0.677,0.193,0.187,0,0,0,0,0,0,0,0,0,0.000,0,0,0.075,0.003,-0.060,-0.040,-0.020,0.014,0.993,0.011,-0.002,0.002,-0.004,0.000,0.000,0.000,0.000,0,2,0,2,7,255,960,250,0,0,-89.551,0.603,-31.209
EX0521-092111,7,C17,prep,1954,1954,0,523734.093,0.685,-0.677,0.193,0.187,0,0,0,0,0,0,0,0,0,0.000,0,0,0.089,0.004,0.000,-0.040,-0.080,0.015,0.994,0.012,-0.002,-0.004,-0.004,0.000,0.000,0.000,0.000,0,2,0,2,7,255,960,250,0,0,-89.551,0.603,-31.209
EX0521-092111,7,C17,prep,1967,1967,0,523739.092,0.685,-0.677,0.193,0.187,0,0,0,0,0,0,0,0,0,0.000,0,0,0.089,0.003,0.000,-0.040,-0.080,0.015,0.995,0.011,-0.002,-0.002,0.002,0.000,0.000,0.000,0.000,0,2,0,2,7,255,960,250,0,0,-89.551,0.603,-31.209
EX0521-092111,7,C17,prep,1967,1967,0,523744.092,0.685,-0.677,0.193,0.187,0,0,0,0,0,0,0,0,0,0.000,0,0,0.045,0.003,0.000,-0.040,-0.020,0.015,0.993,0.011,0.002,-0.002,0.002,0.000,0.000,0.000,0.000,0,2,0,2,7,255,960,250,0,0,-89.552,0.603,-31.209
EX0521-092111,7,C17,prep,1967,1967,0,523749.092,0.685,-0.677,0.193,0.187,0,0,0,0,0,0,0,0,0,0.000,0,0,0.128,0.002,0.000,-0.100,-0.080,0.014,0.994,0.011,0.002,0.000,0.002,0.000,0.000,0.000,0.000,0,2,0,2,7,255,960,250,0,0,-89.552,0.603,-31.209
EX0521-092111,7,C17,prep,1967,1967,0,523754.091,0.685,-0.677,0.193,0.187,0,0,0,0,0,0,0,0,0,0.000,0,0,0.102,0.000,0.000,-0.100,-0.020,0.015,0.994,0.011,0.000,0.000,-0.004,0.000,0.000,0.000,0.000,0,2,0,2,7,255,960,250,0,0,-89.552,0.603,-31.209
EX0521-092111,7,C17,prep,1967,1967,0,523759.092,0.685,-0.677,0.193,0.187,0,0,0,0,0,0,0,0,0,0.000,0,0,0.045,0.002,0.000,-0.040,-0.020,0.015,0.993,0.011,0.000,-0.002,-0.004,0.000,0.000,0.000,0.000,0,2,0,2,7,255,960,250,0,0,-89.552,0.603,-31.209
EX0521-092111,7,C17,prep,1967,1967,0,523764.093,0.685,-0.677,0.193,0.187,0,0,0,0,0,0,0,0,0,0.000,0,0,0.045,0.004,0.000,-0.040,-0.020,0.015,0.994,0.012,0.000,-0.004,-0.004,0.000,0.000,0.000,0.000,0,2,0,2,7,255,960,250,0,0,-89.552,0.603,-31.209
EX0521-092111,7,C17,prep,1983,1983,0,523769.091,0.685,-0.677,0.193,0.187,0,0,0,0,0,0,0,0,0,0.000,0,0,0.057,0.007,0.000,-0.040,0.040,0.014,0.993,0.012,-0.004,-0.006,-0.012,0.000,0.000,0.000,0.000,0,2,0,2,7,255,960,250,0,0,-89.553,0.603,-31.209
EX0521-092111,7,C17,prep,1983,1983,0,523774.092,0.685,-0.677,0.193,0.187,0,0,0,0,0,0,0,0,0,0.000,0,0,0.102,0.007,0.000,-0.100,-0.020,0.015,0.995,0.011,-0.004,-0.006,0.002,0.000,0.000,0.000,0.000,0,2,0,2,7,255,960,250,0,0,-89.553,0.603,-31.209
EX0521-092111,7,C17,prep,2000,2000,0,523779.092,0.685,-0.677,0.193,0.187,0,0,0,0,0,0,0,0,0,0.000,0,0,0.089,0.010,0.000,-0.040,-0.080,0.014,0.994,0.012,-0.008,-0.006,0.002,0.000,0.000,0.000,0.000,0,2,0,2,7,255,960,250,0,0,-89.553,0.602,-31.209
EX0521-092111,7,C17,prep,2000,2000,0,523784.092,0.685,-0.677,0.193,0.187,0,0,0,0,0,0,0,0,0,0.000,0,0,0.089,0.006,0.000,-0.040,-0.080,0.014,0.994,0.011,-0.004,-0.004,0.002,0.000,0.000,0.000,0.000,0,2,0,2,7,255,960,250,0,0,-89.553,0.602,-31.209
EX0521-092111,7,C17,prep,2015,2015,0,523789.092,0.685,-0.677,0.193,0.187,0,0,0,0,0,0,0,0,0,0.000,0,0,0.128,0.004,0.000,-0.100,-0.080,0.015,0.994,0.010,-0.004,-0.002,0.002,0.000,0.000,0.000,0.000,0,2,0,2,7,255,960,250,0,0,-89.553,0.602,-31.209
EX0521-092111,7,C17,prep,2015,2015,0,523794.092,0.685,-0.677,0.193,0.187,0,0,0,0,0,0,0,0,0,0.000,0,0,0.045,0.004,0.000,-0.040,-0.020,0.014,0.994,0.011,-0.004,-0.002,0.002,0.000,0.000,0.000,0.000,0,2,0,2,7,255,960,250,0,0,-89.553,0.602,-31.209
EX0521-092111,7,C17,prep,2015,2015,0,523799.092,0.685,-0.677,0.193,0.187,0,0,0,0,0,0,0,0,0,0.000,0,0,0.102,0.004,0.000,-0.100,-0.020,0.014,0.994,0.012,-0.004,-0.002,0.002,0.000,0.000,0.000,0.000,0,2,0,2,7,255,960,250,0,0,-89.554,0.602,-31.209
EX0521-092111,7,C17,prep,2015,2015,0,523804.091,0.685,-0.677,0.193,0.187,0,0,0,0,0,0,0,0,0,0.000,0,0,0.045,0.008,0.000,-0.040,-0.020,0.014,0.994,0.012,-0.006,-0.006,0.002,0.000,0.000,0.000,0.000,0,2,0,2,7,255,960,250,0,0,-89.554,0.602,-31.209
EX0521-092111,7,C17,prep,2031,2031,0,523809.091,0.685,-0.677,0.193,0.187,0,0,0,0,0,0,0,0,0,0.000,0,0,0.089,0.008,0.000,-0.040,-0.080,0.015,0.994,0.011,-0.006,-0.006,-0.004,0.000,0.000,0.000,0.000,0,2,0,2,7,255,960,250,0,0,-89.554,0.602,-31.209
EX0521-092111,7,C17,prep,2031,2031,0,523814.091,0.685,-0.677,0.193,0.187,0,0,0,0,0,0,0,0,0,0.000,0,0,0.045,0.006,0.000,-0.040,-0.020,0.014,0.994,0.011,-0.006,-0.002,-0.004,0.000,0.000,0.000,0.000,0,2,0,2,7,255,960,250,0,0,-89.554,0.602,-31.209
EX0521-092111,7,C17,prep,2052,2052,0,523819.091,0.685,-0.677,0.193,0.187,0,0,0,0,0,0,0,0,0,0.000,0,0,0.082,0.002,0.000,0.020,-0.080,0.015,0.994,0.011,0.000,-0.002,-0.004,0.000,0.000,0.000,0.000,0,2,0,2,7,255,960,250,0,0,-89.554,0.602,-31.209
EX0521-092111,7,C17,prep,2052,2052,0,523824.092,0.685,-0.677,0.193,0.187,0,0,0,0,0,0,0,0,0,0.000,0,0,0.089,0.004,0.000,-0.040,-0.080,0.015,0.994,0.011,0.000,-0.004,0.002,0.000,0.000,0.000,0.000,0,2,0,2,7,255,960,250,0,0,-89.555,0.602,-31.209
EX0521-092111,7,C17,prep,2053,2053,0,523829.092,0.685,-0.677,0.193,0.187,0,0,0,0,0,0,0,0,0,0.000,0,0,0.075,0.004,0.060,-0.040,-0.020,0.015,0.993,0.011,0.000,-0.004,0.002,0.000,0.000,0.000,0.000,0,2,0,2,7,255,960,250,0,0,-89.555,0.601,-31.209
EX0521-092111,7,C17,prep,2053,2053,0,523834.093,0.685,-0.677,0.193,0.187,0,0,0,0,0,0,0,0,0,0.000,0,0,0.075,0.004,-0.060,-0.040,-0.020,0.015,0.994,0.010,0.000,-0.004,0.002,0.000,0.000,0.000,0.000,0,2,0,2,7,255,960,250,0,0,-89.555,0.601,-31.209
EX0521-092111,7,C17,prep,2054,2054,0,523839.092,0.685,-0.677,0.193,0.187,0,0,0,0,0,0,0,0,0,0.000,0,0,0.075,0.002,-0.060,-0.040,-0.020,0.015,0.995,0.011,0.002,0.000,0.002,0.000,0.000,0.000,0.000,0,2,0,2,7,255,960,250,0,0,-89.555,0.601,-31.209
EX0521-092111,7,C17,prep,2054,2054,0,523844.092,0.685,-0.677,0.193,0.187,0,0,0,0,0,0,0,0,0,0.000,0,0,0.102,0.004,0.000,-0.100,-0.020,0.015,0.994,0.011,0.004,0.000,0.002,0.000,0.000,0.000,0.000,0,2,0,2,7,255,960,250,0,0,-89.555,0.601,-31.209
EX0521-092111,7,C17,prep,2064,2064,0,523849.092,0.685,-0.677,0.193,0.187,0,0,0,0,0,0,0,0,0,0.000,0,0,0.045,0.006,0.000,-0.040,-0.020,0.014,0.994,0.012,0.002,-0.006,0.002,0.000,0.000,0.000,0.000,0,2,0,2,7,255,960,250,0,0,-89.556,0.601,-31.209
EX0521-092111,7,C17,prep,2064,2064,0,523854.091,0.685,-0.677,0.193,0.187,0,0,0,0,0,0,0,0,0,0.000,0,0,0.102,0.008,0.000,-0.100,-0.020,0.014,0.994,0.012,-0.006,-0.006,0.002,0.000,0.000,0.000,0.000,0,2,0,2,7,255,960,250,0,0,-89.556,0.601,-31.209
EX0521-092111,7,C17,prep,2088,2088,0,523859.091,0.685,-0.677,0.193,0.187,0,0,0,0,0,0,0,0,0,0.000,0,0,0.045,0.008,0.000,-0.040,-0.020,0.016,0.994,0.012,-0.006,-0.006,-0.002,0.000,0.000,0.000,0.000,0,2,0,2,7,255,960,250,0,0,-89.556,0.602,-31.209
EX0521-092111,7,C17,prep,2088,2088,0,523864.092,0.685,-0.677,0.193,0.187,0,0,0,0,0,0,0,0,0,0.000,0,0,0.045,0.006,0.000,-0.040,-0.020,0.014,0.994,0.011,-0.002,-0.006,0.002,0.000,0.000,0.000,0.000,0,2,0,2,7,255,960,250,0,0,-89.556,0.602,-31.209
EX0521-092111,7,C17,prep,2089,2089,0,523869.091,0.685,-0.677,0.193,0.187,0,0,0,0,0,0,0,0,0,0.000,0,0,0.075,0.004,-0.060,-0.040,-0.020,0.015,0.993,0.011,0.000,-0.004,-0.002,0.000,0.000,0.000,0.000,0,2,0,2,7,255,960,250,0,0,-89.556,0.602,-31.209
EX0521-092111,7,C17,prep,2089,2089,0,523874.092,0.685,-0.677,0.193,0.187,0,0,0,0,0,0,0,0,0,0.000,0,0,0.075,0.003,0.060,-0.040,-0.020,0.014,0.995,0.011,-0.002,-0.002,0.002,0.000,0.000,0.000,0.000,0,2,0,2,7,255,960,250,0,0,-89.557,0.602,-31.209
EX0521-092111,7,C17,prep,2095,2095,0,523879.092,0.685,-0.677,0.193,0.187,0,0,0,0,0,0,0,0,0,0.000,0,0,0.045,0.003,0.000,-0.040,-0.020,0.014,0.994,0.011,-0.002,-0.002,0.002,0.000,0.000,0.000,0.000,0,2,0,2,7,255,960,250,0,0,-89.557,0.602,-31.209
EX0521-092111,7,C17,prep,2095,2095,0,523884.092,0.685,-0.677,0.193,0.187,0,0,0,0,0,0,0,0,0,0.000,0,0,0.102,0.003,0.000,-0.100,-0.020,0.014,0.994,0.011,-0.002,0.002,0.002,0.000,0.000,0.000,0.000,0,2,0,2,7,255,960,250,0,0,-89.557,0.602,-31.209
EX0521-092111,7,C17,prep,2117,2117,0,523889.092,0.685,-0.677,0.193,0.187,0,0,0,0,0,0,0,0,0,0.000,0,0,0.102,0.003,0.000,-0.100,-0.020,0.013,0.996,0.011,-0.002,0.002,0.002,0.000,0.000,0.000,0.000,0,2,0,2,7,255,960,250,0,0,-89.557,0.602,-31.209
EX0521-092111,7,C17,prep,2117,2117,0,523894.092,0.685,-0.677,0.193,0.187,0,0,0,0,0,0,0,0,0,0.000,0,0,0.045,0.008,0.000,-0.040,-0.020,0.014,0.993,0.009,-0.002,0.008,-0.004,0.000,0.000,0.000,0.000,0,2,0,2,7,255,960,250,0,0,-89.557,0.602,-31.209
EX0521-092111,7,C17,prep,2117,2117,0,523899.092,0.685,-0.677,0.193,0.187,0,0,0,0,0,0,0,0,0,0.000,0,0,0.045,0.008,0.000,-0.040,-0.020,0.014,0.994,0.010,0.000,0.008,-0.004,0.000,0.000,0.000,0.000,0,2,0,2,7,255,960,250,0,0,-89.558,0.602,-31.209
EX0521-092111,7,C17,prep,2117,2117,0,523904.091,0.685,-0.677,0.193,0.187,0,0,0,0,0,0,0,0,0,0.000,0,0,0.045,0.006,0.000,-0.040,-0.020,0.014,0.995,0.011,0.000,0.006,-0.004,0.000,0.000,0.000,0.000,0,2,0,2,7,255,960,250,0,0,-89.558,0.601,-31.209
EX0521-092111,7,C17,prep,2159,2159,0,523909.091,0.685,-0.677,0.193,0.187,0,0,0,0,0,0,0,0,0,0.000,0,0,0.089,0.003,0.000,-0.040,-0.080,0.013,0.993,0.011,-0.002,0.002,-0.004,0.000,0.000,0.000,0.000,0,2,0,2,7,255,960,250,0,0,-89.558,0.601,-31.209
EX0521-092111,7,C17,prep,2159,2159,0,523914.091,0.685,-0.677,0.193,0.187,0,0,0,0,0,0,0,0,0,0.000,0,0,0.141,0.008,-0.060,-0.100,-0.080,0.014,0.994,0.011,-0.008,0.002,-0.004,0.000,0.000,0.000,0.000,0,2,0,2,7,255,960,250,0,0,-89.558,0.601,-31.209
EX0521-092111,7,C17,prep,2159,2159,0,523919.091,0.685,-0.677,0.193,0.187,0,0,0,0,0,0,0,0,0,0.000,0,0,0.075,0.010,-0.060,-0.040,-0.020,0.013,0.994,0.011,-0.010,0.002,-0.004,0.000,0.000,0.000,0.000,0,2,0,2,7,255,960,250,0,0,-89.558,0.601,-31.209
EX0521-092111,7,C17,prep,2159,2159,0,523924.092,0.685,-0.677,0.193,0.187,0,0,0,0,0,0,0,0,0,0.000,0,0,0.045,0.008,0.000,-0.040,-0.020,0.015,0.994,0.012,-0.008,0.000,-0.002,0.000,0.000,0.000,0.000,0,2,0,2,7,255,960,250,0,0,-89.559,0.601,-31.209
EX0521-092111,7,C17,prep,2159,2159,0,523929.092,0.685,-0.677,0.193,0.187,0,0,0,0,0,0,0,0,0,0.000,0,0,0.102,0.013,0.000,-0.100,-0.020,0.014,0.994,0.012,-0.010,-0.008,-0.002,0.000,0.000,0.000,0.000,0,2,0,2,7,255,960,250,0,0,-89.559,0.601,-31.209
EX0521-092111,7,C17,prep,2159,2159,0,523934.093,0.685,-0.677,0.193,0.187,0,0,0,0,0,0,0,0,0,0.000,0,0,0.028,0.011,0.000,0.020,-0.020,0.014,0.994,0.012,-0.008,-0.008,-0.002,0.000,0.000,0.000,0.000,0,2,0,2,7,255,960,250,0,0,-89.559,0.601,-31.209
EX0521-092111,7,C17,prep,2186,2186,0,523939.092,0.685,-0.677,0.193,0.187,0,0,0,0,0,0,0,0,0,0.000,0,0,0.075,0.011,-0.060,-0.040,-0.020,0.014,0.995,0.011,-0.008,-0.008,0.002,0.000,0.000,0.000,0.000,0,2,0,2,7,255,960,250,0,0,-89.559,0.601,-31.209
EX0521-092111,7,C17,prep,2186,2186,0,523944.092,0.685,-0.677,0.193,0.187,0,0,0,0,0,0,0,0,0,0.000,0,0,0.045,0.003,0.000,-0.040,-0.020,0.014,0.994,0.011,-0.002,0.002,0.002,0.000,0.000,0.000,0.000,0,2,0,2,7,255,960,250,0,0,-89.559,0.601,-31.209
EX0521-092111,7,C17,prep,2186,2186,0,523949.091,0.685,-0.677,0.193,0.187,0,0,0,0,0,0,0,0,0,0.000,0,0,0.028,0.003,0.000,0.020,-0.020,0.014,0.993,0.011,-0.002,0.002,-0.004,0.000,0.000,0.000,0.000,0,2,0,2,7,255,960,250,0,0,-89.559,0.601,-31.209
EX0521-092111,7,C17,prep,2186,2186,0,523954.091,0.685,-0.677,0.193,0.187,0,0,0,0,0,0,0,0,0,0.000,0,0,0.045,0.008,0.000,-0.040,-0.020,0.014,0.994,0.012,-0.008,0.000,-0.004,0.000,0.000,0.000,0.000,0,2,0,2,7,255,960,250,0,0,-89.560,0.600,-31.209
EX0521-092111,7,C17,prep,2186,2186,0,523959.092,0.685,-0.677,0.193,0.187,0,0,0,0,0,0,0,0,0,0.000,0,0,0.075,0.009,0.060,-0.040,-0.020,0.015,0.993,0.012,-0.008,-0.004,-0.008,0.000,0.000,0.000,0.000,0,2,0,2,7,255,960,250,0,0,-89.560,0.600,-31.209
EX0521-092111,7,C17,prep,2186,2186,0,523964.093,0.685,-0.677,0.193,0.187,0,0,0,0,0,0,0,0,0,0.000,0,0,0.075,0.004,0.060,-0.040,-0.020,0.014,0.994,0.011,-0.002,-0.004,-0.002,0.000,0.000,0.000,0.000,0,2,0,2,7,255,960,250,0,0,-89.560,0.600,-31.209
EX0521-092111,7,C17,prep,2186,2186,0,523969.091,0.685,-0.677,0.193,0.187,0,0,0,0,0,0,0,0,0,0.000,0,0,0.045,0.004,0.000,-0.040,-0.020,0.015,0.994,0.011,-0.002,-0.004,-0.002,0.000,0.000,0.000,0.000,0,2,0,2,7,255,960,250,0,0,-89.560,0.600,-31.209
EX0521-092111,7,C17,prep,2186,2186,0,523974.092,0.685,-0.677,0.193,0.187,0,0,0,0,0,0,0,0,0,0.000,0,0,0.028,0.003,0.000,0.020,-0.020,0.014,0.993,0.011,-0.002,0.002,-0.002,0.000,0.000,0.000,0.000,0,2,0,2,7,255,960,250,0,0,-89.560,0.600,-31.209
EX0521-092111,7,C17,prep,2192,2192,0,523979.092,0.685,-0.677,0.193,0.187,0,0,0,0,0,0,0,0,0,0.000,0,0,0.102,0.004,0.000,-0.100,-0.020,0.015,0.994,0.011,0.000,-0.004,-0.002,0.000,0.000,0.000,0.000,0,2,0,2,7,255,960,250,0,0,-89.561,0.600,-31.209
EX0521-092111,7,C17,prep,2192,2192,0,523984.092,0.685,-0.677,0.193,0.187,0,0,0,0,0,0,0,0,0,0.000,0,0,0.089,0.004,0.000,-0.040,-0.080,0.017,0.994,0.012,0.000,-0.004,0.002,0.000,0.000,0.000,0.000,0,2,0,2,7,255,960,250,0,0,-89.561,0.602,-31.209
EX0521-092111,7,C17,prep,2220,2220,0,523989.092,0.685,-0.677,0.193,0.187,0,0,0,0,0,0,0,0,0,0.000,0,0,0.141,0.004,-0.060,-0.100,-0.080,0.015,0.994,0.011,0.002,-0.004,0.002,0.000,0.000,0.000,0.000,0,2,0,2,7,255,960,250,0,0,-89.561,0.602,-31.209
EX0521-092111,7,C17,prep,2220,2220,0,523994.092,0.685,-0.677,0.193,0.187,0,0,0,0,0,0,0,0,0,0.000,0,0,0.028,0.006,0.000,0.020,-0.020,0.014,0.995,0.012,0.002,-0.006,0.002,0.000,0.000,0.000,0.000,0,2,0,2,7,255,960,250,0,0,-89.561,0.601,-31.209
EX0521-092111,7,C17,prep,2222,2222,0,523999.091,0.685,-0.677,0.193,0.187,0,0,0,0,0,0,0,0,0,0.000,0,0,0.102,0.003,0.000,-0.100,-0.020,0.015,0.995,0.011,0.002,-0.002,0.006,0.000,0.000,0.000,0.000,0,2,0,2,7,255,960,250,0,0,-89.561,0.601,-31.209
EX0521-092111,7,C17,prep,2222,2222,0,524004.091,0.685,-0.677,0.193,0.187,0,0,0,0,0,0,0,0,0,0.000,0,0,0.075,0.003,0.060,-0.040,-0.020,0.014,0.994,0.011,-0.002,-0.002,0.006,0.000,0.000,0.000,0.000,0,2,0,2,7,255,960,250,0,0,-89.562,0.601,-31.209
EX0521-092111,7,C17,prep,2256,2256,0,524009.091,0.685,-0.677,0.193,0.187,0,0,0,0,0,0,0,0,0,0.000,0,0,0.089,0.002,0.000,-0.040,-0.080,0.015,0.994,0.011,0.002,0.000,0.002,0.000,0.000,0.000,0.000,0,2,0,2,7,255,960,250,0,0,-89.562,0.601,-31.209
EX0521-092111,7,C17,prep,2256,2256,0,524014.091,0.685,-0.677,0.193,0.187,0,0,0,0,0,0,0,0,0,0.000,0,0,0.075,0.002,0.060,-0.040,-0.020,0.014,0.994,0.011,-0.002,0.000,0.002,0.000,0.000,0.000,0.000,0,2,0,2,7,255,960,250,0,0,-89.562,0.601,-31.209
EX0521-092111,7,C17,prep,2256,2256,0,524019.092,0.685,-0.677,0.193,0.187,0,0,0,0,0,0,0,0,0,0.000,0,0,0.045,0.002,0.000,-0.040,-0.020,0.015,0.995,0.011,0.002,0.000,0.002,0.000,0.000,0.000,0.000,0,2,0,2,7,255,960,250,0,0,-89.562,0.601,-31.209
EX0521-092111,7,C17,prep,2256,2256,0,524024.092,0.685,-0.677,0.193,0.187,0,0,0,0,0,0,0,0,0,0.000,0,0,0.045,0.006,0.000,-0.040,-0.020,0.015,0.995,0.012,-0.002,-0.006,0.006,0.000,0.000,0.000,0.000,0,2,0,2,7,255,960,250,0,0,-89.562,0.601,-31.209
EX0521-092111,7,C17,prep,2257,2257,0,524029.092,0.685,-0.677,0.193,0.187,0,0,0,0,0,0,0,0,0,0.000,0,0,0.089,0.006,0.000,-0.040,-0.080,0.014,0.995,0.011,-0.002,-0.006,0.006,0.000,0.000,0.000,0.000,0,2,0,2,7,255,960,250,0,0,-89.563,0.601,-31.209
EX0521-092111,7,C17,prep,2257,2257,0,524034.093,0.685,-0.677,0.193,0.187,0,0,0,0,0,0,0,0,0,0.000,0,0,0.082,0.004,0.000,0.020,-0.080,0.014,0.994,0.011,-0.004,-0.002,0.006,0.000,0.000,0.000,0.000,0,2,0,2,7,255,960,250,0,0,-89.563,0.601,-31.209
EX0521-092111,7,C17,prep,2287,2287,0,524039.092,0.685,-0.677,0.193,0.187,0,0,0,0,0,0,0,0,0,0.000,0,0,0.045,0.004,0.000,-0.040,-0.020,0.014,0.995,0.010,-0.004,-0.002,0.006,0.000,0.000,0.000,0.000,0,2,0,2,7,255,960,250,0,0,-89.563,0.601,-31.209
EX0521-092111,7,C17,prep,2287,2287,0,524044.092,0.685,-0.677,0.193,0.187,0,0,0,0,0,0,0,0,0,0.000,0,0,0.089,0.004,0.000,-0.040,-0.080,0.014,0.994,0.011,-0.004,-0.002,-0.004,0.000,0.000,0.000,0.000,0,2,0,2,7,255,960,250,0,0,-89.563,0.600,-31.209
EX0521-092111,7,C17,prep,2287,2287,0,524049.092,0.685,-0.677,0.193,0.187,0,0,0,0,0,0,0,0,0,0.000,0,0,0.045,0.002,0.000,-0.040,-0.020,0.015,0.994,0.010,0.000,0.002,0.002,0.000,0.000,0.000,0.000,0,2,0,2,7,255,960,250,0,0,-89.563,0.600,-31.209
EX0521-092111,7,C17,prep,2287,2287,0,524054.091,0.685,-0.677,0.193,0.187,0,0,0,0,0,0,0,0,0,0.000,0,0,0.028,0.004,0.000,0.020,-0.020,0.014,0.995,0.011,-0.004,-0.002,0.002,0.000,0.000,0.000,0.000,0,2,0,2,7,255,960,250,0,0,-89.564,0.600,-31.209
EX0521-092111,7,C17,prep,2287,2287,0,524059.091,0.685,-0.677,0.193,0.187,0,0,0,0,0,0,0,0,0,0.000,0,0,0.075,0.006,-0.060,-0.040,-0.020,0.015,0.996,0.011,0.006,-0.002,0.012,0.000,0.000,0.000,0.000,0,2,0,2,7,255,960,250,0,0,-89.564,0.600,-31.209
EX0521-092111,7,C17,prep,2287,2287,0,524064.092,0.685,-0.677,0.193,0.187,0,0,0,0,0,0,0,0,0,0.000,0,0,0.118,0.004,0.060,-0.100,-0.020,0.014,0.994,0.011,-0.004,-0.002,0.012,0.000,0.000,0.000,0.000,0,2,0,2,7,255,960,250,0,0,-89.564,0.600,-31.209
EX0521-092111,7,C17,prep,2288,2288,0,524069.092,0.685,-0.677,0.193,0.187,0,0,0,0,0,0,0,0,0,0.000,0,0,0.089,0.004,0.000,-0.040,-0.080,0.014,0.994,0.011,-0.004,-0.002,0.002,0.000,0.000,0.000,0.000,0,2,0,2,7,255,960,250,0,0,-89.564,0.600,-31.209
EX0521-092111,7,C17,prep,2288,2288,0,524074.093,0.685,-0.677,0.193,0.187,0,0,0,0,0,0,0,0,0,0.000,0,0,0.089,0.004,0.000,-0.040,-0.080,0.015,0.995,0.011,-0.004,-0.002,0.002,0.000,0.000,0.000,0.000,0,2,0,2,7,255,960,250,0,0,-89.564,0.600,-31.209
EX0521-092111,7,C17,prep,2289,2289,0,524079.092,0.685,-0.677,0.193,0.187,0,0,0,0,0,0,0,0,0,0.000,0,0,0.075,0.002,0.060,-0.040,-0.020,0.015,0.993,0.011,0.000,-0.002,0.002,0.000,0.000,0.000,0.000,0,2,0,2,7,255,960,250,0,0,-89.565,0.600,-31.209
EX0521-092111,7,C17,prep,2289,2289,0,524084.092,0.685,-0.677,0.193,0.187,0,0,0,0,0,0,0,0,0,0.000,0,0,0.089,0.004,0.000,-0.040,-0.080,0.015,0.993,0.011,0.002,-0.004,-0.008,0.000,0.000,0.000,0.000,0,2,0,2,7,255,960,250,0,0,-89.565,0.600,-31.209
EX0521-092111,7,C17,prep,2320,2320,0,524089.092,0.685,-0.677,0.193,0.187,0,0,0,0,0,0,0,0,0,0.000,0,0,0.045,0.004,0.000,-0.040,-0.020,0.015,0.993,0.011,0.000,-0.004,-0.008,0.000,0.000,0.000,0.000,0,2,0,2,7,255,960,250,0,0,-89.565,0.600,-31.209
EX0521-092111,7,C17,prep,2320,2320,0,524094.092,0.685,-0.677,0.193,0.187,0,0,0,0,0,0,0,0,0,0.000,0,0,0.102,0.006,0.000,-0.100,-0.020,0.015,0.995,0.011,0.004,-0.004,-0.008,0.000,0.000,0.000,0.000,0,2,0,2,7,255,960,250,0,0,-89.565,0.599,-31.209
EX0521-092111,7,C17,prep,2321,2321,0,524099.092,0.685,-0.677,0.193,0.187,0,0,0,0,0,0,0,0,0,0.000,0,0,0.089,0.002,0.000,-0.040,-0.080,0.014,0.994,0.011,0.000,-0.002,0.002,0.000,0.000,0.000,0.000,0,2,0,2,7,255,960,250,0,0,-89.565,0.599,-31.209
EX0521-092111,7,C17,prep,2321,2321,0,524104.091,0.685,-0.677,0.193,0.187,0,0,0,0,0,0,0,0,0,0.000,0,0,0.045,0.004,0.000,-0.040,-0.020,0.015,0.994,0.011,0.004,-0.002,0.002,0.000,0.000,0.000,0.000,0,2,0,2,7,255,960,250,0,0,-89.565,0.599,-31.209
EX0521-092111,7,C17,prep,2323,2323,0,524109.091,0.685,-0.677,0.193,0.187,0,0,0,0,0,0,0,0,0,0.000,0,0,0.102,0.003,0.000,-0.100,-0.020,0.015,0.993,0.011,0.002,-0.002,0.002,0.000,0.000,0.000,0.000,0,2,0,2,7,255,960,250,0,0,-89.566,0.599,-31.209
EX0521-092111,7,C17,prep,2323,2323,0,524114.091,0.685,-0.677,0.193,0.187,0,0,0,0,0,0,0,0,0,0.000,0,0,0.082,0.004,-0.060,-0.040,0.040,0.015,0.994,0.010,0.004,0.000,0.002,0.000,0.000,0.000,0.000,0,2,0,2,7,255,960,250,0,0,-89.566,0.599,-31.209
EX0521-092111,7,C17,prep,2367,2367,0,524119.091,0.685,-0.677,0.193,0.187,0,0,0,0,0,0,0,0,0,0.000,0,0,0.028,0.007,0.000,0.020,-0.020,0.014,0.994,0.010,0.004,0.006,0.002,0.000,0.000,0.000,0.000,0,2,0,2,7,255,960,250,0,0,-89.566,0.599,-31.209
EX0521-092111,7,C17,prep,2367,2367,0,524124.092,0.685,-0.677,0.193,0.187,0,0,0,0,0,0,0,0,0,0.000,0,0,0.089,0.007,0.000,-0.040,-0.080,0.014,0.994,0.011,0.004,0.006,0.002,0.000,0.000,0.000,0.000,0,2,0,2,7,255,960,250,0,0,-89.566,0.599,-31.209
EX0521-092111,7,C17,prep,2367,2367,0,524129.092,0.685,-0.677,0.193,0.187,0,0,0,0,0,0,0,0,0,0.000,0,0,0.045,0.006,0.000,-0.040,-0.020,0.014,0.994,0.011,-0.004,0.004,0.002,0.000,0.000,0.000,0.000,0,2,0,2,7,255,960,250,0,0,-89.566,0.599,-31.209
EX0521-092111,7,C17,prep,2367,2367,0,524134.093,0.685,-0.677,0.193,0.187,0,0,0,0,0,0,0,0,0,0.000,0,0,0.045,0.004,0.000,-0.040,-0.020,0.016,0.993,0.011,-0.004,-0.002,-0.004,0.000,0.000,0.000,0.000,0,2,0,2,7,255,960,250,0,0,-89.567,0.600,-31.209
EX0521-092111,7,C17,prep,2367,2367,0,524139.092,0.685,-0.677,0.193,0.187,0,0,0,0,0,0,0,0,0,0.000,0,0,0.108,0.007,-0.060,-0.040,-0.080,0.015,0.994,0.011,0.006,-0.004,0.002,0.000,0.000,0.000,0.000,0,2,0,2,7,255,960,250,0,0,-89.567,0.600,-31.209
EX0521-092111,7,C17,prep,2367,2367,0,524144.092,0.685,-0.677,0.193,0.187,0,0,0,0,0,0,0,0,0,0.000,0,0,0.102,0.007,0.000,-0.100,-0.020,0.015,0.994,0.011,0.006,-0.004,0.002,0.000,0.000,0.000,0.000,0,2,0,2,7,255,960,250,0,0,-89.567,0.600,-31.209
EX0521-092111,7,C17,prep,2367,2367,0,524149.092,0.685,-0.677,0.193,0.187,0,0,0,0,0,0,0,0,0,0.000,0,0,0.108,0.007,0.060,-0.040,-0.080,0.014,0.993,0.012,0.006,-0.004,0.002,0.000,0.000,0.000,0.000,0,2,0,2,7,255,960,250,0,0,-89.567,0.600,-31.209
EX0521-092111,7,C17,prep,2367,2367,0,524154.091,0.685,-0.677,0.193,0.187,0,0,0,0,0,0,0,0,0,0.000,0,0,0.028,0.006,0.000,0.020,-0.020,0.014,0.994,0.011,-0.004,-0.004,-0.004,0.000,0.000,0.000,0.000,0,2,0,2,7,255,960,250,0,0,-89.567,0.600,-31.209
EX0521-092111,7,C17,prep,2391,2391,0,524159.092,0.685,-0.677,0.193,0.187,0,0,0,0,0,0,0,0,0,0.000,0,0,0.028,0.004,0.000,0.020,-0.020,0.015,0.995,0.011,-0.004,-0.002,-0.004,0.000,0.000,0.000,0.000,0,2,0,2,7,255,960,250,0,0,-89.568,0.600,-31.209
EX0521-092111,7,C17,prep,2391,2391,0,524164.093,0.685,-0.677,0.193,0.187,0,0,0,0,0,0,0,0,0,0.000,0,0,0.108,0.004,-0.060,-0.040,-0.080,0.014,0.995,0.012,-0.004,-0.002,0.006,0.000,0.000,0.000,0.000,0,2,0,2,7,255,960,250,0,0,-89.568,0.600,-31.209
EX0521-092111,7,C17,prep,2391,2391,0,524169.091,0.685,-0.677,0.193,0.187,0,0,0,0,0,0,0,0,0,0.000,0,0,0.045,0.006,0.000,-0.040,-0.020,0.016,0.995,0.011,0.002,-0.006,0.006,0.000,0.000,0.000,0.000,0,2,0,2,7,255,960,250,0,0,-89.568,0.601,-31.209
EX0521-092111,7,C17,prep,2391,2391,0,524174.092,0.685,-0.677,0.193,0.187,0,0,0,0,0,0,0,0,0,0.000,0,0,0.089,0.013,0.000,-0.040,-0.080,0.016,0.993,0.011,0.008,-0.010,0.006,0.000,0.000,0.000,0.000,0,2,0,2,7,255,960,250,0,0,-89.568,0.602,-31.209
EX0521-092111,7,C17,prep,2399,2399,0,524179.092,0.685,-0.677,0.193,0.187,0,0,0,0,0,0,0,0,0,0.000,0,0,0.028,0.013,0.000,0.020,-0.020,0.015,0.995,0.011,0.008,-0.010,0.006,0.000,0.000,0.000,0.000,0,2,0,2,7,255,960,250,0,0,-89.568,0.602,-31.209
EX0521-092111,7,C17,prep,2399,2399,0,524184.092,0.685,-0.677,0.193,0.187,0,0,0,0,0,0,0,0,0,0.000,0,0,0.108,0.007,-0.060,-0.040,-0.080,0.015,0.994,0.011,0.006,-0.004,0.002,0.000,0.000,0.000,0.000,0,2,0,2,7,255,960,250,0,0,-89.569,0.602,-31.209
EX0521-092111,7,C17,prep,2415,2415,0,524189.092,0.685,-0.677,0.193,0.187,0,0,0,0,0,0,0,0,0,0.000,0,0,0.075,0.002,-0.060,-0.040,-0.020,0.014,0.993,0.010,0.000,-0.002,0.002,0.000,0.000,0.000,0.000,0,2,0,2,7,255,960,250,0,0,-89.569,0.602,-31.209
EX0521-092111,7,C17,prep,2415,2415,0,524194.092,0.685,-0.677,0.193,0.187,0,0,0,0,0,0,0,0,0,0.000,0,0,0.045,0.002,0.000,-0.040,-0.020,0.014,0.994,0.011,-0.002,0.000,0.002,0.000,0.000,0.000,0.000,0,2,0,2,7,255,960,250,0,0,-89.569,0.602,-31.209
EX0521-092111,7,C17,prep,2415,2415,0,524199.091,0.685,-0.677,0.193,0.187,0,0,0,0,0,0,0,0,0,0.000,0,0,0.045,0.004,0.000,-0.040,-0.020,0.015,0.995,0.010,0.000,0.004,0.002,0.000,0.000,0.000,0.000,0,2,0,2,7,255,960,250,0,0,-89.569,0.602,-31.209
EX0521-092111,7,C17,prep,2415,2415,0,524204.091,0.685,-0.677,0.193,0.187,0,0,0,0,0,0,0,0,0,0.000,0,0,0.102,0.002,0.000,-0.100,-0.020,0.015,0.994,0.011,-0.002,0.000,0.002,0.000,0.000,0.000,0.000,0,2,0,2,7,255,960,250,0,0,-89.569,0.602,-31.209
EX0521-092111,7,C17,prep,2455,2455,0,524209.091,0.685,-0.677,0.193,0.187,0,0,0,0,0,0,0,0,0,0.000,0,0,0.045,0.004,0.000,-0.040,-0.020,0.015,0.995,0.011,-0.002,-0.004,0.006,0.000,0.000,0.000,0.000,0,2,0,2,7,255,960,250,0,0,-89.570,0.602,-31.209
EX0521-092111,7,C17,prep,2455,2455,0,524214.091,0.685,-0.677,0.193,0.187,0,0,0,0,0,0,0,0,0,0.000,0,0,0.045,0.004,0.000,-0.040,-0.020,0.014,0.994,0.012,-0.002,-0.004,0.002,0.000,0.000,0.000,0.000,0,2,0,2,7,255,960,250,0,0,-89.570,0.602,-31.209
EX0521-092111,7,C17,prep,2482,2482,0,524219.091,0.685,-0.677,0.193,0.187,0,0,0,0,0,0,0,0,0,0.000,0,0,0.066,0.006,-0.060,0.020,-0.020,0.015,0.995,0.011,-0.002,-0.006,0.006,0.000,0.000,0.000,0.000,0,2,0,2,7,255,960,250,0,0,-89.570,0.601,-31.209
EX0521-092111,7,C17,prep,2482,2482,0,524224.092,0.685,-0.677,0.193,0.187,0,0,0,0,0,0,0,0,0,0.000,0,0,0.045,0.007,0.000,-0.040,-0.020,0.014,0.994,0.010,-0.004,-0.006,0.002,0.000,0.000,0.000,0.000,0,2,0,2,7,255,960,250,0,0,-89.570,0.601,-31.209
EX0521-092111,7,C17,prep,2482,2482,0,524229.092,0.685,-0.677,0.193,0.187,0,0,0,0,0,0,0,0,0,0.000,0,0,0.045,0.006,0.000,-0.040,-0.020,0.015,0.994,0.011,0.004,-0.004,0.002,0.000,0.000,0.000,0.000,0,2,0,2,7,255,960,250,0,0,-89.570,0.601,-31.209
EX0521-092111,7,C17,prep,2482,2482,0,524234.093,0.685,-0.677,0.193,0.187,0,0,0,0,0,0,0,0,0,0.000,0,0,0.045,0.006,0.000,-0.040,-0.020,0.014,0.995,0.010,0.000,0.006,0.002,0.000,0.000,0.000,0.000,0,2,0,2,7,255,960,250,0,0,-89.571,0.601,-31.209
EX0521-092111,7,C17,prep,2482,2482,0,524239.092,0.685,-0.677,0.193,0.187,0,0,0,0,0,0,0,0,0,0.000,0,0,0.075,0.004,-0.060,-0.040,-0.020,0.015,0.995,0.012,0.000,-0.004,0.006,0.000,0.000,0.000,0.000,0,2,0,2,7,255,960,250,0,0,-89.571,0.601,-31.209
EX0521-092111,7,C17,prep,2482,2482,0,524244.092,0.685,-0.677,0.193,0.187,0,0,0,0,0,0,0,0,0,0.000,0,0,0.089,0.002,0.000,-0.040,-0.080,0.014,0.995,0.011,0.000,0.002,0.006,0.000,0.000,0.000,0.000,0,2,0,2,7,255,960,250,0,0,-89.571,0.601,-31.209
EX0521-092111,7,C17,prep,2495,2495,0,524249.092,0.685,-0.677,0.193,0.187,0,0,0,0,0,0,0,0,0,0.000,0,0,0.075,0.002,-0.060,-0.040,-0.020,0.014,0.994,0.010,0.000,0.002,0.006,0.000,0.000,0.000,0.000,0,2,0,2,7,255,960,250,0,0,-89.571,0.601,-31.209
EX0521-092111,7,C17,prep,2495,2495,0,524254.091,0.685,-0.677,0.193,0.187,0,0,0,0,0,0,0,0,0,0.000,0,0,0.075,0.003,-0.060,-0.040,-0.020,0.014,0.995,0.012,-0.002,0.002,0.006,0.000,0.000,0.000,0.000,0,2,0,2,7,255,960,250,0,0,-89.571,0.601,-31.209
