experiment_id,condition_order_index,condition_id,condition_phase,condition_phase_elapsed_ms,condition_elapsed_ms,is_stimulation_on,t_ms,R_q0,R_q1,R_q2,R_q3,R_heel1,R_mid1,R_fore1,R_heel2,R_fore3,R_mid2,R_fore4,R_fore2,R_cadence,R_speed,R_steps,R_zupt,R_gyroNorm,R_accH,R_gyro_x,R_gyro_y,R_gyro_z,R_acc_x,R_acc_y,R_acc_z,R_nav_ax,R_nav_ay,R_nav_az,R_stepVel,R_stepVelj,R_stepDispRaw,R_stepDispZUPT,R_gaitEvent,R_motorMode,R_motorActive,R_motorAlignment,R_motorRegionMask,R_motorAmplitude,R_motorIntervalMs,R_motorDurationMs,R_motorPhaseMs,R_motorCycleMs,R_roll,R_pitch,R_yaw
EX0521-092111,22,C25,prep,64,64,0,1095069.092,0.686,-0.675,0.196,0.187,0,0,0,0,0,0,0,0,0,0.000,0,0,0.134,0.006,-0.100,-0.040,0.080,0.016,0.987,0.011,0.006,-0.002,-0.016,0.000,0.000,0.000,0.000,0,2,0,3,7,255,1200,200,0,0,-89.326,0.873,-31.431
EX0521-092111,22,C25,prep,64,64,0,1095074.092,0.686,-0.675,0.196,0.187,0,0,0,0,0,0,0,0,0,0.000,0,0,0.166,0.006,-0.160,-0.040,0.020,0.013,1.000,0.012,0.006,0.002,0.042,0.000,0.000,0.000,0.000,0,2,0,3,7,255,1200,200,0,0,-89.326,0.873,-31.431
EX0521-092111,22,C25,prep,64,64,0,1095079.091,0.686,-0.675,0.196,0.187,0,0,0,0,0,0,0,0,0,0.000,0,0,0.649,0.003,0.580,0.080,-0.280,0.015,0.989,0.012,0.002,-0.002,-0.048,0.000,0.000,0.000,0.000,0,2,0,3,7,255,1200,200,0,0,-89.329,0.873,-31.431
EX0521-092111,22,C25,prep,64,64,0,1095084.091,0.686,-0.675,0.196,0.187,0,0,0,0,0,0,0,0,0,0.000,0,0,0.997,0.006,-0.880,-0.160,0.440,0.015,0.996,0.012,0.000,-0.006,0.018,0.000,0.000,0.000,0.000,0,2,0,3,7,255,1200,200,0,0,-89.324,0.873,-31.431
EX0521-092111,22,C25,prep,65,65,0,1095089.092,0.686,-0.675,0.196,0.188,0,0,0,0,0,0,0,0,0,0.000,0,0,1.228,0.008,1.060,0.160,-0.600,0.015,0.995,0.012,0.000,-0.008,0.004,0.000,0.000,0.000,0.000,0,2,0,3,7,255,1200,200,0,0,-89.330,0.870,-31.431
EX0521-092111,22,C25,prep,65,65,0,1095094.092,0.686,-0.675,0.196,0.188,0,0,0,0,0,0,0,0,0,0.000,0,0,1.194,0.008,-1.080,-0.100,0.500,0.015,0.991,0.012,0.000,-0.008,0.004,0.000,0.000,0.000,0.000,0,2,0,3,7,255,1200,200,0,0,-89.324,0.870,-31.431
EX0521-092111,22,C25,prep,66,66,0,1095099.092,0.686,-0.675,0.196,0.188,0,0,0,0,0,0,0,0,0,0.000,0,0,0.570,0.004,0.520,0.080,-0.220,0.014,0.996,0.012,0.000,-0.004,0.004,0.000,0.000,0.000,0.000,0,2,0,3,7,255,1200,200,0,0,-89.324,0.870,-31.431
EX0521-092111,22,C25,prep,66,66,0,1095104.093,0.686,-0.675,0.196,0.188,0,0,0,0,0,0,0,0,0,0.000,0,0,0.352,0.004,-0.340,-0.040,0.080,0.015,0.994,0.011,0.004,-0.002,-0.006,0.000,0.000,0.000,0.000,0,2,0,3,7,255,1200,200,0,0,-89.324,0.870,-31.431
EX0521-092111,22,C25,prep,66,66,0,1095109.091,0.686,-0.675,0.196,0.188,0,0,0,0,0,0,0,0,0,0.000,0,0,0.092,0.003,0.020,-0.040,0.080,0.014,0.994,0.012,-0.002,-0.002,-0.006,0.000,0.000,0.000,0.000,0,2,0,3,7,255,1200,200,0,0,-89.324,0.870,-31.431
EX0521-092111,22,C25,prep,66,66,0,1095114.092,0.686,-0.675,0.196,0.188,0,0,0,0,0,0,0,0,0,0.000,0,0,0.322,0.006,0.200,0.080,-0.240,0.014,0.998,0.010,0.006,0.000,-0.006,0.000,0.000,0.000,0.000,0,2,0,3,7,255,1200,200,0,0,-89.324,0.870,-31.431
EX0521-092111,22,C25,prep,66,66,0,1095119.094,0.686,-0.675,0.196,0.188,0,0,0,0,0,0,0,0,0,0.000,0,0,0.525,0.003,-0.400,-0.220,0.260,0.015,0.991,0.014,-0.002,-0.002,-0.006,0.000,0.000,0.000,0.000,0,2,0,3,7,255,1200,200,0,0,-89.324,0.870,-31.431
EX0521-092111,22,C25,prep,66,66,0,1095124.092,0.686,-0.675,0.196,0.188,0,0,0,0,0,0,0,0,0,0.000,0,0,0.799,0.008,0.700,0.140,-0.360,0.015,0.997,0.010,0.006,0.006,0.022,0.000,0.000,0.000,0.000,0,2,0,3,7,255,1200,200,0,0,-89.328,0.870,-31.431
EX0521-092111,22,C25,prep,79,79,0,1095129.091,0.686,-0.675,0.196,0.188,0,0,0,0,0,0,0,0,0,0.000,0,0,0.819,0.004,-0.760,-0.160,0.260,0.013,0.995,0.012,-0.002,0.004,0.008,0.000,0.000,0.000,0.000,0,2,0,3,7,255,1200,200,0,0,-89.324,0.870,-31.431
EX0521-092111,22,C25,prep,79,79,0,1095134.091,0.686,-0.675,0.196,0.188,0,0,0,0,0,0,0,0,0,0.000,0,0,0.214,0.007,0.140,-0.160,0.020,0.015,0.991,0.014,-0.006,0.004,0.008,0.000,0.000,0.000,0.000,0,2,0,3,7,255,1200,200,0,0,-89.324,0.870,-31.431
EX0521-092111,22,C25,prep,95,95,0,1095139.092,0.686,-0.675,0.196,0.188,0,0,0,0,0,0,0,0,0,0.000,0,0,1.012,0.007,0.880,0.140,-0.480,0.014,0.996,0.009,-0.006,0.004,0.008,0.000,0.000,0.000,0.000,0,2,0,3,7,255,1200,200,0,0,-89.328,0.870,-31.431
EX0521-092111,22,C25,prep,95,95,0,1095144.092,0.686,-0.675,0.196,0.188,0,0,0,0,0,0,0,0,0,0.000,0,0,1.625,0.012,-1.500,-0.280,0.560,0.015,0.994,0.013,-0.002,-0.012,-0.006,0.000,0.000,0.000,0.000,0,2,0,3,7,255,1200,200,0,0,-89.321,0.870,-31.431
EX0521-092111,22,C25,prep,95,95,0,1095149.092,0.686,-0.675,0.196,0.188,0,0,0,0,0,0,0,0,0,0.000,0,0,0.912,0.012,0.880,0.020,-0.240,0.015,0.994,0.013,-0.002,-0.012,0.000,0.000,0.000,0.000,0.000,0,2,0,3,7,255,1200,200,0,0,-89.325,0.870,-31.431
EX0521-092111,22,C25,prep,95,95,0,1095154.091,0.686,-0.675,0.196,0.188,0,0,0,0,0,0,0,0,0,0.000,0,0,0.643,0.012,0.580,0.140,-0.240,0.014,0.994,0.008,-0.002,-0.012,-0.006,0.000,0.000,0.000,0.000,0,2,0,3,7,255,1200,200,0,0,-89.328,0.870,-31.431
EX0521-092111,22,C25,prep,95,95,0,1095159.095,0.686,-0.675,0.196,0.188,0,0,0,0,0,0,0,0,0,0.000,0,0,1.636,0.006,-1.560,-0.220,0.440,0.014,0.998,0.011,-0.002,0.006,0.000,0.000,0.000,0.000,0.000,0,2,0,3,7,255,1200,200,0,0,-89.320,0.870,-31.431
EX0521-092111,22,C25,prep,95,95,0,1095164.092,0.686,-0.675,0.196,0.188,0,0,0,0,0,0,0,0,0,0.000,0,0,0.929,0.006,0.880,-0.100,-0.280,0.014,0.990,0.016,-0.002,0.006,-0.006,0.000,0.000,0.000,0.000,0,2,0,3,7,255,1200,200,0,0,-89.325,0.870,-31.431
EX0521-092111,22,C25,prep,111,111,0,1095169.092,0.686,-0.675,0.196,0.188,0,0,0,0,0,0,0,0,0,0.000,0,0,1.097,0.006,1.060,0.020,-0.280,0.015,0.993,0.007,-0.002,0.006,-0.010,0.000,0.000,0.000,0.000,0,2,0,3,7,255,1200,200,0,0,-89.330,0.870,-31.431
EX0521-092111,22,C25,prep,111,111,0,1095174.092,0.686,-0.675,0.196,0.188,0,0,0,0,0,0,0,0,0,0.000,0,0,1.781,0.016,-1.740,-0.040,0.380,0.013,0.999,0.010,-0.002,0.016,-0.010,0.000,0.000,0.000,0.000,0,2,0,3,7,255,1200,200,0,0,-89.321,0.870,-31.431
EX0521-092111,22,C25,prep,111,111,0,1095179.091,0.686,-0.675,0.196,0.188,0,0,0,0,0,0,0,0,0,0.000,0,0,0.262,0.016,0.220,-0.100,-0.100,0.014,0.990,0.017,-0.002,0.016,-0.010,0.000,0.000,0.000,0.000,0,2,0,3,7,255,1200,200,0,0,-89.321,0.870,-31.431
EX0521-092111,22,C25,prep,111,111,0,1095184.091,0.686,-0.675,0.196,0.188,0,0,0,0,0,0,0,0,0,0.000,0,0,1.319,0.016,1.300,-0.040,-0.220,0.014,0.993,0.009,-0.002,0.016,-0.010,0.000,0.000,0.000,0.000,0,2,0,3,7,255,1200,200,0,0,-89.328,0.870,-31.431
EX0521-092111,22,C25,prep,127,127,0,1095189.092,0.686,-0.675,0.196,0.188,0,0,0,0,0,0,0,0,0,0.000,0,0,0.582,0.024,-0.580,-0.040,0.020,0.013,1.001,0.008,0.010,0.022,-0.010,0.000,0.000,0.000,0.000,0,2,0,3,7,255,1200,200,0,0,-89.325,0.870,-31.431
EX0521-092111,22,C25,prep,127,127,0,1095194.092,0.686,-0.675,0.196,0.188,0,0,0,0,0,0,0,0,0,0.000,0,0,0.976,0.024,-0.940,-0.040,0.260,0.016,0.986,0.016,0.010,0.022,-0.010,0.000,0.000,0.000,0.000,0,2,0,3,7,255,1200,200,0,0,-89.320,0.870,-31.431
EX0521-092111,22,C25,prep,143,143,0,1095199.092,0.686,-0.675,0.196,0.188,0,0,0,0,0,0,0,0,0,0.000,0,0,0.783,0.004,0.760,0.100,-0.160,0.013,0.998,0.012,-0.004,0.000,0.038,0.000,0.000,0.000,0.000,0,2,0,3,7,255,1200,200,0,0,-89.324,0.870,-31.431
EX0521-092111,22,C25,prep,143,143,0,1095204.091,0.686,-0.675,0.196,0.188,0,0,0,0,0,0,0,0,0,0.000,0,0,0.262,0.004,0.220,-0.100,-0.100,0.014,0.995,0.007,-0.004,0.000,0.004,0.000,0.000,0.000,0.000,0,2,0,3,7,255,1200,200,0,0,-89.324,0.870,-31.431
EX0521-092111,22,C25,prep,164,164,0,1095209.091,0.686,-0.675,0.196,0.188,0,0,0,0,0,0,0,0,0,0.000,0,0,0.931,0.002,-0.880,-0.160,0.260,0.015,0.992,0.013,-0.002,0.000,0.004,0.000,0.000,0.000,0.000,0,2,0,3,7,255,1200,200,0,0,-89.320,0.870,-31.431
EX0521-092111,22,C25,prep,165,165,0,1095214.092,0.686,-0.675,0.196,0.188,0,0,0,0,0,0,0,0,0,0.000,0,0,0.754,0.003,0.700,0.020,-0.280,0.014,0.996,0.012,-0.002,-0.002,0.004,0.000,0.000,0.000,0.000,0,2,0,3,7,255,1200,200,0,0,-89.323,0.870,-31.431
EX0521-092111,22,C25,prep,166,166,0,1095219.093,0.686,-0.675,0.196,0.188,0,0,0,0,0,0,0,0,0,0.000,0,0,0.035,0.003,0.020,0.020,0.020,0.015,0.994,0.009,-0.002,-0.002,-0.006,0.000,0.000,0.000,0.000,0,2,0,3,7,255,1200,200,0,0,-89.323,0.870,-31.431
EX0521-092111,22,C25,prep,166,166,0,1095224.092,0.686,-0.675,0.196,0.188,0,0,0,0,0,0,0,0,0,0.000,0,0,0.721,0.006,-0.700,-0.100,0.140,0.015,0.997,0.011,0.006,0.002,0.014,0.000,0.000,0.000,0.000,0,2,0,3,7,255,1200,200,0,0,-89.320,0.870,-31.431
EX0521-092111,22,C25,prep,167,167,0,1095229.091,0.686,-0.675,0.196,0.188,0,0,0,0,0,0,0,0,0,0.000,0,0,0.413,0.006,0.400,0.020,-0.100,0.014,0.992,0.013,0.006,0.002,-0.006,0.000,0.000,0.000,0.000,0,2,0,3,7,255,1200,200,0,0,-89.320,0.870,-31.431
EX0521-092111,22,C25,prep,167,167,0,1095234.091,0.686,-0.675,0.196,0.188,0,0,0,0,0,0,0,0,0,0.000,0,0,0.205,0.006,0.200,-0.040,0.020,0.014,0.996,0.009,0.006,0.002,0.014,0.000,0.000,0.000,0.000,0,2,0,3,7,255,1200,200,0,0,-89.320,0.870,-31.431
EX0521-092111,22,C25,prep,197,197,0,1095239.092,0.686,-0.675,0.196,0.188,0,0,0,0,0,0,0,0,0,0.000,0,0,0.414,0.019,-0.400,-0.100,-0.040,0.012,0.996,0.011,-0.006,0.018,0.014,0.000,0.000,0.000,0.000,0,2,0,3,7,255,1200,200,0,0,-89.320,0.870,-31.431
EX0521-092111,22,C25,prep,197,197,0,1095244.092,0.686,-0.675,0.196,0.188,0,0,0,0,0,0,0,0,0,0.000,0,0,0.060,0.022,0.020,-0.040,-0.040,0.015,0.991,0.015,-0.012,0.018,0.014,0.000,0.000,0.000,0.000,0,2,0,3,7,255,1200,200,0,0,-89.320,0.870,-31.431
EX0521-092111,22,C25,prep,199,199,0,1095249.092,0.686,-0.675,0.196,0.188,0,0,0,0,0,0,0,0,0,0.000,0,0,0.410,0.022,0.400,0.080,-0.040,0.014,0.997,0.010,-0.012,0.018,0.014,0.000,0.000,0.000,0.000,0,2,0,3,7,255,1200,200,0,0,-89.320,0.870,-31.431
EX0521-092111,22,C25,prep,199,199,0,1095254.091,0.686,-0.675,0.196,0.188,0,0,0,0,0,0,0,0,0,0.000,0,0,0.402,0.009,-0.400,-0.040,0.020,0.015,0.995,0.010,0.004,0.008,0.004,0.000,0.000,0.000,0.000,0,2,0,3,7,255,1200,200,0,0,-89.320,0.870,-31.431
EX0521-092111,22,C25,prep,200,200,0,1095259.093,0.686,-0.675,0.196,0.188,0,0,0,0,0,0,0,0,0,0.000,0,0,0.284,0.009,-0.280,-0.040,0.020,0.015,0.992,0.013,0.004,0.008,0.004,0.000,0.000,0.000,0.000,0,2,0,3,7,255,1200,200,0,0,-89.320,0.870,-31.431
EX0521-092111,22,C25,prep,200,200,0,1095264.092,0.686,-0.675,0.196,0.188,0,0,0,0,0,0,0,0,0,0.000,0,0,0.603,0.008,0.580,0.040,-0.160,0.014,0.996,0.010,0.002,0.008,0.004,0.000,0.000,0.000,0.000,0,2,0,3,7,255,1200,200,0,0,-89.323,0.870,-31.431
EX0521-092111,22,C25,prep,207,207,0,1095269.092,0.686,-0.675,0.196,0.188,0,0,0,0,0,0,0,0,0,0.000,0,0,0.190,0.014,-0.160,-0.100,0.020,0.014,0.994,0.010,0.002,0.014,-0.006,0.000,0.000,0.000,0.000,0,2,0,3,7,255,1200,200,0,0,-89.323,0.870,-31.431
EX0521-092111,22,C25,prep,207,207,0,1095274.091,0.686,-0.675,0.196,0.188,0,0,0,0,0,0,0,0,0,0.000,0,0,0.357,0.014,-0.340,-0.100,-0.040,0.013,0.995,0.013,0.002,0.014,0.004,0.000,0.000,0.000,0.000,0,2,0,3,7,255,1200,200,0,0,-89.323,0.870,-31.431
EX0521-092111,22,C25,prep,239,239,0,1095279.091,0.686,-0.675,0.196,0.188,0,0,0,0,0,0,0,0,0,0.000,0,0,0.531,0.006,0.520,0.040,-0.100,0.014,0.994,0.012,-0.004,-0.004,0.000,0.000,0.000,0.000,0.000,0,2,0,3,7,255,1200,200,0,0,-89.323,0.870,-31.431
EX0521-092111,22,C25,prep,239,239,0,1095284.092,0.686,-0.675,0.196,0.188,0,0,0,0,0,0,0,0,0,0.000,0,0,0.134,0.006,-0.100,-0.040,0.080,0.014,0.995,0.009,-0.004,-0.004,0.004,0.000,0.000,0.000,0.000,0,2,0,3,7,255,1200,200,0,0,-89.323,0.870,-31.431
EX0521-092111,22,C25,prep,239,239,0,1095289.092,0.686,-0.675,0.196,0.188,0,0,0,0,0,0,0,0,0,0.000,0,0,0.343,0.007,-0.340,-0.040,0.020,0.014,0.995,0.013,-0.004,-0.006,0.004,0.000,0.000,0.000,0.000,0,2,0,3,7,255,1200,200,0,0,-89.323,0.870,-31.431
EX0521-092111,22,C25,prep,239,239,0,1095294.092,0.686,-0.675,0.196,0.188,0,0,0,0,0,0,0,0,0,0.000,0,0,0.245,0.011,0.220,-0.040,-0.100,0.015,0.993,0.013,-0.004,-0.010,0.004,0.000,0.000,0.000,0.000,0,2,0,3,7,255,1200,200,0,0,-89.323,0.870,-31.431
EX0521-092111,22,C25,prep,239,239,0,1095299.091,0.686,-0.675,0.196,0.188,0,0,0,0,0,0,0,0,0,0.000,0,0,0.170,0.011,0.160,0.040,-0.040,0.013,0.994,0.011,-0.004,-0.010,0.000,0.000,0.000,0.000,0.000,0,2,0,3,7,255,1200,200,0,0,-89.323,0.870,-31.431
EX0521-092111,22,C25,prep,239,239,0,1095304.091,0.686,-0.675,0.196,0.188,0,0,0,0,0,0,0,0,0,0.000,0,0,0.355,0.007,-0.340,-0.100,0.020,0.014,0.994,0.012,-0.004,-0.006,0.000,0.000,0.000,0.000,0.000,0,2,0,3,7,255,1200,200,0,0,-89.323,0.870,-31.431
EX0521-092111,22,C25,prep,271,271,0,1095309.092,0.686,-0.675,0.196,0.188,0,0,0,0,0,0,0,0,0,0.000,0,0,0.098,0.007,0.080,-0.040,-0.040,0.015,0.993,0.013,-0.004,-0.006,0.000,0.000,0.000,0.000,0.000,0,2,0,3,7,255,1200,200,0,0,-89.323,0.870,-31.431
EX0521-092111,22,C25,prep,271,271,0,1095314.092,0.686,-0.675,0.196,0.188,0,0,0,0,0,0,0,0,0,0.000,0,0,0.298,0.006,0.280,0.020,-0.100,0.014,0.995,0.010,-0.002,-0.006,0.000,0.000,0.000,0.000,0.000,0,2,0,3,7,255,1200,200,0,0,-89.323,0.870,-31.431
EX0521-092111,22,C25,prep,271,271,0,1095319.093,0.686,-0.675,0.196,0.188,0,0,0,0,0,0,0,0,0,0.000,0,0,0.401,0.010,-0.400,0.020,0.020,0.015,0.994,0.010,0.006,0.008,-0.006,0.000,0.000,0.000,0.000,0,2,0,3,7,255,1200,200,0,0,-89.323,0.870,-31.431
EX0521-092111,22,C25,prep,271,271,0,1095324.091,0.686,-0.675,0.196,0.188,0,0,0,0,0,0,0,0,0,0.000,0,0,0.060,0.010,-0.040,0.020,-0.040,0.015,0.993,0.013,0.006,0.008,-0.006,0.000,0.000,0.000,0.000,0,2,0,3,7,255,1200,200,0,0,-89.323,0.870,-31.431
EX0521-092111,22,C25,prep,271,271,0,1095329.091,0.686,-0.675,0.196,0.188,0,0,0,0,0,0,0,0,0,0.000,0,0,0.343,0.004,0.340,0.020,-0.040,0.014,0.993,0.012,-0.002,-0.004,-0.010,0.000,0.000,0.000,0.000,0,2,0,3,7,255,1200,200,0,0,-89.323,0.870,-31.431
EX0521-092111,22,C25,prep,271,271,0,1095334.092,0.686,-0.675,0.196,0.188,0,0,0,0,0,0,0,0,0,0.000,0,0,0.242,0.004,-0.220,-0.100,0.020,0.015,0.994,0.010,-0.002,-0.004,-0.010,0.000,0.000,0.000,0.000,0,2,0,3,7,255,1200,200,0,0,-89.323,0.870,-31.431
EX0521-092111,22,C25,prep,296,296,0,1095339.092,0.686,-0.675,0.196,0.188,0,0,0,0,0,0,0,0,0,0.000,0,0,0.190,0.006,-0.160,-0.100,0.020,0.014,0.993,0.012,-0.004,-0.004,-0.010,0.000,0.000,0.000,0.000,0,2,0,3,7,255,1200,200,0,0,-89.323,0.870,-31.431
EX0521-092111,22,C25,prep,296,296,0,1095344.092,0.686,-0.675,0.196,0.188,0,0,0,0,0,0,0,0,0,0.000,0,0,0.300,0.003,0.280,-0.040,-0.100,0.014,0.994,0.011,0.002,0.002,-0.004,0.000,0.000,0.000,0.000,0,2,0,3,7,255,1200,200,0,0,-89.323,0.870,-31.431
EX0521-092111,22,C25,prep,298,298,0,1095349.091,0.686,-0.675,0.196,0.188,0,0,0,0,0,0,0,0,0,0.000,0,0,0.166,0.003,-0.160,-0.040,0.020,0.014,0.996,0.009,0.002,0.002,0.000,0.000,0.000,0.000,0.000,0,2,0,3,7,255,1200,200,0,0,-89.323,0.870,-31.431
EX0521-092111,22,C25,prep,298,298,0,1095354.091,0.686,-0.675,0.196,0.188,0,0,0,0,0,0,0,0,0,0.000,0,0,0.294,0.004,-0.280,-0.040,0.080,0.015,0.994,0.012,0.004,0.002,0.000,0.000,0.000,0.000,0.000,0,2,0,3,7,255,1200,200,0,0,-89.323,0.870,-31.431
EX0521-092111,22,C25,prep,298,298,0,1095359.096,0.686,-0.675,0.196,0.188,0,0,0,0,0,0,0,0,0,0.000,0,0,0.227,0.006,0.200,-0.040,-0.100,0.014,0.994,0.012,0.004,-0.004,-0.004,0.000,0.000,0.000,0.000,0,2,0,3,7,255,1200,200,0,0,-89.323,0.870,-31.431
EX0521-092111,22,C25,prep,298,298,0,1095364.092,0.686,-0.675,0.196,0.188,0,0,0,0,0,0,0,0,0,0.000,0,0,0.151,0.006,0.140,-0.040,-0.040,0.015,0.994,0.010,0.004,-0.004,-0.004,0.000,0.000,0.000,0.000,0,2,0,3,7,255,1200,200,0,0,-89.323,0.870,-31.431
EX0521-092111,22,C25,prep,330,330,0,1095369.092,0.686,-0.675,0.196,0.188,0,0,0,0,0,0,0,0,0,0.000,0,0,0.245,0.003,-0.220,-0.100,-0.040,0.014,0.994,0.011,0.002,0.002,-0.004,0.000,0.000,0.000,0.000,0,2,0,3,7,255,1200,200,0,0,-89.323,0.870,-31.431
EX0521-092111,22,C25,prep,330,330,0,1095374.091,0.686,-0.675,0.196,0.188,0,0,0,0,0,0,0,0,0,0.000,0,0,0.199,0.003,0.140,-0.100,-0.100,0.014,0.994,0.012,0.002,0.002,0.000,0.000,0.000,0.000,0.000,0,2,0,3,7,255,1200,200,0,0,-89.323,0.870,-31.431
EX0521-092111,22,C25,prep,330,330,0,1095379.091,0.686,-0.675,0.196,0.188,0,0,0,0,0,0,0,0,0,0.000,0,0,0.151,0.003,0.140,-0.040,-0.040,0.014,0.994,0.010,0.002,0.002,-0.004,0.000,0.000,0.000,0.000,0,2,0,3,7,255,1200,200,0,0,-89.323,0.870,-31.431
EX0521-092111,22,C25,prep,330,330,0,1095384.092,0.686,-0.675,0.196,0.188,0,0,0,0,0,0,0,0,0,0.000,0,0,0.292,0.003,-0.280,0.020,0.080,0.014,0.994,0.011,0.002,0.002,-0.004,0.000,0.000,0.000,0.000,0,2,0,3,7,255,1200,200,0,0,-89.323,0.870,-31.431
EX0521-092111,22,C25,prep,331,331,0,1095389.092,0.686,-0.675,0.196,0.188,0,0,0,0,0,0,0,0,0,0.000,0,0,0.049,0.004,0.020,-0.040,0.020,0.015,0.993,0.011,0.004,0.002,-0.004,0.000,0.000,0.000,0.000,0,2,0,3,7,255,1200,200,0,0,-89.323,0.870,-31.431
EX0521-092111,22,C25,prep,331,331,0,1095394.092,0.686,-0.675,0.196,0.188,0,0,0,0,0,0,0,0,0,0.000,0,0,0.151,0.003,0.140,-0.040,-0.040,0.013,0.995,0.011,0.002,0.002,-0.004,0.000,0.000,0.000,0.000,0,2,0,3,7,255,1200,200,0,0,-89.323,0.870,-31.431
EX0521-092111,22,C25,prep,362,362,0,1095399.091,0.686,-0.675,0.196,0.188,0,0,0,0,0,0,0,0,0,0.000,0,0,0.170,0.002,-0.160,-0.040,-0.040,0.014,0.995,0.012,-0.002,0.000,0.010,0.000,0.000,0.000,0.000,0,2,0,3,7,255,1200,200,0,0,-89.323,0.870,-31.431
EX0521-092111,22,C25,prep,362,362,0,1095404.091,0.686,-0.675,0.196,0.188,0,0,0,0,0,0,0,0,0,0.000,0,0,0.060,0.004,0.020,-0.040,-0.040,0.014,0.993,0.012,-0.004,-0.002,0.010,0.000,0.000,0.000,0.000,0,2,0,3,7,255,1200,200,0,0,-89.323,0.870,-31.431
EX0521-092111,22,C25,prep,395,395,0,1095409.092,0.686,-0.675,0.196,0.188,0,0,0,0,0,0,0,0,0,0.000,0,0,0.151,0.004,0.140,-0.040,-0.040,0.015,0.994,0.012,-0.002,-0.004,0.000,0.000,0.000,0.000,0.000,0,2,0,3,7,255,1200,200,0,0,-89.323,0.870,-31.431
EX0521-092111,22,C25,prep,395,395,0,1095414.092,0.686,-0.675,0.196,0.188,0,0,0,0,0,0,0,0,0,0.000,0,0,0.104,0.004,-0.100,0.020,0.020,0.014,0.994,0.011,0.002,-0.004,0.000,0.000,0.000,0.000,0.000,0,2,0,3,7,255,1200,200,0,0,-89.323,0.870,-31.431
EX0521-092111,22,C25,prep,395,395,0,1095419.093,0.686,-0.675,0.196,0.188,0,0,0,0,0,0,0,0,0,0.000,0,0,0.166,0.004,-0.160,-0.040,0.020,0.015,0.994,0.013,0.002,-0.004,0.000,0.000,0.000,0.000,0.000,0,2,0,3,7,255,1200,200,0,0,-89.323,0.870,-31.431
EX0521-092111,22,C25,prep,395,395,0,1095424.091,0.686,-0.675,0.196,0.188,0,0,0,0,0,0,0,0,0,0.000,0,0,0.092,0.008,0.080,0.020,-0.040,0.015,0.995,0.012,0.000,-0.008,0.000,0.000,0.000,0.000,0.000,0,2,0,3,7,255,1200,200,0,0,-89.323,0.870,-31.431
EX0521-092111,22,C25,prep,395,395,0,1095429.091,0.686,-0.675,0.196,0.188,0,0,0,0,0,0,0,0,0,0.000,0,0,0.049,0.008,0.020,-0.040,0.020,0.014,0.994,0.011,0.000,-0.008,-0.004,0.000,0.000,0.000,0.000,0,2,0,3,7,255,1200,200,0,0,-89.323,0.870,-31.431
EX0521-092111,22,C25,prep,395,395,0,1095434.092,0.686,-0.675,0.196,0.188,0,0,0,0,0,0,0,0,0,0.000,0,0,0.143,0.000,-0.100,-0.100,0.020,0.014,0.994,0.012,0.000,0.000,0.000,0.000,0.000,0.000,0.000,0,2,0,3,7,255,1200,200,0,0,-89.323,0.870,-31.431
EX0521-092111,22,C25,prep,395,395,0,1095439.092,0.686,-0.675,0.196,0.188,0,0,0,0,0,0,0,0,0,0.000,0,0,0.134,0.006,0.080,-0.040,-0.100,0.014,0.994,0.012,-0.006,0.000,0.000,0.000,0.000,0.000,0.000,0,2,0,3,7,255,1200,200,0,0,-89.323,0.870,-31.431
EX0521-092111,22,C25,prep,395,395,0,1095444.091,0.686,-0.675,0.196,0.188,0,0,0,0,0,0,0,0,0,0.000,0,0,0.049,0.006,0.020,0.020,-0.040,0.015,0.995,0.011,-0.006,0.000,0.000,0.000,0.000,0.000,0.000,0,2,0,3,7,255,1200,200,0,0,-89.323,0.870,-31.431
EX0521-092111,22,C25,prep,397,397,0,1095449.091,0.686,-0.675,0.196,0.188,0,0,0,0,0,0,0,0,0,0.000,0,0,0.224,0.006,-0.220,-0.040,0.020,0.015,0.994,0.011,0.006,0.000,0.000,0.000,0.000,0.000,0.000,0,2,0,3,7,255,1200,200,0,0,-89.323,0.870,-31.431
EX0521-092111,22,C25,prep,397,397,0,1095454.091,0.686,-0.675,0.196,0.188,0,0,0,0,0,0,0,0,0,0.000,0,0,0.060,0.006,0.020,-0.040,-0.040,0.014,0.993,0.012,0.006,0.000,0.000,0.000,0.000,0.000,0.000,0,2,0,3,7,255,1200,200,0,0,-89.323,0.870,-31.431
EX0521-092111,22,C25,prep,397,397,0,1095459.092,0.686,-0.675,0.196,0.188,0,0,0,0,0,0,0,0,0,0.000,0,0,0.151,0.002,0.140,-0.040,-0.040,0.014,0.994,0.010,0.002,0.000,-0.004,0.000,0.000,0.000,0.000,0,2,0,3,7,255,1200,200,0,0,-89.323,0.870,-31.431
EX0521-092111,22,C25,prep,397,397,0,1095464.092,0.686,-0.675,0.196,0.188,0,0,0,0,0,0,0,0,0,0.000,0,0,0.143,0.004,-0.100,-0.100,0.020,0.015,0.993,0.011,0.002,0.004,-0.010,0.000,0.000,0.000,0.000,0,2,0,3,7,255,1200,200,0,0,-89.323,0.870,-31.431
EX0521-092111,22,C25,prep,428,428,0,1095469.092,0.686,-0.675,0.196,0.188,0,0,0,0,0,0,0,0,0,0.000,0,0,0.104,0.004,0.020,-0.100,0.020,0.014,0.992,0.012,0.002,0.004,-0.010,0.000,0.000,0.000,0.000,0,2,0,3,7,255,1200,200,0,0,-89.323,0.870,-31.431
EX0521-092111,22,C25,prep,428,428,0,1095474.091,0.686,-0.675,0.196,0.188,0,0,0,0,0,0,0,0,0,0.000,0,0,0.151,0.004,0.140,-0.040,-0.040,0.014,0.995,0.012,-0.004,0.000,-0.010,0.000,0.000,0.000,0.000,0,2,0,3,7,255,1200,200,0,0,-89.323,0.870,-31.431
EX0521-092111,22,C25,prep,428,428,0,1095479.092,0.686,-0.675,0.196,0.188,0,0,0,0,0,0,0,0,0,0.000,0,0,0.166,0.004,-0.160,0.020,-0.040,0.014,0.994,0.011,-0.004,0.000,-0.004,0.000,0.000,0.000,0.000,0,2,0,3,7,255,1200,200,0,0,-89.323,0.870,-31.431
EX0521-092111,22,C25,prep,428,428,0,1095484.092,0.686,-0.675,0.196,0.188,0,0,0,0,0,0,0,0,0,0.000,0,0,0.060,0.006,-0.040,-0.040,0.020,0.013,0.993,0.012,-0.006,0.002,-0.004,0.000,0.000,0.000,0.000,0,2,0,3,7,255,1200,200,0,0,-89.323,0.870,-31.431
EX0521-092111,22,C25,prep,429,429,0,1095489.092,0.686,-0.675,0.196,0.188,0,0,0,0,0,0,0,0,0,0.000,0,0,0.147,0.006,0.140,0.020,-0.040,0.014,0.994,0.010,0.002,0.006,-0.004,0.000,0.000,0.000,0.000,0,2,0,3,7,255,1200,200,0,0,-89.323,0.870,-31.431
EX0521-092111,22,C25,prep,429,429,0,1095494.091,0.686,-0.675,0.196,0.188,0,0,0,0,0,0,0,0,0,0.000,0,0,0.115,0.007,-0.100,-0.040,-0.040,0.014,0.995,0.011,0.004,0.006,0.000,0.000,0.000,0.000,0.000,0,2,0,3,7,255,1200,200,0,0,-89.323,0.870,-31.431
EX0521-092111,22,C25,prep,461,461,0,1095499.091,0.686,-0.675,0.196,0.188,0,0,0,0,0,0,0,0,0,0.000,0,0,0.143,0.007,-0.100,-0.100,0.020,0.014,0.995,0.012,0.004,0.006,0.006,0.000,0.000,0.000,0.000,0,2,0,3,7,255,1200,200,0,0,-89.323,0.870,-31.431
EX0521-092111,22,C25,prep,461,461,0,1095504.092,0.686,-0.675,0.196,0.188,0,0,0,0,0,0,0,0,0,0.000,0,0,0.147,0.004,0.140,0.020,-0.040,0.014,0.994,0.012,-0.004,0.000,0.006,0.000,0.000,0.000,0.000,0,2,0,3,7,255,1200,200,0,0,-89.323,0.870,-31.431
EX0521-092111,22,C25,prep,464,464,0,1095509.092,0.686,-0.675,0.196,0.188,0,0,0,0,0,0,0,0,0,0.000,0,0,0.060,0.004,-0.040,-0.040,0.020,0.014,0.994,0.012,-0.004,-0.002,0.000,0.000,0.000,0.000,0.000,0,2,0,3,7,255,1200,200,0,0,-89.323,0.870,-31.431
EX0521-092111,22,C25,prep,464,464,0,1095514.092,0.686,-0.675,0.196,0.188,0,0,0,0,0,0,0,0,0,0.000,0,0,0.170,0.003,-0.160,-0.040,-0.040,0.015,0.993,0.012,-0.002,-0.002,0.000,0.000,0.000,0.000,0.000,0,2,0,3,7,255,1200,200,0,0,-89.323,0.870,-31.431
EX0521-092111,22,C25,prep,496,496,0,1095519.093,0.686,-0.675,0.196,0.188,0,0,0,0,0,0,0,0,0,0.000,0,0,0.049,0.003,0.020,0.020,-0.040,0.014,0.994,0.012,-0.002,-0.002,0.000,0.000,0.000,0.000,0.000,0,2,0,3,7,255,1200,200,0,0,-89.323,0.870,-31.431
EX0521-092111,22,C25,prep,496,496,0,1095524.091,0.686,-0.675,0.196,0.188,0,0,0,0,0,0,0,0,0,0.000,0,0,0.069,0.006,-0.040,-0.040,-0.040,0.013,0.994,0.011,-0.006,0.000,0.000,0.000,0.000,0.000,0.000,0,2,0,3,7,255,1200,200,0,0,-89.323,0.870,-31.431
EX0521-092111,22,C25,prep,497,497,0,1095529.092,0.686,-0.675,0.196,0.188,0,0,0,0,0,0,0,0,0,0.000,0,0,0.060,0.007,-0.040,-0.040,0.020,0.014,0.993,0.011,-0.006,0.004,0.000,0.000,0.000,0.000,0.000,0,2,0,3,7,255,1200,200,0,0,-89.323,0.870,-31.431
EX0521-092111,22,C25,prep,497,497,0,1095534.092,0.686,-0.675,0.196,0.188,0,0,0,0,0,0,0,0,0,0.000,0,0,0.060,0.004,0.020,-0.040,-0.040,0.014,0.994,0.012,-0.002,0.004,-0.004,0.000,0.000,0.000,0.000,0,2,0,3,7,255,1200,200,0,0,-89.323,0.870,-31.431
EX0521-092111,22,C25,prep,498,498,0,1095539.092,0.686,-0.675,0.196,0.188,0,0,0,0,0,0,0,0,0,0.000,0,0,0.098,0.004,0.080,-0.040,-0.040,0.014,0.995,0.011,-0.002,0.004,-0.004,0.000,0.000,0.000,0.000,0,2,0,3,7,255,1200,200,0,0,-89.323,0.870,-31.431
EX0521-092111,22,C25,prep,498,498,0,1095544.091,0.686,-0.675,0.196,0.188,0,0,0,0,0,0,0,0,0,0.000,0,0,0.115,0.004,-0.100,-0.040,-0.040,0.015,0.994,0.011,-0.002,0.004,0.000,0.000,0.000,0.000,0.000,0,2,0,3,7,255,1200,200,0,0,-89.323,0.870,-31.431
EX0521-092111,22,C25,prep,499,499,0,1095549.091,0.686,-0.675,0.196,0.188,0,0,0,0,0,0,0,0,0,0.000,0,0,0.069,0.004,-0.040,-0.040,-0.040,0.015,0.994,0.012,0.002,0.004,0.000,0.000,0.000,0.000,0.000,0,2,0,3,7,255,1200,200,0,0,-89.323,0.870,-31.431
EX0521-092111,22,C25,prep,499,499,0,1095554.092,0.686,-0.675,0.196,0.188,0,0,0,0,0,0,0,0,0,0.000,0,0,0.130,0.003,0.080,0.020,-0.100,0.014,0.995,0.012,0.002,-0.002,0.000,0.000,0.000,0.000,0.000,0,2,0,3,7,255,1200,200,0,0,-89.323,0.870,-31.431
EX0521-092111,22,C25,prep,499,499,0,1095559.095,0.686,-0.675,0.196,0.188,0,0,0,0,0,0,0,0,0,0.000,0,0,0.060,0.003,-0.040,-0.040,0.020,0.014,0.994,0.012,-0.002,-0.002,0.000,0.000,0.000,0.000,0.000,0,2,0,3,7,255,1200,200,0,0,-89.323,0.870,-31.431
EX0521-092111,22,C25,prep,499,499,0,1095564.092,0.686,-0.675,0.196,0.188,0,0,0,0,0,0,0,0,0,0.000,0,0,0.104,0.003,0.020,-0.100,0.020,0.014,0.994,0.011,-0.002,-0.002,-0.004,0.000,0.000,0.000,0.000,0,2,0,3,7,255,1200,200,0,0,-89.323,0.870,-31.431
EX0521-092111,22,C25,prep,511,511,0,1095569.091,0.686,-0.675,0.196,0.188,0,0,0,0,0,0,0,0,0,0.000,0,0,0.098,0.004,0.080,-0.040,-0.040,0.014,0.994,0.011,-0.002,0.004,-0.004,0.000,0.000,0.000,0.000,0,2,0,3,7,255,1200,200,0,0,-89.323,0.870,-31.431
EX0521-092111,22,C25,prep,511,511,0,1095574.091,0.686,-0.675,0.196,0.188,0,0,0,0,0,0,0,0,0,0.000,0,0,0.060,0.008,0.020,-0.040,-0.040,0.014,0.994,0.010,0.000,0.008,-0.004,0.000,0.000,0.000,0.000,0,2,0,3,7,255,1200,200,0,0,-89.323,0.870,-31.431
EX0521-092111,22,C25,prep,529,529,0,1095579.092,0.686,-0.675,0.196,0.188,0,0,0,0,0,0,0,0,0,0.000,0,0,0.069,0.008,-0.040,-0.040,-0.040,0.014,0.993,0.012,0.000,0.008,-0.004,0.000,0.000,0.000,0.000,0,2,0,3,7,255,1200,200,0,0,-89.323,0.870,-31.431
EX0521-092111,22,C25,prep,529,529,0,1095584.092,0.686,-0.675,0.196,0.188,0,0,0,0,0,0,0,0,0,0.000,0,0,0.060,0.003,0.020,-0.040,-0.040,0.014,0.995,0.011,0.002,0.002,-0.004,0.000,0.000,0.000,0.000,0,2,0,3,7,255,1200,200,0,0,-89.323,0.870,-31.431
EX0521-092111,22,C25,prep,530,530,0,1095589.092,0.686,-0.675,0.196,0.188,0,0,0,0,0,0,0,0,0,0.000,0,0,0.060,0.002,0.020,-0.040,-0.040,0.015,0.995,0.011,0.002,0.000,0.006,0.000,0.000,0.000,0.000,0,2,0,3,7,255,1200,200,0,0,-89.323,0.870,-31.431
EX0521-092111,22,C25,prep,530,530,0,1095594.091,0.686,-0.675,0.196,0.188,0,0,0,0,0,0,0,0,0,0.000,0,0,0.143,0.006,-0.100,-0.100,0.020,0.015,0.994,0.011,0.006,0.000,0.006,0.000,0.000,0.000,0.000,0,2,0,3,7,255,1200,200,0,0,-89.323,0.870,-31.431
EX0521-092111,22,C25,prep,543,543,0,1095599.091,0.686,-0.675,0.196,0.188,0,0,0,0,0,0,0,0,0,0.000,0,0,0.060,0.008,0.020,-0.040,-0.040,0.015,0.994,0.011,0.008,0.000,-0.004,0.000,0.000,0.000,0.000,0,2,0,3,7,255,1200,200,0,0,-89.323,0.870,-31.431
EX0521-092111,22,C25,prep,543,543,0,1095604.092,0.686,-0.675,0.196,0.188,0,0,0,0,0,0,0,0,0,0.000,0,0,0.060,0.007,0.020,-0.040,-0.040,0.014,0.995,0.011,0.006,0.004,-0.004,0.000,0.000,0.000,0.000,0,2,0,3,7,255,1200,200,0,0,-89.323,0.870,-31.431
EX0521-092111,22,C25,prep,575,575,0,1095609.092,0.686,-0.675,0.196,0.188,0,0,0,0,0,0,0,0,0,0.000,0,0,0.060,0.009,-0.040,-0.040,0.020,0.015,0.994,0.011,0.008,0.004,-0.004,0.000,0.000,0.000,0.000,0,2,0,3,7,255,1200,200,0,0,-89.323,0.870,-31.431
EX0521-092111,22,C25,prep,575,575,0,1095614.092,0.686,-0.675,0.196,0.188,0,0,0,0,0,0,0,0,0,0.000,0,0,0.069,0.003,-0.040,-0.040,-0.040,0.015,0.994,0.012,0.002,0.002,0.000,0.000,0.000,0.000,0.000,0,2,0,3,7,255,1200,200,0,0,-89.323,0.870,-31.431
EX0521-092111,22,C25,prep,575,575,0,1095619.095,0.686,-0.675,0.196,0.188,0,0,0,0,0,0,0,0,0,0.000,0,0,0.049,0.008,0.020,0.020,-0.040,0.015,0.995,0.010,0.008,0.002,0.000,0.000,0.000,0.000,0.000,0,2,0,3,7,255,1200,200,0,0,-89.323,0.870,-31.431
EX0521-092111,22,C25,prep,575,575,0,1095624.091,0.686,-0.675,0.196,0.188,0,0,0,0,0,0,0,0,0,0.000,0,0,0.069,0.009,-0.040,-0.040,-0.040,0.015,0.994,0.011,0.008,0.004,0.000,0.000,0.000,0.000,0.000,0,2,0,3,7,255,1200,200,0,0,-89.323,0.870,-31.431
EX0521-092111,22,C25,prep,575,575,0,1095629.093,0.686,-0.675,0.196,0.188,0,0,0,0,0,0,0,0,0,0.000,0,0,0.110,0.009,0.020,-0.100,-0.040,0.014,0.994,0.012,0.008,0.004,0.000,0.000,0.000,0.000,0.000,0,2,0,3,7,255,1200,200,0,0,-89.323,0.871,-31.431
EX0521-092111,22,C25,prep,575,575,0,1095634.092,0.686,-0.675,0.196,0.188,0,0,0,0,0,0,0,0,0,0.000,0,0,0.060,0.006,0.020,-0.040,-0.040,0.015,0.994,0.012,0.002,-0.006,-0.004,0.000,0.000,0.000,0.000,0,2,0,3,7,255,1200,200,0,0,-89.323,0.871,-31.431
EX0521-092111,22,C25,prep,591,591,0,1095639.091,0.686,-0.675,0.196,0.188,0,0,0,0,0,0,0,0,0,0.000,0,0,0.069,0.007,-0.040,-0.040,-0.040,0.014,0.993,0.012,-0.004,-0.006,-0.004,0.000,0.000,0.000,0.000,0,2,0,3,7,255,1200,200,0,0,-89.323,0.871,-31.431
EX0521-092111,22,C25,prep,591,591,0,1095644.091,0.686,-0.675,0.196,0.188,0,0,0,0,0,0,0,0,0,0.000,0,0,0.110,0.006,-0.040,-0.100,0.020,0.015,0.994,0.012,0.000,-0.006,-0.004,0.000,0.000,0.000,0.000,0,2,0,3,7,255,1200,200,0,0,-89.323,0.871,-31.431
EX0521-092111,22,C25,prep,591,591,0,1095649.091,0.686,-0.675,0.196,0.188,0,0,0,0,0,0,0,0,0,0.000,0,0,0.060,0.004,0.020,-0.040,-0.040,0.014,0.993,0.011,-0.004,0.000,-0.008,0.000,0.000,0.000,0.000,0,2,0,3,7,255,1200,200,0,0,-89.323,0.871,-31.431
EX0521-092111,22,C25,prep,591,591,0,1095654.092,0.686,-0.675,0.196,0.188,0,0,0,0,0,0,0,0,0,0.000,0,0,0.069,0.002,-0.040,-0.040,-0.040,0.014,0.995,0.011,0.000,0.002,-0.004,0.000,0.000,0.000,0.000,0,2,0,3,7,255,1200,200,0,0,-89.323,0.871,-31.431
EX0521-092111,22,C25,prep,592,592,0,1095659.092,0.686,-0.675,0.196,0.188,0,0,0,0,0,0,0,0,0,0.000,0,0,0.049,0.004,0.020,-0.040,0.020,0.014,0.994,0.012,-0.004,0.002,0.002,0.000,0.000,0.000,0.000,0,2,0,3,7,255,1200,200,0,0,-89.323,0.871,-31.431
EX0521-092111,22,C25,prep,592,592,0,1095664.091,0.686,-0.675,0.196,0.188,0,0,0,0,0,0,0,0,0,0.000,0,0,0.092,0.007,0.080,-0.040,0.020,0.014,0.995,0.012,-0.004,-0.006,0.006,0.000,0.000,0.000,0.000,0,2,0,3,7,255,1200,200,0,0,-89.323,0.871,-31.431
EX0521-092111,22,C25,prep,607,607,0,1095669.091,0.686,-0.675,0.196,0.188,0,0,0,0,0,0,0,0,0,0.000,0,0,0.060,0.007,0.020,-0.040,-0.040,0.014,0.995,0.012,-0.004,-0.006,0.006,0.000,0.000,0.000,0.000,0,2,0,3,7,255,1200,200,0,0,-89.323,0.871,-31.431
EX0521-092111,22,C25,prep,607,607,0,1095674.092,0.686,-0.675,0.196,0.188,0,0,0,0,0,0,0,0,0,0.000,0,0,0.035,0.007,0.020,0.020,0.020,0.015,0.994,0.012,-0.004,-0.006,0.006,0.000,0.000,0.000,0.000,0,2,0,3,7,255,1200,200,0,0,-89.323,0.871,-31.431
EX0521-092111,22,C25,prep,625,625,0,1095679.092,0.686,-0.675,0.196,0.188,0,0,0,0,0,0,0,0,0,0.000,0,0,0.035,0.006,0.020,0.020,0.020,0.015,0.995,0.012,0.002,-0.006,0.006,0.000,0.000,0.000,0.000,0,2,0,3,7,255,1200,200,0,0,-89.323,0.871,-31.431
EX0521-092111,22,C25,prep,625,625,0,1095684.092,0.686,-0.675,0.196,0.188,0,0,0,0,0,0,0,0,0,0.000,0,0,0.060,0.004,-0.040,-0.040,0.020,0.014,0.995,0.012,0.002,-0.004,0.006,0.000,0.000,0.000,0.000,0,2,0,3,7,255,1200,200,0,0,-89.323,0.871,-31.431
EX0521-092111,22,C25,prep,626,626,0,1095689.091,0.686,-0.675,0.196,0.188,0,0,0,0,0,0,0,0,0,0.000,0,0,0.060,0.000,-0.040,-0.040,0.020,0.014,0.995,0.011,0.000,0.000,0.010,0.000,0.000,0.000,0.000,0,2,0,3,7,255,1200,200,0,0,-89.323,0.871,-31.431
EX0521-092111,22,C25,prep,626,626,0,1095694.091,0.686,-0.675,0.196,0.188,0,0,0,0,0,0,0,0,0,0.000,0,0,0.049,0.000,0.020,-0.040,0.020,0.015,0.994,0.011,0.000,0.000,0.006,0.000,0.000,0.000,0.000,0,2,0,3,7,255,1200,200,0,0,-89.323,0.871,-31.431
EX0521-092111,22,C25,prep,639,639,0,1095699.092,0.686,-0.675,0.196,0.188,0,0,0,0,0,0,0,0,0,0.000,0,0,0.092,0.007,0.080,0.020,-0.040,0.014,0.995,0.011,0.004,0.006,0.006,0.000,0.000,0.000,0.000,0,2,0,3,7,255,1200,200,0,0,-89.323,0.871,-31.431
EX0521-092111,22,C25,prep,639,639,0,1095704.092,0.686,-0.675,0.196,0.188,0,0,0,0,0,0,0,0,0,0.000,0,0,0.060,0.007,-0.040,-0.040,0.020,0.014,0.994,0.011,0.004,0.006,0.000,0.000,0.000,0.000,0.000,0,2,0,3,7,255,1200,200,0,0,-89.323,0.871,-31.431
EX0521-092111,22,C25,prep,671,671,0,1095709.092,0.686,-0.675,0.196,0.188,0,0,0,0,0,0,0,0,0,0.000,0,0,0.069,0.007,-0.040,-0.040,-0.040,0.014,0.993,0.011,0.004,0.006,0.000,0.000,0.000,0.000,0.000,0,2,0,3,7,255,1200,200,0,0,-89.323,0.871,-31.431
EX0521-092111,22,C25,prep,671,671,0,1095714.091,0.686,-0.675,0.196,0.188,0,0,0,0,0,0,0,0,0,0.000,0,0,0.049,0.003,0.020,0.040,0.020,0.015,0.994,0.012,0.002,0.002,-0.004,0.000,0.000,0.000,0.000,0,2,0,3,7,255,1200,200,0,0,-89.323,0.871,-31.431
EX0521-092111,22,C25,prep,671,671,0,1095719.092,0.686,-0.675,0.196,0.188,0,0,0,0,0,0,0,0,0,0.000,0,0,0.060,0.004,-0.040,-0.040,0.020,0.015,0.993,0.012,0.002,-0.004,-0.008,0.000,0.000,0.000,0.000,0,2,0,3,7,255,1200,200,0,0,-89.323,0.871,-31.431
EX0521-092111,22,C25,prep,671,671,0,1095724.093,0.686,-0.675,0.196,0.188,0,0,0,0,0,0,0,0,0,0.000,0,0,0.060,0.006,0.020,0.040,-0.040,0.015,0.994,0.011,0.004,-0.004,-0.004,0.000,0.000,0.000,0.000,0,2,0,3,7,255,1200,200,0,0,-89.323,0.871,-31.431
EX0521-092111,22,C25,prep,696,696,0,1095729.092,0.686,-0.675,0.196,0.188,0,0,0,0,0,0,0,0,0,0.000,0,0,0.069,0.004,-0.040,0.040,-0.040,0.014,0.995,0.011,0.004,0.000,-0.004,0.000,0.000,0.000,0.000,0,2,0,3,7,255,1200,200,0,0,-89.323,0.871,-31.431
EX0521-092111,22,C25,prep,696,696,0,1095734.092,0.686,-0.675,0.196,0.188,0,0,0,0,0,0,0,0,0,0.000,0,0,0.069,0.002,-0.040,-0.040,-0.040,0.015,0.994,0.012,0.002,0.000,-0.004,0.000,0.000,0.000,0.000,0,2,0,3,7,255,1200,200,0,0,-89.323,0.871,-31.431
EX0521-092111,22,C25,prep,697,697,0,1095739.091,0.686,-0.675,0.196,0.188,0,0,0,0,0,0,0,0,0,0.000,0,0,0.069,0.006,-0.040,-0.040,-0.040,0.014,0.994,0.011,-0.004,0.004,0.000,0.000,0.000,0.000,0.000,0,2,0,3,7,255,1200,200,0,0,-89.323,0.871,-31.431
EX0521-092111,22,C25,prep,697,697,0,1095744.091,0.686,-0.675,0.196,0.188,0,0,0,0,0,0,0,0,0,0.000,0,0,0.060,0.006,0.020,-0.040,-0.040,0.014,0.994,0.013,-0.004,-0.004,0.000,0.000,0.000,0.000,0.000,0,2,0,3,7,255,1200,200,0,0,-89.323,0.871,-31.431
EX0521-092111,22,C25,prep,698,698,0,1095749.092,0.686,-0.675,0.196,0.188,0,0,0,0,0,0,0,0,0,0.000,0,0,0.060,0.007,0.020,-0.040,-0.040,0.015,0.995,0.012,-0.004,-0.006,0.000,0.000,0.000,0.000,0.000,0,2,0,3,7,255,1200,200,0,0,-89.323,0.871,-31.431
EX0521-092111,22,C25,prep,698,698,0,1095754.092,0.686,-0.675,0.196,0.188,0,0,0,0,0,0,0,0,0,0.000,0,0,0.060,0.008,-0.040,-0.040,0.020,0.013,0.994,0.012,-0.006,-0.006,0.000,0.000,0.000,0.000,0.000,0,2,0,3,7,255,1200,200,0,0,-89.323,0.871,-31.431
EX0521-092111,22,C25,prep,698,698,0,1095759.092,0.686,-0.675,0.196,0.188,0,0,0,0,0,0,0,0,0,0.000,0,0,0.049,0.008,0.020,0.020,-0.040,0.015,0.993,0.012,0.006,-0.006,-0.004,0.000,0.000,0.000,0.000,0,2,0,3,7,255,1200,200,0,0,-89.323,0.871,-31.431
EX0521-092111,22,C25,prep,698,698,0,1095764.093,0.686,-0.675,0.196,0.188,0,0,0,0,0,0,0,0,0,0.000,0,0,0.049,0.004,0.020,-0.040,0.020,0.015,0.994,0.012,0.002,-0.004,-0.004,0.000,0.000,0.000,0.000,0,2,0,3,7,255,1200,200,0,0,-89.323,0.871,-31.431
EX0521-092111,22,C25,prep,735,735,0,1095769.091,0.686,-0.675,0.196,0.188,0,0,0,0,0,0,0,0,0,0.000,0,0,0.069,0.004,-0.040,-0.040,-0.040,0.013,0.994,0.011,0.002,-0.004,-0.004,0.000,0.000,0.000,0.000,0,2,0,3,7,255,1200,200,0,0,-89.323,0.871,-31.431
EX0521-092111,22,C25,prep,735,735,0,1095774.092,0.686,-0.675,0.196,0.188,0,0,0,0,0,0,0,0,0,0.000,0,0,0.060,0.006,0.020,-0.040,-0.040,0.014,0.993,0.011,0.002,0.006,-0.004,0.000,0.000,0.000,0.000,0,2,0,3,7,255,1200,200,0,0,-89.323,0.871,-31.431
EX0521-092111,22,C25,prep,735,735,0,1095779.092,0.686,-0.675,0.196,0.188,0,0,0,0,0,0,0,0,0,0.000,0,0,0.049,0.007,0.020,0.020,-0.040,0.015,0.995,0.011,0.004,0.006,-0.004,0.000,0.000,0.000,0.000,0,2,0,3,7,255,1200,200,0,0,-89.323,0.871,-31.431
EX0521-092111,22,C25,prep,735,735,0,1095784.092,0.686,-0.675,0.196,0.188,0,0,0,0,0,0,0,0,0,0.000,0,0,0.115,0.007,-0.100,-0.040,-0.040,0.014,0.994,0.011,0.004,0.006,0.000,0.000,0.000,0.000,0.000,0,2,0,3,7,255,1200,200,0,0,-89.323,0.871,-31.431
EX0521-092111,22,C25,prep,735,735,0,1095789.091,0.686,-0.675,0.196,0.188,0,0,0,0,0,0,0,0,0,0.000,0,0,0.060,0.006,0.020,-0.040,-0.040,0.015,0.994,0.010,0.004,0.004,0.000,0.000,0.000,0.000,0.000,0,2,0,3,7,255,1200,200,0,0,-89.323,0.871,-31.431
EX0521-092111,22,C25,prep,735,735,0,1095794.091,0.686,-0.675,0.196,0.188,0,0,0,0,0,0,0,0,0,0.000,0,0,0.060,0.009,0.020,-0.040,-0.040,0.016,0.994,0.012,0.008,0.004,0.000,0.000,0.000,0.000,0.000,0,2,0,3,7,255,1200,200,0,0,-89.323,0.871,-31.431
EX0521-092111,22,C25,prep,736,736,0,1095799.092,0.686,-0.675,0.196,0.188,0,0,0,0,0,0,0,0,0,0.000,0,0,0.110,0.009,0.020,-0.100,-0.040,0.015,0.993,0.012,0.008,-0.004,-0.004,0.000,0.000,0.000,0.000,0,2,0,3,7,255,1200,200,0,0,-89.323,0.871,-31.431
EX0521-092111,22,C25,prep,736,736,0,1095804.092,0.686,-0.675,0.196,0.188,0,0,0,0,0,0,0,0,0,0.000,0,0,0.060,0.004,-0.040,-0.040,0.020,0.014,0.995,0.012,0.002,-0.004,0.002,0.000,0.000,0.000,0.000,0,2,0,3,7,255,1200,200,0,0,-89.323,0.871,-31.431
EX0521-092111,22,C25,prep,767,767,0,1095809.092,0.686,-0.675,0.196,0.188,0,0,0,0,0,0,0,0,0,0.000,0,0,0.060,0.002,0.020,-0.040,-0.040,0.014,0.994,0.011,0.000,-0.002,-0.004,0.000,0.000,0.000,0.000,0,2,0,3,7,255,1200,200,0,0,-89.323,0.871,-31.431
EX0521-092111,22,C25,prep,767,767,0,1095814.091,0.686,-0.675,0.196,0.188,0,0,0,0,0,0,0,0,0,0.000,0,0,0.049,0.000,0.020,-0.040,0.020,0.015,0.994,0.011,0.000,0.000,0.000,0.000,0.000,0.000,0.000,0,2,0,3,7,255,1200,200,0,0,-89.323,0.871,-31.431
EX0521-092111,22,C25,prep,767,767,0,1095819.093,0.686,-0.675,0.196,0.188,0,0,0,0,0,0,0,0,0,0.000,0,0,0.130,0.004,0.080,-0.100,0.020,0.015,0.993,0.011,0.004,0.000,-0.004,0.000,0.000,0.000,0.000,0,2,0,3,7,255,1200,200,0,0,-89.323,0.871,-31.431
EX0521-092111,22,C25,prep,767,767,0,1095824.093,0.686,-0.675,0.196,0.188,0,0,0,0,0,0,0,0,0,0.000,0,0,0.134,0.004,0.080,-0.100,-0.040,0.014,0.994,0.012,0.004,0.000,0.000,0.000,0.000,0.000,0.000,0,2,0,3,7,255,1200,200,0,0,-89.323,0.871,-31.431
EX0521-092111,22,C25,prep,793,793,0,1095829.092,0.686,-0.675,0.196,0.188,0,0,0,0,0,0,0,0,0,0.000,0,0,0.060,0.002,0.020,-0.040,-0.040,0.014,0.994,0.011,-0.002,0.000,-0.004,0.000,0.000,0.000,0.000,0,2,0,3,7,255,1200,200,0,0,-89.323,0.871,-31.431
EX0521-092111,22,C25,prep,793,793,0,1095834.091,0.686,-0.675,0.196,0.188,0,0,0,0,0,0,0,0,0,0.000,0,0,0.069,0.003,-0.040,-0.040,-0.040,0.014,0.994,0.011,-0.002,0.002,0.000,0.000,0.000,0.000,0.000,0,2,0,3,7,255,1200,200,0,0,-89.323,0.871,-31.431
EX0521-092111,22,C25,prep,795,795,0,1095839.091,0.686,-0.675,0.196,0.188,0,0,0,0,0,0,0,0,0,0.000,0,0,0.110,0.003,0.020,-0.100,-0.040,0.015,0.993,0.013,-0.002,0.002,-0.004,0.000,0.000,0.000,0.000,0,2,0,3,7,255,1200,200,0,0,-89.323,0.871,-31.431
EX0521-092111,22,C25,prep,795,795,0,1095844.091,0.686,-0.675,0.196,0.188,0,0,0,0,0,0,0,0,0,0.000,0,0,0.049,0.002,0.020,-0.040,0.020,0.014,0.993,0.011,0.000,0.002,-0.008,0.000,0.000,0.000,0.000,0,2,0,3,7,255,1200,200,0,0,-89.323,0.871,-31.431
EX0521-092111,22,C25,prep,796,796,0,1095849.092,0.686,-0.675,0.196,0.188,0,0,0,0,0,0,0,0,0,0.000,0,0,0.115,0.002,-0.100,-0.040,-0.040,0.015,0.996,0.011,0.000,0.002,-0.008,0.000,0.000,0.000,0.000,0,2,0,3,7,255,1200,200,0,0,-89.323,0.871,-31.431
EX0521-092111,22,C25,prep,796,796,0,1095854.092,0.686,-0.675,0.196,0.188,0,0,0,0,0,0,0,0,0,0.000,0,0,0.069,0.007,-0.040,-0.040,-0.040,0.015,0.994,0.011,0.006,0.004,0.002,0.000,0.000,0.000,0.000,0,2,0,3,7,255,1200,200,0,0,-89.323,0.871,-31.431
EX0521-092111,22,C25,prep,796,796,0,1095859.091,0.686,-0.675,0.196,0.188,0,0,0,0,0,0,0,0,0,0.000,0,0,0.060,0.007,0.020,-0.040,-0.040,0.014,0.993,0.010,0.006,0.004,0.002,0.000,0.000,0.000,0.000,0,2,0,3,7,255,1200,200,0,0,-89.323,0.871,-31.431
EX0521-092111,22,C25,prep,796,796,0,1095864.092,0.686,-0.675,0.196,0.188,0,0,0,0,0,0,0,0,0,0.000,0,0,0.060,0.007,-0.040,-0.040,0.020,0.014,0.993,0.012,0.006,0.004,-0.008,0.000,0.000,0.000,0.000,0,2,0,3,7,255,1200,200,0,0,-89.323,0.871,-31.431
EX0521-092111,22,C25,prep,829,829,0,1095869.091,0.686,-0.675,0.196,0.188,0,0,0,0,0,0,0,0,0,0.000,0,0,0.060,0.006,0.020,-0.040,-0.040,0.016,0.993,0.012,0.006,-0.002,-0.008,0.000,0.000,0.000,0.000,0,2,0,3,7,255,1200,200,0,0,-89.323,0.871,-31.431
EX0521-092111,22,C25,prep,829,829,0,1095874.092,0.686,-0.675,0.196,0.188,0,0,0,0,0,0,0,0,0,0.000,0,0,0.060,0.010,0.020,-0.040,-0.040,0.015,0.994,0.011,0.010,-0.002,-0.008,0.000,0.000,0.000,0.000,0,2,0,3,7,255,1200,200,0,0,-89.323,0.871,-31.431
EX0521-092111,22,C25,prep,829,829,0,1095879.092,0.686,-0.675,0.196,0.188,0,0,0,0,0,0,0,0,0,0.000,0,0,0.069,0.010,-0.040,-0.040,-0.040,0.015,0.994,0.011,0.010,0.000,-0.004,0.000,0.000,0.000,0.000,0,2,0,3,7,255,1200,200,0,0,-89.323,0.871,-31.431
EX0521-092111,22,C25,prep,829,829,0,1095884.091,0.686,-0.675,0.196,0.188,0,0,0,0,0,0,0,0,0,0.000,0,0,0.060,0.004,-0.040,-0.040,0.020,0.014,0.995,0.011,0.004,0.000,0.002,0.000,0.000,0.000,0.000,0,2,0,3,7,255,1200,200,0,0,-89.323,0.871,-31.431
EX0521-092111,22,C25,prep,830,830,0,1095889.091,0.686,-0.675,0.196,0.188,0,0,0,0,0,0,0,0,0,0.000,0,0,0.060,0.004,0.020,-0.040,-0.040,0.015,0.993,0.011,0.004,0.000,0.002,0.000,0.000,0.000,0.000,0,2,0,3,7,255,1200,200,0,0,-89.323,0.871,-31.431
EX0521-092111,22,C25,prep,830,830,0,1095894.092,0.686,-0.675,0.196,0.188,0,0,0,0,0,0,0,0,0,0.000,0,0,0.049,0.004,0.020,-0.040,0.020,0.015,0.993,0.011,0.004,0.000,-0.008,0.000,0.000,0.000,0.000,0,2,0,3,7,255,1200,200,0,0,-89.323,0.871,-31.431
EX0521-092111,22,C25,prep,831,831,0,1095899.092,0.686,-0.675,0.196,0.188,0,0,0,0,0,0,0,0,0,0.000,0,0,0.049,0.004,0.020,0.020,-0.040,0.015,0.994,0.013,0.004,0.000,-0.008,0.000,0.000,0.000,0.000,0,2,0,3,7,255,1200,200,0,0,-89.323,0.871,-31.431
EX0521-092111,22,C25,prep,831,831,0,1095904.092,0.686,-0.675,0.196,0.188,0,0,0,0,0,0,0,0,0,0.000,0,0,0.035,0.004,0.020,0.020,0.020,0.015,0.994,0.011,0.004,0.000,-0.004,0.000,0.000,0.000,0.000,0,2,0,3,7,255,1200,200,0,0,-89.323,0.871,-31.431
EX0521-092111,22,C25,prep,864,864,0,1095909.091,0.686,-0.675,0.196,0.188,0,0,0,0,0,0,0,0,0,0.000,0,0,0.049,0.004,0.020,-0.040,0.020,0.014,0.994,0.012,0.000,-0.004,-0.004,0.000,0.000,0.000,0.000,0,2,0,3,7,255,1200,200,0,0,-89.323,0.871,-31.431
EX0521-092111,22,C25,prep,864,864,0,1095914.091,0.686,-0.675,0.196,0.188,0,0,0,0,0,0,0,0,0,0.000,0,0,0.060,0.000,-0.040,-0.040,0.020,0.014,0.996,0.011,0.000,0.000,-0.004,0.000,0.000,0.000,0.000,0,2,0,3,7,255,1200,200,0,0,-89.323,0.871,-31.431
EX0521-092111,22,C25,prep,864,864,0,1095919.092,0.686,-0.675,0.196,0.188,0,0,0,0,0,0,0,0,0,0.000,0,0,0.060,0.004,0.020,-0.040,-0.040,0.015,0.995,0.012,0.000,-0.004,0.006,0.000,0.000,0.000,0.000,0,2,0,3,7,255,1200,200,0,0,-89.323,0.871,-31.431
EX0521-092111,22,C25,prep,864,864,0,1095924.093,0.686,-0.675,0.196,0.188,0,0,0,0,0,0,0,0,0,0.000,0,0,0.098,0.002,0.080,-0.040,-0.040,0.014,0.994,0.011,0.000,0.002,0.006,0.000,0.000,0.000,0.000,0,2,0,3,7,255,1200,200,0,0,-89.323,0.871,-31.431
EX0521-092111,22,C25,prep,864,864,0,1095929.092,0.686,-0.675,0.196,0.188,0,0,0,0,0,0,0,0,0,0.000,0,0,0.060,0.003,-0.040,0.020,-0.040,0.014,0.994,0.011,0.002,0.002,0.002,0.000,0.000,0.000,0.000,0,2,0,3,7,255,1200,200,0,0,-89.323,0.871,-31.431
EX0521-092111,22,C25,prep,864,864,0,1095934.091,0.686,-0.675,0.196,0.188,0,0,0,0,0,0,0,0,0,0.000,0,0,0.110,0.003,0.020,-0.040,-0.100,0.015,0.994,0.011,0.002,0.002,0.002,0.000,0.000,0.000,0.000,0,2,0,3,7,255,1200,200,0,0,-89.323,0.871,-31.431
EX0521-092111,22,C25,prep,895,895,0,1095939.091,0.686,-0.675,0.196,0.188,0,0,0,0,0,0,0,0,0,0.000,0,0,0.115,0.002,-0.040,-0.100,-0.040,0.015,0.994,0.012,0.002,0.000,0.002,0.000,0.000,0.000,0.000,0,2,0,3,7,255,1200,200,0,0,-89.323,0.871,-31.431
EX0521-092111,22,C25,prep,895,895,0,1095944.092,0.686,-0.675,0.196,0.188,0,0,0,0,0,0,0,0,0,0.000,0,0,0.060,0.002,0.020,-0.040,-0.040,0.014,0.994,0.011,0.002,0.000,0.002,0.000,0.000,0.000,0.000,0,2,0,3,7,255,1200,200,0,0,-89.323,0.871,-31.431
EX0521-092111,22,C25,prep,895,895,0,1095949.092,0.686,-0.675,0.196,0.188,0,0,0,0,0,0,0,0,0,0.000,0,0,0.069,0.004,-0.040,-0.040,-0.040,0.015,0.994,0.012,0.002,-0.004,0.002,0.000,0.000,0.000,0.000,0,2,0,3,7,255,1200,200,0,0,-89.323,0.871,-31.431
EX0521-092111,22,C25,prep,895,895,0,1095954.092,0.686,-0.675,0.196,0.188,0,0,0,0,0,0,0,0,0,0.000,0,0,0.098,0.003,0.080,-0.040,-0.040,0.014,0.995,0.011,0.002,0.002,0.002,0.000,0.000,0.000,0.000,0,2,0,3,7,255,1200,200,0,0,-89.323,0.871,-31.431
EX0521-092111,22,C25,prep,897,897,0,1095959.091,0.686,-0.675,0.196,0.188,0,0,0,0,0,0,0,0,0,0.000,0,0,0.060,0.002,0.020,-0.040,-0.040,0.014,0.995,0.011,0.000,0.002,0.006,0.000,0.000,0.000,0.000,0,2,0,3,7,255,1200,200,0,0,-89.323,0.871,-31.431
EX0521-092111,22,C25,prep,897,897,0,1095964.093,0.686,-0.675,0.196,0.188,0,0,0,0,0,0,0,0,0,0.000,0,0,0.035,0.002,0.020,0.020,0.020,0.015,0.993,0.011,0.000,0.002,0.006,0.000,0.000,0.000,0.000,0,2,0,3,7,255,1200,200,0,0,-89.323,0.871,-31.431
EX0521-092111,22,C25,prep,913,913,0,1095969.092,0.686,-0.675,0.196,0.188,0,0,0,0,0,0,0,0,0,0.000,0,0,0.110,0.006,0.020,-0.100,-0.040,0.015,0.994,0.011,0.006,0.002,0.002,0.000,0.000,0.000,0.000,0,2,0,3,7,255,1200,200,0,0,-89.323,0.871,-31.431
EX0521-092111,22,C25,prep,913,913,0,1095974.092,0.686,-0.675,0.196,0.188,0,0,0,0,0,0,0,0,0,0.000,0,0,0.115,0.007,-0.040,-0.040,-0.100,0.013,0.993,0.011,0.006,0.004,-0.008,0.000,0.000,0.000,0.000,0,2,0,3,7,255,1200,200,0,0,-89.323,0.871,-31.431
EX0521-092111,22,C25,prep,927,927,0,1095979.092,0.686,-0.675,0.196,0.188,0,0,0,0,0,0,0,0,0,0.000,0,0,0.060,0.007,0.020,-0.040,-0.040,0.015,0.994,0.011,0.006,0.004,-0.004,0.000,0.000,0.000,0.000,0,2,0,3,7,255,1200,200,0,0,-89.323,0.871,-31.431
EX0521-092111,22,C25,prep,927,927,0,1095984.091,0.686,-0.675,0.196,0.188,0,0,0,0,0,0,0,0,0,0.000,0,0,0.035,0.007,0.020,0.020,0.020,0.016,0.994,0.011,0.006,0.004,-0.004,0.000,0.000,0.000,0.000,0,2,0,3,7,255,1200,200,0,0,-89.323,0.871,-31.431
EX0521-092111,22,C25,prep,927,927,0,1095989.091,0.686,-0.675,0.196,0.188,0,0,0,0,0,0,0,0,0,0.000,0,0,0.110,0.008,0.020,-0.100,-0.040,0.015,0.995,0.012,0.006,-0.006,-0.004,0.000,0.000,0.000,0.000,0,2,0,3,7,255,1200,200,0,0,-89.323,0.871,-31.431
EX0521-092111,22,C25,prep,927,927,0,1095994.092,0.686,-0.675,0.196,0.188,0,0,0,0,0,0,0,0,0,0.000,0,0,0.049,0.006,0.020,-0.040,0.020,0.014,0.994,0.011,-0.002,-0.006,-0.004,0.000,0.000,0.000,0.000,0,2,0,3,7,255,1200,200,0,0,-89.323,0.871,-31.431
EX0521-092111,22,C25,prep,943,943,0,1095999.092,0.686,-0.675,0.196,0.188,0,0,0,0,0,0,0,0,0,0.000,0,0,0.098,0.004,0.080,-0.040,-0.040,0.015,0.995,0.011,-0.002,0.004,0.006,0.000,0.000,0.000,0.000,0,2,0,3,7,255,1200,200,0,0,-89.323,0.871,-31.431
EX0521-092111,22,C25,prep,943,943,0,1096004.092,0.686,-0.675,0.196,0.188,0,0,0,0,0,0,0,0,0,0.000,0,0,0.049,0.004,0.020,0.020,-0.040,0.014,0.994,0.011,0.000,0.004,-0.004,0.000,0.000,0.000,0.000,0,2,0,3,7,255,1200,200,0,0,-89.323,0.871,-31.431
EX0521-092111,22,C25,prep,975,975,0,1096009.091,0.686,-0.675,0.196,0.188,0,0,0,0,0,0,0,0,0,0.000,0,0,0.049,0.004,0.020,0.020,-0.040,0.015,0.993,0.011,0.004,0.002,-0.004,0.000,0.000,0.000,0.000,0,2,0,3,7,255,1200,200,0,0,-89.323,0.871,-31.431
EX0521-092111,22,C25,prep,975,975,0,1096014.091,0.686,-0.675,0.196,0.188,0,0,0,0,0,0,0,0,0,0.000,0,0,0.049,0.000,0.020,-0.040,0.020,0.014,0.995,0.012,0.000,0.000,-0.004,0.000,0.000,0.000,0.000,0,2,0,3,7,255,1200,200,0,0,-89.323,0.871,-31.431
EX0521-092111,22,C25,prep,975,975,0,1096019.092,0.686,-0.675,0.196,0.188,0,0,0,0,0,0,0,0,0,0.000,0,0,0.092,0.004,0.080,-0.040,0.020,0.015,0.994,0.011,0.004,0.000,-0.004,0.000,0.000,0.000,0.000,0,2,0,3,7,255,1200,200,0,0,-89.323,0.871,-31.431
EX0521-092111,22,C25,prep,975,975,0,1096024.093,0.686,-0.675,0.196,0.188,0,0,0,0,0,0,0,0,0,0.000,0,0,0.069,0.003,-0.040,-0.040,-0.040,0.015,0.994,0.012,0.002,-0.002,0.002,0.000,0.000,0.000,0.000,0,2,0,3,7,255,1200,200,0,0,-89.323,0.871,-31.431
EX0521-092111,22,C25,prep,975,975,0,1096029.092,0.686,-0.675,0.196,0.188,0,0,0,0,0,0,0,0,0,0.000,0,0,0.060,0.008,0.020,-0.040,-0.040,0.015,0.994,0.012,0.006,-0.006,0.002,0.000,0.000,0.000,0.000,0,2,0,3,7,255,1200,200,0,0,-89.323,0.871,-31.431
EX0521-092111,22,C25,prep,975,975,0,1096034.091,0.686,-0.675,0.196,0.188,0,0,0,0,0,0,0,0,0,0.000,0,0,0.060,0.008,-0.040,-0.040,0.020,0.015,0.994,0.012,0.002,-0.008,0.002,0.000,0.000,0.000,0.000,0,2,0,3,7,255,1200,200,0,0,-89.323,0.871,-31.431
EX0521-092111,22,C25,prep,995,995,0,1096039.091,0.686,-0.675,0.196,0.188,0,0,0,0,0,0,0,0,0,0.000,0,0,0.069,0.006,-0.040,-0.040,-0.040,0.014,0.993,0.012,-0.002,-0.006,0.002,0.000,0.000,0.000,0.000,0,2,0,3,7,255,1200,200,0,0,-89.323,0.871,-31.431
EX0521-092111,22,C25,prep,995,995,0,1096044.092,0.686,-0.675,0.196,0.188,0,0,0,0,0,0,0,0,0,0.000,0,0,0.115,0.004,-0.100,-0.040,-0.040,0.014,0.993,0.011,-0.002,-0.004,-0.008,0.000,0.000,0.000,0.000,0,2,0,3,7,255,1200,200,0,0,-89.323,0.871,-31.431
EX0521-092111,22,C25,prep,996,996,0,1096049.092,0.686,-0.675,0.196,0.188,0,0,0,0,0,0,0,0,0,0.000,0,0,0.060,0.006,0.020,-0.040,-0.040,0.014,0.994,0.011,-0.004,0.004,-0.008,0.000,0.000,0.000,0.000,0,2,0,3,7,255,1200,200,0,0,-89.323,0.871,-31.431
EX0521-092111,22,C25,prep,996,996,0,1096054.092,0.686,-0.675,0.196,0.188,0,0,0,0,0,0,0,0,0,0.000,0,0,0.060,0.004,0.020,-0.040,-0.040,0.015,0.995,0.011,-0.002,0.004,0.002,0.000,0.000,0.000,0.000,0,2,0,3,7,255,1200,200,0,0,-89.323,0.871,-31.431
EX0521-092111,22,C25,prep,997,997,0,1096059.091,0.686,-0.675,0.196,0.188,0,0,0,0,0,0,0,0,0,0.000,0,0,0.060,0.007,-0.040,0.020,-0.040,0.015,0.994,0.012,0.006,0.004,0.002,0.000,0.000,0.000,0.000,0,2,0,3,7,255,1200,200,0,0,-89.323,0.871,-31.431
EX0521-092111,22,C25,prep,997,997,0,1096064.092,0.686,-0.675,0.196,0.188,0,0,0,0,0,0,0,0,0,0.000,0,0,0.069,0.007,-0.040,-0.040,-0.040,0.014,0.995,0.011,0.006,0.004,0.006,0.000,0.000,0.000,0.000,0,2,0,3,7,255,1200,200,0,0,-89.323,0.871,-31.431
EX0521-092111,22,C25,prep,1007,1007,0,1096069.092,0.686,-0.675,0.196,0.188,0,0,0,0,0,0,0,0,0,0.000,0,0,0.049,0.003,0.020,-0.040,0.020,0.014,0.994,0.012,-0.002,-0.002,-0.004,0.000,0.000,0.000,0.000,0,2,0,3,7,255,1200,200,0,0,-89.323,0.871,-31.431
EX0521-092111,22,C25,prep,1007,1007,0,1096074.093,0.686,-0.675,0.196,0.188,0,0,0,0,0,0,0,0,0,0.000,0,0,0.069,0.004,-0.040,-0.040,-0.040,0.014,0.995,0.011,-0.002,0.004,0.006,0.000,0.000,0.000,0.000,0,2,0,3,7,255,1200,200,0,0,-89.323,0.871,-31.431
EX0521-092111,22,C25,prep,1023,1023,0,1096079.092,0.686,-0.675,0.196,0.188,0,0,0,0,0,0,0,0,0,0.000,0,0,0.069,0.003,-0.040,-0.040,-0.040,0.014,0.994,0.012,-0.002,-0.002,-0.004,0.000,0.000,0.000,0.000,0,2,0,3,7,255,1200,200,0,0,-89.323,0.871,-31.431
EX0521-092111,22,C25,prep,1023,1023,0,1096084.091,0.686,-0.675,0.196,0.188,0,0,0,0,0,0,0,0,0,0.000,0,0,0.110,0.003,-0.040,-0.100,0.020,0.014,0.994,0.011,-0.002,0.002,0.002,0.000,0.000,0.000,0.000,0,2,0,3,7,255,1200,200,0,0,-89.323,0.871,-31.431
EX0521-092111,22,C25,prep,1039,1039,0,1096089.091,0.686,-0.675,0.196,0.188,0,0,0,0,0,0,0,0,0,0.000,0,0,0.049,0.003,0.020,-0.040,0.020,0.015,0.994,0.012,-0.002,-0.002,-0.004,0.000,0.000,0.000,0.000,0,2,0,3,7,255,1200,200,0,0,-89.323,0.871,-31.431
EX0521-092111,22,C25,prep,1039,1039,0,1096094.092,0.686,-0.675,0.196,0.188,0,0,0,0,0,0,0,0,0,0.000,0,0,0.069,0.002,-0.040,-0.040,-0.040,0.014,0.994,0.011,0.000,0.002,-0.004,0.000,0.000,0.000,0.000,0,2,0,3,7,255,1200,200,0,0,-89.323,0.871,-31.431
EX0521-092111,22,C25,prep,1039,1039,0,1096099.092,0.686,-0.675,0.196,0.188,0,0,0,0,0,0,0,0,0,0.000,0,0,0.049,0.006,0.020,-0.040,0.020,0.015,0.994,0.012,0.000,-0.006,-0.004,0.000,0.000,0.000,0.000,0,2,0,3,7,255,1200,200,0,0,-89.323,0.871,-31.431
EX0521-092111,22,C25,prep,1039,1039,0,1096104.092,0.686,-0.675,0.196,0.188,0,0,0,0,0,0,0,0,0,0.000,0,0,0.049,0.004,0.020,-0.040,0.020,0.015,0.995,0.012,0.002,-0.004,0.002,0.000,0.000,0.000,0.000,0,2,0,3,7,255,1200,200,0,0,-89.323,0.871,-31.431
EX0521-092111,22,C25,prep,1071,1071,0,1096109.091,0.686,-0.675,0.196,0.188,0,0,0,0,0,0,0,0,0,0.000,0,0,0.060,0.006,0.020,-0.040,-0.040,0.015,0.993,0.011,0.004,-0.004,0.002,0.000,0.000,0.000,0.000,0,2,0,3,7,255,1200,200,0,0,-89.323,0.871,-31.431
EX0521-092111,22,C25,prep,1071,1071,0,1096114.091,0.686,-0.675,0.196,0.188,0,0,0,0,0,0,0,0,0,0.000,0,0,0.049,0.004,0.020,-0.040,0.020,0.015,0.994,0.011,0.004,0.000,0.002,0.000,0.000,0.000,0.000,0,2,0,3,7,255,1200,200,0,0,-89.323,0.871,-31.431
EX0521-092111,22,C25,prep,1071,1071,0,1096119.092,0.686,-0.675,0.196,0.188,0,0,0,0,0,0,0,0,0,0.000,0,0,0.049,0.004,0.020,0.020,-0.040,0.013,0.994,0.011,0.004,0.000,0.002,0.000,0.000,0.000,0.000,0,2,0,3,7,255,1200,200,0,0,-89.323,0.871,-31.431
EX0521-092111,22,C25,prep,1071,1071,0,1096124.093,0.686,-0.675,0.196,0.188,0,0,0,0,0,0,0,0,0,0.000,0,0,0.035,0.002,0.020,0.020,0.020,0.014,0.993,0.011,0.000,0.002,0.002,0.000,0.000,0.000,0.000,0,2,0,3,7,255,1200,200,0,0,-89.323,0.871,-31.431
EX0521-092111,22,C25,prep,1071,1071,0,1096129.092,0.686,-0.675,0.196,0.188,0,0,0,0,0,0,0,0,0,0.000,0,0,0.069,0.004,-0.040,-0.040,-0.040,0.015,0.994,0.011,0.000,0.004,0.002,0.000,0.000,0.000,0.000,0,2,0,3,7,255,1200,200,0,0,-89.323,0.871,-31.431
EX0521-092111,22,C25,prep,1071,1071,0,1096134.091,0.686,-0.675,0.196,0.188,0,0,0,0,0,0,0,0,0,0.000,0,0,0.069,0.002,-0.040,-0.040,-0.040,0.013,0.993,0.012,0.000,0.002,-0.008,0.000,0.000,0.000,0.000,0,2,0,3,7,255,1200,200,0,0,-89.323,0.871,-31.431
EX0521-092111,22,C25,prep,1090,1090,0,1096139.091,0.686,-0.675,0.196,0.188,0,0,0,0,0,0,0,0,0,0.000,0,0,0.049,0.003,0.020,-0.040,0.020,0.014,0.995,0.012,-0.002,0.002,0.002,0.000,0.000,0.000,0.000,0,2,0,3,7,255,1200,200,0,0,-89.323,0.871,-31.431
EX0521-092111,22,C25,prep,1090,1090,0,1096144.092,0.686,-0.675,0.196,0.188,0,0,0,0,0,0,0,0,0,0.000,0,0,0.060,0.004,0.020,-0.040,-0.040,0.014,0.994,0.011,-0.004,0.002,-0.004,0.000,0.000,0.000,0.000,0,2,0,3,7,255,1200,200,0,0,-89.323,0.871,-31.431
EX0521-092111,22,C25,prep,1091,1091,0,1096149.092,0.686,-0.675,0.196,0.188,0,0,0,0,0,0,0,0,0,0.000,0,0,0.069,0.004,-0.040,-0.040,-0.040,0.013,0.992,0.012,-0.004,0.002,-0.004,0.000,0.000,0.000,0.000,0,2,0,3,7,255,1200,200,0,0,-89.323,0.871,-31.431
EX0521-092111,22,C25,prep,1091,1091,0,1096154.092,0.686,-0.675,0.196,0.188,0,0,0,0,0,0,0,0,0,0.000,0,0,0.060,0.004,-0.040,-0.040,0.020,0.014,0.993,0.011,-0.004,0.002,-0.008,0.000,0.000,0.000,0.000,0,2,0,3,7,255,1200,200,0,0,-89.323,0.871,-31.431
EX0521-092111,22,C25,prep,1103,1103,0,1096159.091,0.686,-0.675,0.196,0.188,0,0,0,0,0,0,0,0,0,0.000,0,0,0.069,0.002,-0.040,-0.040,-0.040,0.015,0.995,0.012,0.000,0.002,-0.008,0.000,0.000,0.000,0.000,0,2,0,3,7,255,1200,200,0,0,-89.323,0.871,-31.431
EX0521-092111,22,C25,prep,1103,1103,0,1096164.093,0.686,-0.675,0.196,0.188,0,0,0,0,0,0,0,0,0,0.000,0,0,0.060,0.004,-0.040,-0.040,0.020,0.015,0.993,0.012,0.002,-0.004,-0.008,0.000,0.000,0.000,0.000,0,2,0,3,7,255,1200,200,0,0,-89.323,0.871,-31.431
EX0521-092111,22,C25,prep,1103,1103,0,1096169.092,0.686,-0.675,0.196,0.188,0,0,0,0,0,0,0,0,0,0.000,0,0,0.069,0.004,-0.040,-0.040,-0.040,0.014,0.993,0.012,0.002,-0.004,-0.008,0.000,0.000,0.000,0.000,0,2,0,3,7,255,1200,200,0,0,-89.323,0.871,-31.431
EX0521-092111,22,C25,prep,1103,1103,0,1096174.092,0.686,-0.675,0.196,0.188,0,0,0,0,0,0,0,0,0,0.000,0,0,0.069,0.006,-0.040,-0.040,-0.040,0.013,0.993,0.012,-0.006,-0.002,-0.008,0.000,0.000,0.000,0.000,0,2,0,3,7,255,1200,200,0,0,-89.323,0.871,-31.431
EX0521-092111,22,C25,prep,1124,1124,0,1096179.092,0.686,-0.675,0.196,0.188,0,0,0,0,0,0,0,0,0,0.000,0,0,0.049,0.010,0.020,0.020,-0.040,0.014,0.994,0.012,-0.010,-0.002,-0.008,0.000,0.000,0.000,0.000,0,2,0,3,7,255,1200,200,0,0,-89.323,0.871,-31.431
EX0521-092111,22,C25,prep,1124,1124,0,1096184.091,0.686,-0.675,0.196,0.188,0,0,0,0,0,0,0,0,0,0.000,0,0,0.060,0.011,0.020,-0.040,-0.040,0.015,0.993,0.012,-0.010,-0.004,-0.008,0.000,0.000,0.000,0.000,0,2,0,3,7,255,1200,200,0,0,-89.323,0.871,-31.431
EX0521-092111,22,C25,prep,1125,1125,0,1096189.091,0.686,-0.675,0.196,0.188,0,0,0,0,0,0,0,0,0,0.000,0,0,0.060,0.004,0.020,-0.040,-0.040,0.014,0.995,0.011,-0.002,-0.004,-0.002,0.000,0.000,0.000,0.000,0,2,0,3,7,255,1200,200,0,0,-89.323,0.871,-31.431
EX0521-092111,22,C25,prep,1125,1125,0,1096194.092,0.686,-0.675,0.196,0.188,0,0,0,0,0,0,0,0,0,0.000,0,0,0.098,0.008,0.080,-0.040,-0.040,0.013,0.995,0.011,-0.002,0.008,0.006,0.000,0.000,0.000,0.000,0,2,0,3,7,255,1200,200,0,0,-89.323,0.871,-31.431
EX0521-092111,22,C25,prep,1135,1135,0,1096199.092,0.686,-0.675,0.196,0.188,0,0,0,0,0,0,0,0,0,0.000,0,0,0.060,0.008,-0.040,-0.040,0.020,0.015,0.996,0.012,-0.002,0.008,0.006,0.000,0.000,0.000,0.000,0,2,0,3,7,255,1200,200,0,0,-89.323,0.871,-31.431
EX0521-092111,22,C25,prep,1135,1135,0,1096204.092,0.686,-0.675,0.196,0.188,0,0,0,0,0,0,0,0,0,0.000,0,0,0.104,0.006,0.020,-0.100,0.020,0.014,0.994,0.012,-0.006,0.000,0.006,0.000,0.000,0.000,0.000,0,2,0,3,7,255,1200,200,0,0,-89.323,0.871,-31.431
EX0521-092111,22,C25,prep,1154,1154,0,1096209.091,0.686,-0.675,0.196,0.188,0,0,0,0,0,0,0,0,0,0.000,0,0,0.069,0.006,-0.040,-0.040,-0.040,0.014,0.994,0.012,-0.004,-0.004,0.002,0.000,0.000,0.000,0.000,0,2,0,3,7,255,1200,200,0,0,-89.323,0.871,-31.431
EX0521-092111,22,C25,prep,1154,1154,0,1096214.091,0.686,-0.675,0.196,0.188,0,0,0,0,0,0,0,0,0,0.000,0,0,0.049,0.004,0.020,-0.040,0.020,0.014,0.995,0.011,-0.004,0.000,0.002,0.000,0.000,0.000,0.000,0,2,0,3,7,255,1200,200,0,0,-89.323,0.871,-31.431
EX0521-092111,22,C25,prep,1155,1155,0,1096219.092,0.686,-0.675,0.196,0.188,0,0,0,0,0,0,0,0,0,0.000,0,0,0.049,0.003,0.020,-0.040,0.020,0.014,0.994,0.011,-0.002,0.002,0.002,0.000,0.000,0.000,0.000,0,2,0,3,7,255,1200,200,0,0,-89.323,0.871,-31.431
EX0521-092111,22,C25,prep,1155,1155,0,1096224.092,0.686,-0.675,0.196,0.188,0,0,0,0,0,0,0,0,0,0.000,0,0,0.060,0.003,-0.040,-0.040,0.020,0.014,0.994,0.012,-0.002,0.002,0.002,0.000,0.000,0.000,0.000,0,2,0,3,7,255,1200,200,0,0,-89.323,0.871,-31.431
EX0521-092111,22,C25,prep,1195,1195,0,1096229.093,0.686,-0.675,0.196,0.188,0,0,0,0,0,0,0,0,0,0.000,0,0,0.060,0.004,0.020,-0.040,-0.040,0.014,0.992,0.011,-0.004,0.002,0.002,0.000,0.000,0.000,0.000,0,2,0,3,7,255,1200,200,0,0,-89.323,0.871,-31.431
EX0521-092111,22,C25,prep,1195,1195,0,1096234.091,0.686,-0.675,0.196,0.188,0,0,0,0,0,0,0,0,0,0.000,0,0,0.060,0.006,-0.040,-0.040,0.020,0.016,0.994,0.012,-0.004,-0.004,-0.002,0.000,0.000,0.000,0.000,0,2,0,3,7,255,1200,200,0,0,-89.323,0.871,-31.431
EX0521-092111,22,C25,prep,1196,1196,0,1096239.091,0.686,-0.675,0.196,0.188,0,0,0,0,0,0,0,0,0,0.000,0,0,0.060,0.007,0.020,-0.040,-0.040,0.014,0.994,0.012,-0.004,-0.006,-0.002,0.000,0.000,0.000,0.000,0,2,0,3,7,255,1200,200,0,0,-89.323,0.871,-31.431
EX0521-092111,22,C25,prep,1196,1196,0,1096244.092,0.686,-0.675,0.196,0.188,0,0,0,0,0,0,0,0,0,0.000,0,0,0.060,0.007,0.020,-0.040,-0.040,0.014,0.994,0.011,-0.004,-0.006,0.002,0.000,0.000,0.000,0.000,0,2,0,3,7,255,1200,200,0,0,-89.323,0.871,-31.431
EX0521-092111,22,C25,prep,1196,1196,0,1096249.092,0.686,-0.675,0.196,0.188,0,0,0,0,0,0,0,0,0,0.000,0,0,0.110,0.004,-0.040,-0.100,0.020,0.015,0.995,0.011,-0.004,0.000,0.002,0.000,0.000,0.000,0.000,0,2,0,3,7,255,1200,200,0,0,-89.323,0.871,-31.431
EX0521-092111,22,C25,prep,1196,1196,0,1096254.091,0.686,-0.675,0.196,0.188,0,0,0,0,0,0,0,0,0,0.000,0,0,0.049,0.004,-0.040,0.020,0.020,0.016,0.994,0.012,0.004,0.000,0.002,0.000,0.000,0.000,0.000,0,2,0,3,7,255,1200,200,0,0,-89.323,0.871,-31.431
EX0521-092111,22,C25,prep,1197,1197,0,1096259.092,0.686,-0.675,0.196,0.188,0,0,0,0,0,0,0,0,0,0.000,0,0,0.069,0.004,-0.040,-0.040,-0.040,0.014,0.993,0.011,0.004,0.000,-0.002,0.000,0.000,0.000,0.000,0,2,0,3,7,255,1200,200,0,0,-89.323,0.871,-31.431
EX0521-092111,22,C25,prep,1197,1197,0,1096264.092,0.686,-0.675,0.196,0.188,0,0,0,0,0,0,0,0,0,0.000,0,0,0.060,0.012,0.020,-0.040,-0.040,0.016,0.993,0.011,0.010,-0.006,-0.008,0.000,0.000,0.000,0.000,0,2,0,3,7,255,1200,200,0,0,-89.323,0.871,-31.431
EX0521-092111,22,C25,prep,1228,1228,0,1096269.092,0.686,-0.675,0.196,0.188,0,0,0,0,0,0,0,0,0,0.000,0,0,0.060,0.004,0.020,-0.040,-0.040,0.014,0.994,0.011,0.002,0.004,-0.008,0.000,0.000,0.000,0.000,0,2,0,3,7,255,1200,200,0,0,-89.323,0.871,-31.431
EX0521-092111,22,C25,prep,1228,1228,0,1096274.092,0.686,-0.675,0.196,0.188,0,0,0,0,0,0,0,0,0,0.000,0,0,0.110,0.003,0.020,-0.100,-0.040,0.014,0.994,0.011,0.002,0.002,-0.002,0.000,0.000,0.000,0.000,0,2,0,3,7,255,1200,200,0,0,-89.323,0.871,-31.431
EX0521-092111,22,C25,prep,1239,1239,0,1096279.091,0.686,-0.675,0.196,0.188,0,0,0,0,0,0,0,0,0,0.000,0,0,0.060,0.002,0.020,-0.040,-0.040,0.014,0.995,0.012,0.000,0.002,-0.002,0.000,0.000,0.000,0.000,0,2,0,3,7,255,1200,200,0,0,-89.323,0.871,-31.431
EX0521-092111,22,C25,prep,1239,1239,0,1096284.091,0.686,-0.675,0.196,0.188,0,0,0,0,0,0,0,0,0,0.000,0,0,0.060,0.004,-0.040,-0.040,0.020,0.014,0.995,0.012,-0.004,0.000,0.012,0.000,0.000,0.000,0.000,0,2,0,3,7,255,1200,200,0,0,-89.323,0.871,-31.431
EX0521-092111,22,C25,prep,1241,1241,0,1096289.091,0.686,-0.675,0.196,0.188,0,0,0,0,0,0,0,0,0,0.000,0,0,0.035,0.004,0.020,0.020,0.020,0.014,0.995,0.011,-0.004,0.000,0.012,0.000,0.000,0.000,0.000,0,2,0,3,7,255,1200,200,0,0,-89.323,0.871,-31.431
EX0521-092111,22,C25,prep,1241,1241,0,1096294.092,0.686,-0.675,0.196,0.188,0,0,0,0,0,0,0,0,0,0.000,0,0,0.069,0.004,-0.040,-0.040,-0.040,0.014,0.994,0.011,-0.004,0.002,0.006,0.000,0.000,0.000,0.000,0,2,0,3,7,255,1200,200,0,0,-89.323,0.871,-31.431
EX0521-092111,22,C25,prep,1241,1241,0,1096299.092,0.686,-0.675,0.196,0.188,0,0,0,0,0,0,0,0,0,0.000,0,0,0.060,0.002,0.020,-0.040,-0.040,0.015,0.995,0.011,0.000,0.002,0.006,0.000,0.000,0.000,0.000,0,2,0,3,7,255,1200,200,0,0,-89.323,0.871,-31.431
EX0521-092111,22,C25,prep,1241,1241,0,1096304.091,0.686,-0.675,0.196,0.188,0,0,0,0,0,0,0,0,0,0.000,0,0,0.060,0.002,0.020,-0.040,-0.040,0.014,0.994,0.011,0.000,0.002,0.002,0.000,0.000,0.000,0.000,0,2,0,3,7,255,1200,200,0,0,-89.323,0.871,-31.431
EX0521-092111,22,C25,prep,1285,1285,0,1096309.091,0.686,-0.675,0.196,0.188,0,0,0,0,0,0,0,0,0,0.000,0,0,0.049,0.003,0.020,0.020,-0.040,0.014,0.993,0.011,0.002,0.002,0.002,0.000,0.000,0.000,0.000,0,2,0,3,7,255,1200,200,0,0,-89.323,0.871,-31.431
EX0521-092111,22,C25,prep,1285,1285,0,1096314.092,0.686,-0.675,0.196,0.188,0,0,0,0,0,0,0,0,0,0.000,0,0,0.060,0.004,-0.040,-0.040,0.020,0.015,0.993,0.011,0.002,0.004,-0.008,0.000,0.000,0.000,0.000,0,2,0,3,7,255,1200,200,0,0,-89.323,0.871,-31.431
EX0521-092111,22,C25,prep,1285,1285,0,1096319.092,0.686,-0.675,0.196,0.188,0,0,0,0,0,0,0,0,0,0.000,0,0,0.069,0.006,-0.040,-0.040,-0.040,0.014,0.994,0.011,0.002,0.006,-0.008,0.000,0.000,0.000,0.000,0,2,0,3,7,255,1200,200,0,0,-89.323,0.871,-31.431
EX0521-092111,22,C25,prep,1285,1285,0,1096324.092,0.686,-0.675,0.196,0.188,0,0,0,0,0,0,0,0,0,0.000,0,0,0.060,0.004,-0.040,-0.040,0.020,0.014,0.995,0.012,-0.002,0.004,-0.004,0.000,0.000,0.000,0.000,0,2,0,3,7,255,1200,200,0,0,-89.323,0.871,-31.431
EX0521-092111,22,C25,prep,1285,1285,0,1096329.093,0.686,-0.675,0.196,0.188,0,0,0,0,0,0,0,0,0,0.000,0,0,0.110,0.002,0.020,-0.100,-0.040,0.015,0.995,0.012,-0.002,0.000,0.006,0.000,0.000,0.000,0.000,0,2,0,3,7,255,1200,200,0,0,-89.323,0.871,-31.431
EX0521-092111,22,C25,prep,1285,1285,0,1096334.091,0.686,-0.675,0.196,0.188,0,0,0,0,0,0,0,0,0,0.000,0,0,0.110,0.006,0.020,-0.100,-0.040,0.015,0.993,0.011,0.006,0.000,0.006,0.000,0.000,0.000,0.000,0,2,0,3,7,255,1200,200,0,0,-89.323,0.871,-31.431
EX0521-092111,22,C25,prep,1285,1285,0,1096339.092,0.686,-0.675,0.196,0.188,0,0,0,0,0,0,0,0,0,0.000,0,0,0.060,0.007,0.020,-0.040,-0.040,0.013,0.993,0.011,0.006,0.004,-0.008,0.000,0.000,0.000,0.000,0,2,0,3,7,255,1200,200,0,0,-89.323,0.871,-31.431
EX0521-092111,22,C25,prep,1285,1285,0,1096344.092,0.686,-0.675,0.196,0.188,0,0,0,0,0,0,0,0,0,0.000,0,0,0.060,0.007,-0.040,-0.040,0.020,0.016,0.994,0.012,0.006,0.004,-0.008,0.000,0.000,0.000,0.000,0,2,0,3,7,255,1200,200,0,0,-89.323,0.872,-31.431
EX0521-092111,22,C25,prep,1286,1286,0,1096349.092,0.686,-0.675,0.196,0.188,0,0,0,0,0,0,0,0,0,0.000,0,0,0.060,0.004,-0.040,-0.040,0.020,0.015,0.995,0.012,0.002,-0.004,-0.002,0.000,0.000,0.000,0.000,0,2,0,3,7,255,1200,200,0,0,-89.323,0.872,-31.431
EX0521-092111,22,C25,prep,1286,1286,0,1096354.091,0.686,-0.675,0.196,0.188,0,0,0,0,0,0,0,0,0,0.000,0,0,0.060,0.008,0.020,-0.040,-0.040,0.015,0.993,0.012,0.002,-0.008,-0.002,0.000,0.000,0.000,0.000,0,2,0,3,7,255,1200,200,0,0,-89.323,0.872,-31.431
EX0521-092111,22,C25,prep,1295,1295,0,1096359.092,0.686,-0.675,0.196,0.188,0,0,0,0,0,0,0,0,0,0.000,0,0,0.069,0.008,-0.040,0.040,-0.040,0.015,0.993,0.012,0.000,-0.008,-0.008,0.000,0.000,0.000,0.000,0,2,0,3,7,255,1200,200,0,0,-89.323,0.872,-31.431
EX0521-092111,22,C25,prep,1295,1295,0,1096364.093,0.686,-0.675,0.196,0.188,0,0,0,0,0,0,0,0,0,0.000,0,0,0.060,0.008,0.020,-0.040,-0.040,0.015,0.993,0.011,0.000,-0.008,-0.008,0.000,0.000,0.000,0.000,0,2,0,3,7,255,1200,200,0,0,-89.323,0.872,-31.431
EX0521-092111,22,C25,prep,1317,1317,0,1096369.092,0.686,-0.675,0.196,0.188,0,0,0,0,0,0,0,0,0,0.000,0,0,0.110,0.008,0.020,-0.100,-0.040,0.015,0.995,0.012,0.000,-0.008,-0.008,0.000,0.000,0.000,0.000,0,2,0,3,7,255,1200,200,0,0,-89.323,0.872,-31.431
EX0521-092111,22,C25,prep,1317,1317,0,1096374.092,0.686,-0.675,0.196,0.188,0,0,0,0,0,0,0,0,0,0.000,0,0,0.049,0.008,0.020,-0.040,0.020,0.015,0.994,0.012,0.006,-0.006,-0.002,0.000,0.000,0.000,0.000,0,2,0,3,7,255,1200,200,0,0,-89.323,0.872,-31.431
EX0521-092111,22,C25,prep,1317,1317,0,1096379.092,0.686,-0.675,0.196,0.188,0,0,0,0,0,0,0,0,0,0.000,0,0,0.060,0.006,0.020,-0.040,-0.040,0.013,0.994,0.010,-0.002,-0.006,0.002,0.000,0.000,0.000,0.000,0,2,0,3,7,255,1200,200,0,0,-89.323,0.872,-31.431
EX0521-092111,22,C25,prep,1317,1317,0,1096384.091,0.686,-0.675,0.196,0.188,0,0,0,0,0,0,0,0,0,0.000,0,0,0.069,0.007,-0.040,-0.040,-0.040,0.014,0.993,0.013,-0.004,-0.006,-0.002,0.000,0.000,0.000,0.000,0,2,0,3,7,255,1200,200,0,0,-89.323,0.872,-31.431
EX0521-092111,22,C25,prep,1327,1327,0,1096389.092,0.686,-0.675,0.196,0.188,0,0,0,0,0,0,0,0,0,0.000,0,0,0.060,0.006,0.020,0.040,-0.040,0.014,0.995,0.011,-0.004,0.004,0.002,0.000,0.000,0.000,0.000,0,2,0,3,7,255,1200,200,0,0,-89.323,0.872,-31.431
EX0521-092111,22,C25,prep,1327,1327,0,1096394.092,0.686,-0.675,0.196,0.188,0,0,0,0,0,0,0,0,0,0.000,0,0,0.060,0.009,0.020,-0.040,-0.040,0.013,0.993,0.011,-0.008,0.004,-0.008,0.000,0.000,0.000,0.000,0,2,0,3,7,255,1200,200,0,0,-89.323,0.872,-31.431
EX0521-092111,22,C25,prep,1343,1343,0,1096399.092,0.686,-0.675,0.196,0.188,0,0,0,0,0,0,0,0,0,0.000,0,0,0.060,0.010,-0.040,0.040,0.020,0.013,0.994,0.011,-0.008,0.006,0.002,0.000,0.000,0.000,0.000,0,2,0,3,7,255,1200,200,0,0,-89.323,0.872,-31.431
EX0521-092111,22,C25,prep,1343,1343,0,1096404.091,0.686,-0.675,0.196,0.188,0,0,0,0,0,0,0,0,0,0.000,0,0,0.060,0.010,0.020,-0.040,-0.040,0.014,0.993,0.011,-0.008,0.006,-0.008,0.000,0.000,0.000,0.000,0,2,0,3,7,255,1200,200,0,0,-89.323,0.872,-31.431
EX0521-092111,22,C25,prep,1375,1375,0,1096409.091,0.686,-0.675,0.196,0.188,0,0,0,0,0,0,0,0,0,0.000,0,0,0.060,0.006,0.020,-0.040,-0.040,0.015,0.995,0.012,-0.004,0.004,0.002,0.000,0.000,0.000,0.000,0,2,0,3,7,255,1200,200,0,0,-89.323,0.872,-31.431
EX0521-092111,22,C25,prep,1375,1375,0,1096414.092,0.686,-0.675,0.196,0.188,0,0,0,0,0,0,0,0,0,0.000,0,0,0.069,0.002,-0.040,-0.040,-0.040,0.014,0.993,0.011,0.000,0.002,-0.008,0.000,0.000,0.000,0.000,0,2,0,3,7,255,1200,200,0,0,-89.323,0.872,-31.431
EX0521-092111,22,C25,prep,1375,1375,0,1096419.092,0.686,-0.675,0.196,0.188,0,0,0,0,0,0,0,0,0,0.000,0,0,0.060,0.000,-0.040,-0.040,0.020,0.015,0.994,0.011,0.000,0.000,0.002,0.000,0.000,0.000,0.000,0,2,0,3,7,255,1200,200,0,0,-89.323,0.872,-31.431
EX0521-092111,22,C25,prep,1375,1375,0,1096424.093,0.686,-0.675,0.196,0.188,0,0,0,0,0,0,0,0,0,0.000,0,0,0.069,0.004,-0.040,0.040,-0.040,0.014,0.994,0.010,0.004,0.002,0.002,0.000,0.000,0.000,0.000,0,2,0,3,7,255,1200,200,0,0,-89.323,0.872,-31.431
EX0521-092111,22,C25,prep,1375,1375,0,1096429.091,0.686,-0.675,0.196,0.188,0,0,0,0,0,0,0,0,0,0.000,0,0,0.060,0.004,0.020,-0.040,-0.040,0.014,0.994,0.011,0.004,0.002,0.002,0.000,0.000,0.000,0.000,0,2,0,3,7,255,1200,200,0,0,-89.323,0.872,-31.431
EX0521-092111,22,C25,prep,1375,1375,0,1096434.091,0.686,-0.675,0.196,0.188,0,0,0,0,0,0,0,0,0,0.000,0,0,0.069,0.002,-0.040,-0.040,-0.040,0.014,0.995,0.012,0.000,0.002,0.002,0.000,0.000,0.000,0.000,0,2,0,3,7,255,1200,200,0,0,-89.323,0.872,-31.431
EX0521-092111,22,C25,prep,1394,1394,0,1096439.092,0.686,-0.675,0.196,0.188,0,0,0,0,0,0,0,0,0,0.000,0,0,0.049,0.000,0.020,-0.040,0.020,0.015,0.994,0.011,0.000,0.000,0.002,0.000,0.000,0.000,0.000,0,2,0,3,7,255,1200,200,0,0,-89.323,0.872,-31.431
EX0521-092111,22,C25,prep,1394,1394,0,1096444.092,0.686,-0.675,0.196,0.188,0,0,0,0,0,0,0,0,0,0.000,0,0,0.069,0.003,-0.040,-0.040,-0.040,0.015,0.994,0.012,0.002,-0.002,0.002,0.000,0.000,0.000,0.000,0,2,0,3,7,255,1200,200,0,0,-89.323,0.872,-31.431
EX0521-092111,22,C25,prep,1395,1395,0,1096449.092,0.686,-0.675,0.196,0.188,0,0,0,0,0,0,0,0,0,0.000,0,0,0.060,0.004,0.020,-0.040,-0.040,0.014,0.994,0.012,0.002,-0.004,0.002,0.000,0.000,0.000,0.000,0,2,0,3,7,255,1200,200,0,0,-89.323,0.872,-31.431
EX0521-092111,22,C25,prep,1395,1395,0,1096454.091,0.686,-0.675,0.196,0.188,0,0,0,0,0,0,0,0,0,0.000,0,0,0.060,0.004,0.020,-0.040,-0.040,0.014,0.994,0.011,0.000,-0.004,0.002,0.000,0.000,0.000,0.000,0,2,0,3,7,255,1200,200,0,0,-89.323,0.872,-31.431
EX0521-092111,22,C25,prep,1395,1395,0,1096459.091,0.686,-0.675,0.196,0.188,0,0,0,0,0,0,0,0,0,0.000,0,0,0.069,0.006,-0.040,-0.040,-0.040,0.014,0.996,0.012,-0.006,0.000,0.002,0.000,0.000,0.000,0.000,0,2,0,3,7,255,1200,200,0,0,-89.323,0.872,-31.431
EX0521-092111,22,C25,prep,1395,1395,0,1096464.092,0.686,-0.675,0.196,0.188,0,0,0,0,0,0,0,0,0,0.000,0,0,0.049,0.002,0.020,-0.040,0.020,0.014,0.993,0.011,0.000,0.002,0.002,0.000,0.000,0.000,0.000,0,2,0,3,7,255,1200,200,0,0,-89.323,0.872,-31.431
EX0521-092111,22,C25,prep,1407,1407,0,1096469.092,0.686,-0.675,0.196,0.188,0,0,0,0,0,0,0,0,0,0.000,0,0,0.115,0.000,-0.040,-0.040,-0.100,0.015,0.993,0.012,0.000,0.000,-0.008,0.000,0.000,0.000,0.000,0,2,0,3,7,255,1200,200,0,0,-89.323,0.872,-31.431
EX0521-092111,22,C25,prep,1407,1407,0,1096474.092,0.686,-0.675,0.196,0.188,0,0,0,0,0,0,0,0,0,0.000,0,0,0.060,0.002,0.020,-0.040,-0.040,0.014,0.994,0.011,0.000,0.002,-0.008,0.000,0.000,0.000,0.000,0,2,0,3,7,255,1200,200,0,0,-89.323,0.872,-31.431
EX0521-092111,22,C25,prep,1423,1423,0,1096479.091,0.686,-0.675,0.196,0.188,0,0,0,0,0,0,0,0,0,0.000,0,0,0.049,0.004,0.020,-0.040,0.020,0.015,0.995,0.011,0.004,0.002,-0.002,0.000,0.000,0.000,0.000,0,2,0,3,7,255,1200,200,0,0,-89.323,0.872,-31.431
EX0521-092111,22,C25,prep,1423,1423,0,1096484.091,0.686,-0.675,0.196,0.188,0,0,0,0,0,0,0,0,0,0.000,0,0,0.069,0.002,-0.040,-0.040,-0.040,0.014,0.994,0.012,0.000,0.002,0.002,0.000,0.000,0.000,0.000,0,2,0,3,7,255,1200,200,0,0,-89.323,0.872,-31.431
EX0521-092111,22,C25,prep,1423,1423,0,1096489.092,0.686,-0.675,0.196,0.188,0,0,0,0,0,0,0,0,0,0.000,0,0,0.104,0.006,0.020,-0.100,0.020,0.014,0.993,0.012,-0.006,0.000,0.002,0.000,0.000,0.000,0.000,0,2,0,3,7,255,1200,200,0,0,-89.323,0.872,-31.431
EX0521-092111,22,C25,prep,1423,1423,0,1096494.092,0.686,-0.675,0.196,0.188,0,0,0,0,0,0,0,0,0,0.000,0,0,0.049,0.006,-0.040,0.020,0.020,0.015,0.994,0.012,-0.006,0.000,-0.002,0.000,0.000,0.000,0.000,0,2,0,3,7,255,1200,200,0,0,-89.323,0.872,-31.431
EX0521-092111,22,C25,prep,1439,1439,0,1096499.092,0.686,-0.675,0.196,0.188,0,0,0,0,0,0,0,0,0,0.000,0,0,0.060,0.002,0.020,-0.040,-0.040,0.014,0.995,0.011,0.002,0.000,-0.002,0.000,0.000,0.000,0.000,0,2,0,3,7,255,1200,200,0,0,-89.323,0.872,-31.431
EX0521-092111,22,C25,prep,1439,1439,0,1096504.091,0.686,-0.675,0.196,0.188,0,0,0,0,0,0,0,0,0,0.000,0,0,0.049,0.004,0.020,-0.040,0.020,0.014,0.996,0.011,0.002,0.004,0.012,0.000,0.000,0.000,0.000,0,2,0,3,7,255,1200,200,0,0,-89.323,0.872,-31.431
EX0521-092111,22,C25,prep,1471,1471,0,1096509.091,0.686,-0.675,0.196,0.188,0,0,0,0,0,0,0,0,0,0.000,0,0,0.060,0.006,0.020,-0.040,-0.040,0.014,0.994,0.011,0.002,0.006,0.012,0.000,0.000,0.000,0.000,0,2,0,3,7,255,1200,200,0,0,-89.323,0.872,-31.431
EX0521-092111,22,C25,prep,1471,1471,0,1096514.092,0.686,-0.675,0.196,0.188,0,0,0,0,0,0,0,0,0,0.000,0,0,0.060,0.004,0.020,-0.040,-0.040,0.015,0.994,0.012,0.002,0.004,0.002,0.000,0.000,0.000,0.000,0,2,0,3,7,255,1200,200,0,0,-89.323,0.872,-31.431
EX0521-092111,22,C25,prep,1471,1471,0,1096519.092,0.686,-0.675,0.196,0.188,0,0,0,0,0,0,0,0,0,0.000,0,0,0.115,0.004,-0.040,-0.040,-0.100,0.015,0.994,0.011,0.002,0.004,0.002,0.000,0.000,0.000,0.000,0,2,0,3,7,255,1200,200,0,0,-89.323,0.872,-31.431
EX0521-092111,22,C25,prep,1471,1471,0,1096524.093,0.686,-0.675,0.196,0.188,0,0,0,0,0,0,0,0,0,0.000,0,0,0.060,0.007,0.020,-0.040,-0.040,0.014,0.994,0.010,0.006,0.004,0.002,0.000,0.000,0.000,0.000,0,2,0,3,7,255,1200,200,0,0,-89.323,0.872,-31.431
EX0521-092111,22,C25,prep,1471,1471,0,1096529.091,0.686,-0.675,0.196,0.188,0,0,0,0,0,0,0,0,0,0.000,0,0,0.069,0.010,-0.040,-0.040,-0.040,0.014,0.994,0.011,0.006,0.008,0.002,0.000,0.000,0.000,0.000,0,2,0,3,7,255,1200,200,0,0,-89.323,0.872,-31.431
EX0521-092111,22,C25,prep,1471,1471,0,1096534.091,0.686,-0.675,0.196,0.188,0,0,0,0,0,0,0,0,0,0.000,0,0,0.060,0.008,0.020,-0.040,-0.040,0.014,0.994,0.012,-0.002,0.008,0.002,0.000,0.000,0.000,0.000,0,2,0,3,7,255,1200,200,0,0,-89.323,0.872,-31.431
EX0521-092111,22,C25,prep,1493,1493,0,1096539.092,0.686,-0.675,0.196,0.188,0,0,0,0,0,0,0,0,0,0.000,0,0,0.060,0.004,-0.040,-0.040,0.020,0.014,0.993,0.012,-0.004,0.000,-0.004,0.000,0.000,0.000,0.000,0,2,0,3,7,255,1200,200,0,0,-89.323,0.872,-31.431
EX0521-092111,22,C25,prep,1493,1493,0,1096544.092,0.686,-0.675,0.196,0.188,0,0,0,0,0,0,0,0,0,0.000,0,0,0.069,0.006,-0.040,-0.040,-0.040,0.015,0.994,0.012,-0.004,-0.004,-0.004,0.000,0.000,0.000,0.000,0,2,0,3,7,255,1200,200,0,0,-89.323,0.872,-31.431
EX0521-092111,22,C25,prep,1494,1494,0,1096549.092,0.686,-0.675,0.196,0.188,0,0,0,0,0,0,0,0,0,0.000,0,0,0.060,0.002,-0.040,-0.040,0.020,0.015,0.995,0.010,0.002,0.000,0.002,0.000,0.000,0.000,0.000,0,2,0,3,7,255,1200,200,0,0,-89.323,0.872,-31.431
EX0521-092111,22,C25,prep,1494,1494,0,1096554.091,0.686,-0.675,0.196,0.188,0,0,0,0,0,0,0,0,0,0.000,0,0,0.069,0.006,-0.040,-0.040,-0.040,0.013,0.995,0.011,0.002,0.006,0.006,0.000,0.000,0.000,0.000,0,2,0,3,7,255,1200,200,0,0,-89.323,0.872,-31.431
EX0521-092111,22,C25,prep,1495,1495,0,1096559.094,0.686,-0.675,0.196,0.188,0,0,0,0,0,0,0,0,0,0.000,0,0,0.049,0.007,0.020,-0.040,0.020,0.015,0.994,0.011,0.004,0.006,0.006,0.000,0.000,0.000,0.000,0,2,0,3,7,255,1200,200,0,0,-89.323,0.872,-31.431
EX0521-092111,22,C25,prep,1495,1495,0,1096564.092,0.686,-0.675,0.196,0.188,0,0,0,0,0,0,0,0,0,0.000,0,0,0.060,0.004,-0.040,-0.040,0.020,0.015,0.994,0.012,0.004,0.000,0.002,0.000,0.000,0.000,0.000,0,2,0,3,7,255,1200,200,0,0,-89.323,0.872,-31.431
EX0521-092111,22,C25,prep,1527,1527,0,1096569.092,0.686,-0.675,0.196,0.188,0,0,0,0,0,0,0,0,0,0.000,0,0,0.060,0.004,0.020,-0.040,-0.040,0.014,0.994,0.012,0.004,0.000,0.002,0.000,0.000,0.000,0.000,0,2,0,3,7,255,1200,200,0,0,-89.323,0.872,-31.431
EX0521-092111,22,C25,prep,1527,1527,0,1096574.092,0.686,-0.675,0.196,0.188,0,0,0,0,0,0,0,0,0,0.000,0,0,0.035,0.006,0.020,0.020,0.020,0.013,0.996,0.011,-0.006,0.000,0.002,0.000,0.000,0.000,0.000,0,2,0,3,7,255,1200,200,0,0,-89.323,0.872,-31.431
EX0521-092111,22,C25,prep,1528,1528,0,1096579.091,0.686,-0.675,0.196,0.188,0,0,0,0,0,0,0,0,0,0.000,0,0,0.060,0.007,0.020,-0.040,-0.040,0.014,0.994,0.011,-0.006,0.004,0.002,0.000,0.000,0.000,0.000,0,2,0,3,7,255,1200,200,0,0,-89.323,0.872,-31.431
EX0521-092111,22,C25,prep,1528,1528,0,1096584.091,0.686,-0.675,0.196,0.188,0,0,0,0,0,0,0,0,0,0.000,0,0,0.049,0.007,0.020,-0.040,0.020,0.014,0.994,0.012,-0.006,0.004,0.002,0.000,0.000,0.000,0.000,0,2,0,3,7,255,1200,200,0,0,-89.323,0.872,-31.431
EX0521-092111,22,C25,prep,1529,1529,0,1096589.092,0.686,-0.675,0.196,0.188,0,0,0,0,0,0,0,0,0,0.000,0,0,0.035,0.006,0.020,0.020,0.020,0.014,0.994,0.013,-0.006,0.000,0.002,0.000,0.000,0.000,0.000,0,2,0,3,7,255,1200,200,0,0,-89.323,0.872,-31.431
EX0521-092111,22,C25,prep,1529,1529,0,1096594.092,0.686,-0.675,0.196,0.188,0,0,0,0,0,0,0,0,0,0.000,0,0,0.060,0.009,0.020,-0.040,-0.040,0.014,0.995,0.012,-0.008,-0.004,0.002,0.000,0.000,0.000,0.000,0,2,0,3,7,255,1200,200,0,0,-89.323,0.872,-31.431
EX0521-092111,22,C25,prep,1536,1536,0,1096599.092,0.686,-0.675,0.196,0.188,0,0,0,0,0,0,0,0,0,0.000,0,0,0.060,0.009,0.020,-0.040,-0.040,0.014,0.994,0.011,-0.008,-0.004,0.002,0.000,0.000,0.000,0.000,0,2,0,3,7,255,1200,200,0,0,-89.323,0.872,-31.431
EX0521-092111,22,C25,prep,1536,1536,0,1096604.091,0.686,-0.675,0.196,0.188,0,0,0,0,0,0,0,0,0,0.000,0,0,0.060,0.002,0.020,-0.040,-0.040,0.015,0.992,0.010,0.000,0.002,0.002,0.000,0.000,0.000,0.000,0,2,0,3,7,255,1200,200,0,0,-89.323,0.872,-31.431
EX0521-092111,22,C25,prep,1567,1567,0,1096609.091,0.686,-0.675,0.196,0.188,0,0,0,0,0,0,0,0,0,0.000,0,0,0.060,0.004,0.020,-0.040,-0.040,0.015,0.994,0.011,0.004,0.002,-0.004,0.000,0.000,0.000,0.000,0,2,0,3,7,255,1200,200,0,0,-89.323,0.872,-31.431
EX0521-092111,22,C25,prep,1567,1567,0,1096614.092,0.686,-0.675,0.196,0.188,0,0,0,0,0,0,0,0,0,0.000,0,0,0.060,0.004,0.020,-0.040,-0.040,0.013,0.995,0.012,0.004,0.000,-0.004,0.000,0.000,0.000,0.000,0,2,0,3,7,255,1200,200,0,0,-89.323,0.872,-31.431
EX0521-092111,22,C25,prep,1567,1567,0,1096619.092,0.686,-0.675,0.196,0.188,0,0,0,0,0,0,0,0,0,0.000,0,0,0.069,0.003,-0.040,-0.040,-0.040,0.014,0.996,0.012,-0.002,-0.002,0.010,0.000,0.000,0.000,0.000,0,2,0,3,7,255,1200,200,0,0,-89.323,0.872,-31.431
EX0521-092111,22,C25,prep,1567,1567,0,1096624.093,0.686,-0.675,0.196,0.188,0,0,0,0,0,0,0,0,0,0.000,0,0,0.060,0.003,0.020,-0.040,-0.040,0.014,0.993,0.010,-0.002,-0.002,0.010,0.000,0.000,0.000,0.000,0,2,0,3,7,255,1200,200,0,0,-89.323,0.872,-31.431
EX0521-092111,22,C25,prep,1567,1567,0,1096629.091,0.686,-0.675,0.196,0.188,0,0,0,0,0,0,0,0,0,0.000,0,0,0.049,0.002,0.020,-0.040,0.020,0.015,0.994,0.011,0.002,0.000,-0.004,0.000,0.000,0.000,0.000,0,2,0,3,7,255,1200,200,0,0,-89.323,0.872,-31.431
EX0521-092111,22,C25,prep,1567,1567,0,1096634.091,0.686,-0.675,0.196,0.188,0,0,0,0,0,0,0,0,0,0.000,0,0,0.069,0.004,-0.040,-0.040,-0.040,0.015,0.995,0.012,0.004,0.000,-0.004,0.000,0.000,0.000,0.000,0,2,0,3,7,255,1200,200,0,0,-89.323,0.872,-31.431
EX0521-092111,22,C25,prep,1592,1592,0,1096639.092,0.686,-0.675,0.196,0.188,0,0,0,0,0,0,0,0,0,0.000,0,0,0.110,0.004,0.020,-0.100,-0.040,0.014,0.994,0.012,0.004,-0.002,-0.004,0.000,0.000,0.000,0.000,0,2,0,3,7,255,1200,200,0,0,-89.323,0.872,-31.431
EX0521-092111,22,C25,prep,1592,1592,0,1096644.092,0.686,-0.675,0.196,0.188,0,0,0,0,0,0,0,0,0,0.000,0,0,0.060,0.009,0.020,-0.040,-0.040,0.015,0.995,0.012,0.004,-0.008,0.006,0.000,0.000,0.000,0.000,0,2,0,3,7,255,1200,200,0,0,-89.323,0.872,-31.431
EX0521-092111,22,C25,prep,1593,1593,0,1096649.092,0.686,-0.675,0.196,0.188,0,0,0,0,0,0,0,0,0,0.000,0,0,0.069,0.006,-0.040,-0.040,-0.040,0.015,0.994,0.011,0.006,-0.002,-0.004,0.000,0.000,0.000,0.000,0,2,0,3,7,255,1200,200,0,0,-89.323,0.872,-31.431
EX0521-092111,22,C25,prep,1593,1593,0,1096654.091,0.686,-0.675,0.196,0.188,0,0,0,0,0,0,0,0,0,0.000,0,0,0.115,0.010,-0.040,-0.040,-0.100,0.014,0.994,0.013,0.006,-0.008,-0.004,0.000,0.000,0.000,0.000,0,2,0,3,7,255,1200,200,0,0,-89.323,0.872,-31.431
EX0521-092111,22,C25,prep,1599,1599,0,1096659.091,0.686,-0.675,0.196,0.188,0,0,0,0,0,0,0,0,0,0.000,0,0,0.049,0.004,0.020,0.020,-0.040,0.015,0.995,0.012,0.002,-0.004,-0.004,0.000,0.000,0.000,0.000,0,2,0,3,7,255,1200,200,0,0,-89.323,0.872,-31.431
EX0521-092111,22,C25,prep,1599,1599,0,1096664.092,0.686,-0.675,0.196,0.188,0,0,0,0,0,0,0,0,0,0.000,0,0,0.069,0.013,-0.040,-0.040,-0.040,0.013,0.995,0.011,-0.012,-0.004,0.006,0.000,0.000,0.000,0.000,0,2,0,3,7,255,1200,200,0,0,-89.323,0.872,-31.431
EX0521-092111,22,C25,prep,1623,1623,0,1096669.092,0.686,-0.675,0.196,0.188,0,0,0,0,0,0,0,0,0,0.000,0,0,0.060,0.010,-0.040,0.020,-0.040,0.013,0.995,0.010,0.000,0.010,0.006,0.000,0.000,0.000,0.000,0,2,0,3,7,255,1200,200,0,0,-89.323,0.872,-31.431
EX0521-092111,22,C25,prep,1623,1623,0,1096674.092,0.686,-0.675,0.196,0.188,0,0,0,0,0,0,0,0,0,0.000,0,0,0.060,0.010,-0.040,0.020,-0.040,0.015,0.995,0.011,0.000,0.010,0.006,0.000,0.000,0.000,0.000,0,2,0,3,7,255,1200,200,0,0,-89.323,0.872,-31.431
EX0521-092111,22,C25,prep,1624,1624,0,1096679.091,0.686,-0.675,0.196,0.188,0,0,0,0,0,0,0,0,0,0.000,0,0,0.060,0.004,0.020,-0.040,-0.040,0.014,0.993,0.011,0.000,0.004,0.006,0.000,0.000,0.000,0.000,0,2,0,3,7,255,1200,200,0,0,-89.323,0.872,-31.431
EX0521-092111,22,C25,prep,1624,1624,0,1096684.091,0.686,-0.675,0.196,0.188,0,0,0,0,0,0,0,0,0,0.000,0,0,0.060,0.004,0.020,-0.040,-0.040,0.014,0.994,0.011,-0.002,0.004,0.000,0.000,0.000,0.000,0.000,0,2,0,3,7,255,1200,200,0,0,-89.323,0.872,-31.431
EX0521-092111,22,C25,prep,1631,1631,0,1096689.092,0.686,-0.675,0.196,0.188,0,0,0,0,0,0,0,0,0,0.000,0,0,0.060,0.006,0.020,-0.040,-0.040,0.014,0.994,0.011,-0.004,0.004,-0.004,0.000,0.000,0.000,0.000,0,2,0,3,7,255,1200,200,0,0,-89.323,0.872,-31.431
EX0521-092111,22,C25,prep,1631,1631,0,1096694.092,0.686,-0.675,0.196,0.188,0,0,0,0,0,0,0,0,0,0.000,0,0,0.069,0.004,-0.040,-0.040,-0.040,0.015,0.993,0.011,-0.002,0.004,-0.004,0.000,0.000,0.000,0.000,0,2,0,3,7,255,1200,200,0,0,-89.323,0.872,-31.431
EX0521-092111,22,C25,prep,1652,1652,0,1096699.092,0.686,-0.675,0.196,0.188,0,0,0,0,0,0,0,0,0,0.000,0,0,0.069,0.004,-0.040,-0.040,-0.040,0.014,0.995,0.011,0.002,0.004,-0.004,0.000,0.000,0.000,0.000,0,2,0,3,7,255,1200,200,0,0,-89.323,0.872,-31.431
EX0521-092111,22,C25,prep,1652,1652,0,1096704.091,0.686,-0.675,0.196,0.188,0,0,0,0,0,0,0,0,0,0.000,0,0,0.049,0.004,-0.040,0.020,0.020,0.015,0.994,0.011,0.004,-0.002,-0.004,0.000,0.000,0.000,0.000,0,2,0,3,7,255,1200,200,0,0,-89.323,0.872,-31.431
EX0521-092111,22,C25,prep,1663,1663,0,1096709.091,0.686,-0.675,0.196,0.188,0,0,0,0,0,0,0,0,0,0.000,0,0,0.060,0.004,-0.040,-0.040,0.020,0.015,0.994,0.011,0.004,0.000,0.002,0.000,0.000,0.000,0.000,0,2,0,3,7,255,1200,200,0,0,-89.323,0.872,-31.431
EX0521-092111,22,C25,prep,1663,1663,0,1096714.092,0.686,-0.675,0.196,0.188,0,0,0,0,0,0,0,0,0,0.000,0,0,0.060,0.004,0.020,-0.040,-0.040,0.014,0.994,0.011,0.004,0.000,0.002,0.000,0.000,0.000,0.000,0,2,0,3,7,255,1200,200,0,0,-89.323,0.872,-31.431
EX0521-092111,22,C25,prep,1663,1663,0,1096719.092,0.686,-0.675,0.196,0.188,0,0,0,0,0,0,0,0,0,0.000,0,0,0.104,0.002,0.020,-0.100,0.020,0.015,0.994,0.012,0.002,0.000,0.002,0.000,0.000,0.000,0.000,0,2,0,3,7,255,1200,200,0,0,-89.323,0.872,-31.431
EX0521-092111,22,C25,prep,1663,1663,0,1096724.093,0.686,-0.675,0.196,0.188,0,0,0,0,0,0,0,0,0,0.000,0,0,0.060,0.006,-0.040,-0.040,0.020,0.014,0.996,0.010,0.002,0.006,0.002,0.000,0.000,0.000,0.000,0,2,0,3,7,255,1200,200,0,0,-89.323,0.872,-31.431
EX0521-092111,22,C25,prep,1687,1687,0,1096729.091,0.686,-0.675,0.196,0.188,0,0,0,0,0,0,0,0,0,0.000,0,0,0.060,0.002,0.020,-0.040,-0.040,0.015,0.995,0.011,0.002,0.000,0.006,0.000,0.000,0.000,0.000,0,2,0,3,7,255,1200,200,0,0,-89.323,0.872,-31.431
EX0521-092111,22,C25,prep,1687,1687,0,1096734.091,0.686,-0.675,0.196,0.188,0,0,0,0,0,0,0,0,0,0.000,0,0,0.069,0.004,-0.040,-0.040,-0.040,0.013,0.993,0.012,0.002,0.004,0.006,0.000,0.000,0.000,0.000,0,2,0,3,7,255,1200,200,0,0,-89.323,0.872,-31.431
EX0521-092111,22,C25,prep,1687,1687,0,1096739.092,0.686,-0.675,0.196,0.188,0,0,0,0,0,0,0,0,0,0.000,0,0,0.060,0.008,0.020,-0.040,-0.040,0.015,0.994,0.011,0.008,0.000,-0.004,0.000,0.000,0.000,0.000,0,2,0,3,7,255,1200,200,0,0,-89.323,0.872,-31.431
EX0521-092111,22,C25,prep,1687,1687,0,1096744.092,0.686,-0.675,0.196,0.188,0,0,0,0,0,0,0,0,0,0.000,0,0,0.115,0.003,-0.100,-0.040,-0.040,0.014,0.994,0.012,-0.002,-0.002,-0.004,0.000,0.000,0.000,0.000,0,2,0,3,7,255,1200,200,0,0,-89.323,0.872,-31.431
EX0521-092111,22,C25,prep,1688,1688,0,1096749.092,0.686,-0.675,0.196,0.188,0,0,0,0,0,0,0,0,0,0.000,0,0,0.060,0.002,0.020,-0.040,-0.040,0.014,0.994,0.011,0.000,-0.002,-0.004,0.000,0.000,0.000,0.000,0,2,0,3,7,255,1200,200,0,0,-89.323,0.872,-31.431
EX0521-092111,22,C25,prep,1688,1688,0,1096754.091,0.686,-0.675,0.196,0.188,0,0,0,0,0,0,0,0,0,0.000,0,0,0.060,0.000,-0.040,0.020,-0.040,0.015,0.995,0.011,0.000,0.000,-0.004,0.000,0.000,0.000,0.000,0,2,0,3,7,255,1200,200,0,0,-89.323,0.872,-31.431
EX0521-092111,22,C25,prep,1695,1695,0,1096759.093,0.686,-0.675,0.196,0.188,0,0,0,0,0,0,0,0,0,0.000,0,0,0.049,0.000,0.020,-0.040,0.020,0.015,0.994,0.012,0.000,0.000,-0.004,0.000,0.000,0.000,0.000,0,2,0,3,7,255,1200,200,0,0,-89.323,0.872,-31.431
EX0521-092111,22,C25,prep,1695,1695,0,1096764.092,0.686,-0.675,0.196,0.188,0,0,0,0,0,0,0,0,0,0.000,0,0,0.049,0.011,0.020,-0.040,0.020,0.015,0.994,0.012,0.004,-0.010,-0.004,0.000,0.000,0.000,0.000,0,2,0,3,7,255,1200,200,0,0,-89.323,0.872,-31.431
EX0521-092111,22,C25,prep,1729,1729,0,1096769.092,0.686,-0.675,0.196,0.188,0,0,0,0,0,0,0,0,0,0.000,0,0,0.049,0.010,0.020,-0.040,0.020,0.013,0.994,0.011,0.000,-0.010,-0.004,0.000,0.000,0.000,0.000,0,2,0,3,7,255,1200,200,0,0,-89.323,0.872,-31.431
EX0521-092111,22,C25,prep,1729,1729,0,1096774.092,0.686,-0.675,0.196,0.188,0,0,0,0,0,0,0,0,0,0.000,0,0,0.049,0.008,0.020,-0.040,0.020,0.014,0.994,0.010,0.002,0.008,-0.004,0.000,0.000,0.000,0.000,0,2,0,3,7,255,1200,200,0,0,-89.323,0.872,-31.431
EX0521-092111,22,C25,prep,1737,1737,0,1096779.091,0.686,-0.675,0.196,0.188,0,0,0,0,0,0,0,0,0,0.000,0,0,0.060,0.014,-0.040,-0.040,0.020,0.013,0.993,0.012,-0.012,0.008,-0.004,0.000,0.000,0.000,0.000,0,2,0,3,7,255,1200,200,0,0,-89.323,0.872,-31.431
EX0521-092111,22,C25,prep,1737,1737,0,1096784.091,0.686,-0.675,0.196,0.188,0,0,0,0,0,0,0,0,0,0.000,0,0,0.060,0.004,0.020,-0.040,-0.040,0.015,0.994,0.011,0.002,0.004,-0.004,0.000,0.000,0.000,0.000,0,2,0,3,7,255,1200,200,0,0,-89.323,0.872,-31.431
EX0521-092111,22,C25,prep,1737,1737,0,1096789.092,0.686,-0.675,0.196,0.188,0,0,0,0,0,0,0,0,0,0.000,0,0,0.049,0.004,0.020,-0.040,0.020,0.015,0.994,0.011,0.004,-0.002,-0.004,0.000,0.000,0.000,0.000,0,2,0,3,7,255,1200,200,0,0,-89.323,0.872,-31.431
EX0521-092111,22,C25,prep,1737,1737,0,1096794.092,0.686,-0.675,0.196,0.188,0,0,0,0,0,0,0,0,0,0.000,0,0,0.069,0.006,-0.040,-0.040,-0.040,0.014,0.993,0.012,0.004,-0.004,-0.004,0.000,0.000,0.000,0.000,0,2,0,3,7,255,1200,200,0,0,-89.323,0.872,-31.431
EX0521-092111,22,C25,prep,1738,1738,0,1096799.092,0.686,-0.675,0.196,0.188,0,0,0,0,0,0,0,0,0,0.000,0,0,0.060,0.007,0.020,-0.040,-0.040,0.015,0.994,0.011,0.006,-0.004,-0.004,0.000,0.000,0.000,0.000,0,2,0,3,7,255,1200,200,0,0,-89.323,0.872,-31.431
EX0521-092111,22,C25,prep,1738,1738,0,1096804.091,0.686,-0.675,0.196,0.188,0,0,0,0,0,0,0,0,0,0.000,0,0,0.110,0.004,-0.100,-0.040,0.020,0.014,0.994,0.012,-0.004,0.000,-0.004,0.000,0.000,0.000,0.000,0,2,0,3,7,255,1200,200,0,0,-89.323,0.872,-31.431
EX0521-092111,22,C25,prep,1775,1775,0,1096809.091,0.686,-0.675,0.196,0.188,0,0,0,0,0,0,0,0,0,0.000,0,0,0.049,0.002,0.020,0.020,-0.040,0.015,0.994,0.012,0.002,0.000,-0.004,0.000,0.000,0.000,0.000,0,2,0,3,7,255,1200,200,0,0,-89.323,0.872,-31.431
EX0521-092111,22,C25,prep,1775,1775,0,1096814.092,0.686,-0.675,0.196,0.188,0,0,0,0,0,0,0,0,0,0.000,0,0,0.060,0.004,-0.040,-0.040,0.020,0.015,0.994,0.011,0.002,-0.004,-0.004,0.000,0.000,0.000,0.000,0,2,0,3,7,255,1200,200,0,0,-89.323,0.872,-31.431
EX0521-092111,22,C25,prep,1775,1775,0,1096819.092,0.686,-0.675,0.196,0.188,0,0,0,0,0,0,0,0,0,0.000,0,0,0.115,0.004,-0.040,-0.100,-0.040,0.014,0.994,0.012,0.002,-0.004,-0.004,0.000,0.000,0.000,0.000,0,2,0,3,7,255,1200,200,0,0,-89.323,0.872,-31.431
EX0521-092111,22,C25,prep,1775,1775,0,1096824.093,0.686,-0.675,0.196,0.188,0,0,0,0,0,0,0,0,0,0.000,0,0,0.049,0.000,0.020,-0.040,0.020,0.014,0.993,0.011,0.000,0.000,-0.004,0.000,0.000,0.000,0.000,0,2,0,3,7,255,1200,200,0,0,-89.323,0.872,-31.431
EX0521-092111,22,C25,prep,1775,1775,0,1096829.091,0.686,-0.675,0.196,0.188,0,0,0,0,0,0,0,0,0,0.000,0,0,0.092,0.000,0.080,-0.040,0.020,0.015,0.994,0.012,0.000,0.000,-0.004,0.000,0.000,0.000,0.000,0,2,0,3,7,255,1200,200,0,0,-89.323,0.872,-31.431
EX0521-092111,22,C25,prep,1775,1775,0,1096834.091,0.686,-0.675,0.196,0.188,0,0,0,0,0,0,0,0,0,0.000,0,0,0.104,0.002,0.020,-0.100,0.020,0.014,0.994,0.011,0.000,0.002,-0.004,0.000,0.000,0.000,0.000,0,2,0,3,7,255,1200,200,0,0,-89.323,0.872,-31.431
EX0521-092111,22,C25,prep,1792,1792,0,1096839.092,0.686,-0.675,0.196,0.188,0,0,0,0,0,0,0,0,0,0.000,0,0,0.060,0.000,0.020,-0.040,-0.040,0.014,0.994,0.012,0.000,0.000,-0.002,0.000,0.000,0.000,0.000,0,2,0,3,7,255,1200,200,0,0,-89.323,0.872,-31.431
EX0521-092111,22,C25,prep,1792,1792,0,1096844.092,0.686,-0.675,0.196,0.188,0,0,0,0,0,0,0,0,0,0.000,0,0,0.049,0.002,0.020,-0.040,0.020,0.014,0.994,0.011,0.000,0.002,-0.004,0.000,0.000,0.000,0.000,0,2,0,3,7,255,1200,200,0,0,-89.323,0.872,-31.431
EX0521-092111,22,C25,prep,1794,1794,0,1096849.092,0.686,-0.675,0.196,0.188,0,0,0,0,0,0,0,0,0,0.000,0,0,0.060,0.002,0.020,-0.040,-0.040,0.015,0.994,0.012,0.002,0.000,-0.002,0.000,0.000,0.000,0.000,0,2,0,3,7,255,1200,200,0,0,-89.323,0.872,-31.431
EX0521-092111,22,C25,prep,1794,1794,0,1096854.091,0.686,-0.675,0.196,0.188,0,0,0,0,0,0,0,0,0,0.000,0,0,0.049,0.006,0.020,-0.040,0.020,0.013,0.994,0.011,0.002,0.006,-0.002,0.000,0.000,0.000,0.000,0,2,0,3,7,255,1200,200,0,0,-89.323,0.872,-31.431
EX0521-092111,22,C25,prep,1794,1794,0,1096859.091,0.686,-0.675,0.196,0.188,0,0,0,0,0,0,0,0,0,0.000,0,0,0.069,0.006,-0.040,-0.040,-0.040,0.014,0.994,0.011,-0.002,0.006,0.002,0.000,0.000,0.000,0.000,0,2,0,3,7,255,1200,200,0,0,-89.323,0.872,-31.431
EX0521-092111,22,C25,prep,1794,1794,0,1096864.092,0.686,-0.675,0.196,0.188,0,0,0,0,0,0,0,0,0,0.000,0,0,0.060,0.006,0.020,-0.040,-0.040,0.015,0.994,0.011,-0.002,0.006,0.002,0.000,0.000,0.000,0.000,0,2,0,3,7,255,1200,200,0,0,-89.323,0.872,-31.431
EX0521-092111,22,C25,prep,1807,1807,0,1096869.092,0.686,-0.675,0.196,0.188,0,0,0,0,0,0,0,0,0,0.000,0,0,0.060,0.006,-0.040,0.020,-0.040,0.013,0.994,0.011,-0.002,0.006,-0.004,0.000,0.000,0.000,0.000,0,2,0,3,7,255,1200,200,0,0,-89.323,0.872,-31.431
EX0521-092111,22,C25,prep,1807,1807,0,1096874.092,0.686,-0.675,0.196,0.188,0,0,0,0,0,0,0,0,0,0.000,0,0,0.104,0.006,0.020,-0.100,0.020,0.014,0.994,0.012,-0.006,0.002,-0.004,0.000,0.000,0.000,0.000,0,2,0,3,7,255,1200,200,0,0,-89.323,0.872,-31.431
EX0521-092111,22,C25,prep,1823,1823,0,1096879.091,0.686,-0.675,0.196,0.188,0,0,0,0,0,0,0,0,0,0.000,0,0,0.098,0.006,0.080,-0.040,-0.040,0.016,0.995,0.011,-0.006,0.000,0.002,0.000,0.000,0.000,0.000,0,2,0,3,7,255,1200,200,0,0,-89.323,0.872,-31.431
EX0521-092111,22,C25,prep,1823,1823,0,1096884.091,0.686,-0.675,0.196,0.188,0,0,0,0,0,0,0,0,0,0.000,0,0,0.049,0.006,0.020,-0.040,0.020,0.015,0.993,0.011,0.006,0.000,0.002,0.000,0.000,0.000,0.000,0,2,0,3,7,255,1200,200,0,0,-89.323,0.872,-31.431
EX0521-092111,22,C25,prep,1823,1823,0,1096889.092,0.686,-0.675,0.196,0.188,0,0,0,0,0,0,0,0,0,0.000,0,0,0.069,0.008,-0.040,-0.040,-0.040,0.014,0.994,0.012,0.006,-0.006,-0.002,0.000,0.000,0.000,0.000,0,2,0,3,7,255,1200,200,0,0,-89.323,0.872,-31.431
EX0521-092111,22,C25,prep,1823,1823,0,1096894.092,0.686,-0.675,0.196,0.188,0,0,0,0,0,0,0,0,0,0.000,0,0,0.069,0.004,-0.040,-0.040,-0.040,0.015,0.996,0.012,0.002,-0.004,-0.002,0.000,0.000,0.000,0.000,0,2,0,3,7,255,1200,200,0,0,-89.323,0.872,-31.431
EX0521-092111,22,C25,prep,1839,1839,0,1096899.092,0.686,-0.675,0.196,0.188,0,0,0,0,0,0,0,0,0,0.000,0,0,0.060,0.006,0.020,-0.040,-0.040,0.014,0.993,0.012,-0.004,-0.004,-0.002,0.000,0.000,0.000,0.000,0,2,0,3,7,255,1200,200,0,0,-89.323,0.872,-31.431
EX0521-092111,22,C25,prep,1839,1839,0,1096904.091,0.686,-0.675,0.196,0.188,0,0,0,0,0,0,0,0,0,0.000,0,0,0.069,0.004,-0.040,-0.040,-0.040,0.015,0.993,0.012,0.000,-0.004,-0.008,0.000,0.000,0.000,0.000,0,2,0,3,7,255,1200,200,0,0,-89.323,0.872,-31.431
EX0521-092111,22,C25,prep,1871,1871,0,1096909.091,0.686,-0.675,0.196,0.188,0,0,0,0,0,0,0,0,0,0.000,0,0,0.060,0.004,0.020,-0.040,-0.040,0.015,0.994,0.012,0.000,-0.004,-0.008,0.000,0.000,0.000,0.000,0,2,0,3,7,255,1200,200,0,0,-89.323,0.872,-31.431
EX0521-092111,22,C25,prep,1871,1871,0,1096914.092,0.686,-0.675,0.196,0.188,0,0,0,0,0,0,0,0,0,0.000,0,0,0.049,0.008,0.020,-0.040,0.020,0.015,0.995,0.012,0.002,-0.008,-0.002,0.000,0.000,0.000,0.000,0,2,0,3,7,255,1200,200,0,0,-89.323,0.872,-31.431
EX0521-092111,22,C25,prep,1871,1871,0,1096919.092,0.686,-0.675,0.196,0.188,0,0,0,0,0,0,0,0,0,0.000,0,0,0.110,0.004,-0.040,-0.100,0.020,0.014,0.994,0.011,0.002,-0.004,0.002,0.000,0.000,0.000,0.000,0,2,0,3,7,255,1200,200,0,0,-89.323,0.872,-31.431
EX0521-092111,22,C25,prep,1871,1871,0,1096924.093,0.686,-0.675,0.196,0.188,0,0,0,0,0,0,0,0,0,0.000,0,0,0.115,0.008,-0.100,-0.040,-0.040,0.015,0.994,0.012,0.000,-0.008,0.002,0.000,0.000,0.000,0.000,0,2,0,3,7,255,1200,200,0,0,-89.323,0.872,-31.431
EX0521-092111,22,C25,prep,1871,1871,0,1096929.092,0.686,-0.675,0.196,0.188,0,0,0,0,0,0,0,0,0,0.000,0,0,0.060,0.008,0.020,-0.040,-0.040,0.015,0.994,0.012,0.000,-0.008,0.002,0.000,0.000,0.000,0.000,0,2,0,3,7,255,1200,200,0,0,-89.323,0.872,-31.431
EX0521-092111,22,C25,prep,1871,1871,0,1096934.091,0.686,-0.675,0.196,0.188,0,0,0,0,0,0,0,0,0,0.000,0,0,0.069,0.009,-0.040,-0.040,-0.040,0.015,0.993,0.010,0.004,-0.008,-0.002,0.000,0.000,0.000,0.000,0,2,0,3,7,255,1200,200,0,0,-89.323,0.872,-31.431
EX0521-092111,22,C25,prep,1887,1887,0,1096939.092,0.686,-0.675,0.196,0.188,0,0,0,0,0,0,0,0,0,0.000,0,0,0.060,0.004,0.020,-0.040,-0.040,0.014,0.994,0.012,0.004,-0.002,-0.002,0.000,0.000,0.000,0.000,0,2,0,3,7,255,1200,200,0,0,-89.323,0.872,-31.431
EX0521-092111,22,C25,prep,1887,1887,0,1096944.092,0.686,-0.675,0.196,0.188,0,0,0,0,0,0,0,0,0,0.000,0,0,0.060,0.003,-0.040,-0.040,0.020,0.015,0.994,0.012,0.002,-0.002,-0.002,0.000,0.000,0.000,0.000,0,2,0,3,7,255,1200,200,0,0,-89.323,0.872,-31.431
EX0521-092111,22,C25,prep,1887,1887,0,1096949.092,0.686,-0.675,0.196,0.188,0,0,0,0,0,0,0,0,0,0.000,0,0,0.049,0.003,0.020,-0.040,0.020,0.015,0.993,0.011,0.002,-0.002,-0.002,0.000,0.000,0.000,0.000,0,2,0,3,7,255,1200,200,0,0,-89.323,0.872,-31.431
EX0521-092111,22,C25,prep,1887,1887,0,1096954.091,0.686,-0.675,0.196,0.188,0,0,0,0,0,0,0,0,0,0.000,0,0,0.049,0.004,0.020,-0.040,0.020,0.014,0.995,0.012,0.002,-0.004,0.002,0.000,0.000,0.000,0.000,0,2,0,3,7,255,1200,200,0,0,-89.323,0.872,-31.431
EX0521-092111,22,C25,prep,1903,1903,0,1096959.093,0.686,-0.675,0.196,0.188,0,0,0,0,0,0,0,0,0,0.000,0,0,0.049,0.000,0.020,0.020,-0.040,0.014,0.993,0.011,0.000,0.000,-0.008,0.000,0.000,0.000,0.000,0,2,0,3,7,255,1200,200,0,0,-89.323,0.872,-31.431
EX0521-092111,22,C25,prep,1903,1903,0,1096964.092,0.686,-0.675,0.196,0.188,0,0,0,0,0,0,0,0,0,0.000,0,0,0.060,0.006,-0.040,0.020,-0.040,0.013,0.994,0.012,-0.006,0.002,0.002,0.000,0.000,0.000,0.000,0,2,0,3,7,255,1200,200,0,0,-89.323,0.872,-31.431
EX0521-092111,22,C25,prep,1903,1903,0,1096969.092,0.686,-0.675,0.196,0.188,0,0,0,0,0,0,0,0,0,0.000,0,0,0.049,0.004,0.020,-0.040,0.020,0.015,0.995,0.013,-0.004,0.002,0.002,0.000,0.000,0.000,0.000,0,2,0,3,7,255,1200,200,0,0,-89.323,0.872,-31.431
EX0521-092111,22,C25,prep,1903,1903,0,1096974.092,0.686,-0.675,0.196,0.188,0,0,0,0,0,0,0,0,0,0.000,0,0,0.049,0.004,0.020,-0.040,0.020,0.015,0.996,0.011,-0.004,0.002,0.006,0.000,0.000,0.000,0.000,0,2,0,3,7,255,1200,200,0,0,-89.323,0.872,-31.431
EX0521-092111,22,C25,prep,1927,1927,0,1096979.091,0.686,-0.675,0.196,0.188,0,0,0,0,0,0,0,0,0,0.000,0,0,0.069,0.008,-0.040,-0.040,-0.040,0.015,0.993,0.012,0.000,-0.008,0.006,0.000,0.000,0.000,0.000,0,2,0,3,7,255,1200,200,0,0,-89.323,0.872,-31.431
EX0521-092111,22,C25,prep,1927,1927,0,1096984.091,0.686,-0.675,0.196,0.188,0,0,0,0,0,0,0,0,0,0.000,0,0,0.110,0.008,0.020,-0.100,-0.040,0.015,0.993,0.012,0.000,-0.008,-0.008,0.000,0.000,0.000,0.000,0,2,0,3,7,255,1200,200,0,0,-89.323,0.872,-31.431
EX0521-092111,22,C25,prep,1929,1929,0,1096989.092,0.686,-0.675,0.196,0.188,0,0,0,0,0,0,0,0,0,0.000,0,0,0.060,0.008,0.020,-0.040,-0.040,0.015,0.994,0.012,0.000,-0.008,-0.008,0.000,0.000,0.000,0.000,0,2,0,3,7,255,1200,200,0,0,-89.323,0.872,-31.431
EX0521-092111,22,C25,prep,1929,1929,0,1096994.092,0.686,-0.675,0.196,0.188,0,0,0,0,0,0,0,0,0,0.000,0,0,0.060,0.008,-0.040,-0.040,0.020,0.015,0.994,0.012,0.000,-0.008,-0.002,0.000,0.000,0.000,0.000,0,2,0,3,7,255,1200,200,0,0,-89.323,0.872,-31.431
EX0521-092111,22,C25,prep,1935,1935,0,1096999.092,0.686,-0.675,0.196,0.188,0,0,0,0,0,0,0,0,0,0.000,0,0,0.060,0.006,0.020,-0.040,-0.040,0.015,0.995,0.012,0.002,-0.006,-0.002,0.000,0.000,0.000,0.000,0,2,0,3,7,255,1200,200,0,0,-89.323,0.872,-31.431
EX0521-092111,22,C25,prep,1935,1935,0,1097004.091,0.686,-0.675,0.196,0.188,0,0,0,0,0,0,0,0,0,0.000,0,0,0.069,0.008,-0.040,-0.040,-0.040,0.015,0.994,0.012,0.006,-0.006,0.002,0.000,0.000,0.000,0.000,0,2,0,3,7,255,1200,200,0,0,-89.323,0.872,-31.431
EX0521-092111,22,C25,prep,1967,1967,0,1097009.092,0.686,-0.675,0.196,0.188,0,0,0,0,0,0,0,0,0,0.000,0,0,0.060,0.008,-0.040,-0.040,0.020,0.014,0.994,0.012,0.006,-0.006,0.002,0.000,0.000,0.000,0.000,0,2,0,3,7,255,1200,200,0,0,-89.323,0.872,-31.431
EX0521-092111,22,C25,prep,1967,1967,0,1097014.092,0.686,-0.675,0.196,0.188,0,0,0,0,0,0,0,0,0,0.000,0,0,0.069,0.003,-0.040,-0.040,-0.040,0.014,0.993,0.012,-0.002,-0.002,0.002,0.000,0.000,0.000,0.000,0,2,0,3,7,255,1200,200,0,0,-89.323,0.872,-31.431
EX0521-092111,22,C25,prep,1967,1967,0,1097019.092,0.686,-0.675,0.196,0.188,0,0,0,0,0,0,0,0,0,0.000,0,0,0.115,0.003,-0.040,-0.100,-0.040,0.014,0.993,0.012,-0.002,-0.002,-0.008,0.000,0.000,0.000,0.000,0,2,0,3,7,255,1200,200,0,0,-89.323,0.872,-31.431
EX0521-092111,22,C25,prep,1967,1967,0,1097024.093,0.686,-0.675,0.196,0.188,0,0,0,0,0,0,0,0,0,0.000,0,0,0.060,0.002,0.020,-0.040,-0.040,0.014,0.993,0.011,-0.002,0.000,-0.008,0.000,0.000,0.000,0.000,0,2,0,3,7,255,1200,200,0,0,-89.323,0.872,-31.431
EX0521-092111,22,C25,prep,1967,1967,0,1097029.091,0.686,-0.675,0.196,0.188,0,0,0,0,0,0,0,0,0,0.000,0,0,0.060,0.003,-0.040,-0.040,0.020,0.014,0.994,0.012,-0.002,-0.002,-0.008,0.000,0.000,0.000,0.000,0,2,0,3,7,255,1200,200,0,0,-89.323,0.872,-31.431
EX0521-092111,22,C25,prep,1967,1967,0,1097034.091,0.686,-0.675,0.196,0.188,0,0,0,0,0,0,0,0,0,0.000,0,0,0.069,0.003,-0.040,-0.040,-0.040,0.013,0.994,0.011,-0.002,0.002,-0.002,0.000,0.000,0.000,0.000,0,2,0,3,7,255,1200,200,0,0,-89.323,0.872,-31.431
EX0521-092111,22,C25,prep,1988,1988,0,1097039.092,0.686,-0.675,0.196,0.188,0,0,0,0,0,0,0,0,0,0.000,0,0,0.060,0.002,0.020,-0.040,-0.040,0.015,0.994,0.011,-0.002,0.000,-0.002,0.000,0.000,0.000,0.000,0,2,0,3,7,255,1200,200,0,0,-89.323,0.872,-31.431
EX0521-092111,22,C25,prep,1988,1988,0,1097044.092,0.686,-0.675,0.196,0.188,0,0,0,0,0,0,0,0,0,0.000,0,0,0.060,0.002,0.020,-0.040,-0.040,0.015,0.994,0.012,0.002,0.000,-0.002,0.000,0.000,0.000,0.000,0,2,0,3,7,255,1200,200,0,0,-89.323,0.872,-31.431
EX0521-092111,22,C25,prep,1989,1989,0,1097049.092,0.686,-0.675,0.196,0.188,0,0,0,0,0,0,0,0,0,0.000,0,0,0.060,0.002,0.020,-0.040,-0.040,0.013,0.994,0.011,0.002,0.000,-0.002,0.000,0.000,0.000,0.000,0,2,0,3,7,255,1200,200,0,0,-89.323,0.872,-31.431
EX0521-092111,22,C25,prep,1989,1989,0,1097054.091,0.686,-0.675,0.196,0.188,0,0,0,0,0,0,0,0,0,0.000,0,0,0.060,0.003,0.020,-0.040,-0.040,0.014,0.994,0.012,-0.002,-0.002,-0.002,0.000,0.000,0.000,0.000,0,2,0,3,7,255,1200,200,0,0,-89.323,0.872,-31.431
EX0521-092111,22,C25,prep,1999,1999,0,1097059.091,0.686,-0.675,0.196,0.188,0,0,0,0,0,0,0,0,0,0.000,0,0,0.115,0.003,-0.040,-0.100,-0.040,0.015,0.994,0.012,-0.002,-0.002,-0.002,0.000,0.000,0.000,0.000,0,2,0,3,7,255,1200,200,0,0,-89.323,0.872,-31.431
EX0521-092111,22,C25,prep,1999,1999,0,1097064.093,0.686,-0.675,0.196,0.188,0,0,0,0,0,0,0,0,0,0.000,0,0,0.049,0.003,0.020,-0.040,0.020,0.013,0.994,0.012,-0.002,-0.002,-0.002,0.000,0.000,0.000,0.000,0,2,0,3,7,255,1200,200,0,0,-89.323,0.873,-31.431
EX0521-092111,22,C25,prep,2027,2027,0,1097069.092,0.686,-0.675,0.196,0.188,0,0,0,0,0,0,0,0,0,0.000,0,0,0.060,0.002,-0.040,0.020,-0.040,0.015,0.993,0.011,0.002,0.000,-0.002,0.000,0.000,0.000,0.000,0,2,0,3,7,255,1200,200,0,0,-89.323,0.873,-31.431
EX0521-092111,22,C25,prep,2027,2027,0,1097074.092,0.686,-0.675,0.196,0.188,0,0,0,0,0,0,0,0,0,0.000,0,0,0.060,0.006,0.020,-0.040,-0.040,0.014,0.995,0.012,-0.006,0.000,-0.002,0.000,0.000,0.000,0.000,0,2,0,3,7,255,1200,200,0,0,-89.323,0.873,-31.431
EX0521-092111,22,C25,prep,2027,2027,0,1097079.091,0.686,-0.675,0.196,0.188,0,0,0,0,0,0,0,0,0,0.000,0,0,0.060,0.006,0.020,-0.040,-0.040,0.014,0.994,0.012,-0.006,0.000,-0.002,0.000,0.000,0.000,0.000,0,2,0,3,7,255,1200,200,0,0,-89.323,0.873,-31.431
EX0521-092111,22,C25,prep,2027,2027,0,1097084.091,0.686,-0.675,0.196,0.188,0,0,0,0,0,0,0,0,0,0.000,0,0,0.049,0.006,0.020,0.020,-0.040,0.014,0.996,0.011,-0.006,0.000,0.008,0.000,0.000,0.000,0.000,0,2,0,3,7,255,1200,200,0,0,-89.323,0.873,-31.431
EX0521-092111,22,C25,prep,2028,2028,0,1097089.092,0.686,-0.675,0.196,0.188,0,0,0,0,0,0,0,0,0,0.000,0,0,0.060,0.006,0.020,-0.040,-0.040,0.014,0.994,0.012,-0.006,0.000,-0.002,0.000,0.000,0.000,0.000,0,2,0,3,7,255,1200,200,0,0,-89.323,0.873,-31.431
EX0521-092111,22,C25,prep,2028,2028,0,1097094.092,0.686,-0.675,0.196,0.188,0,0,0,0,0,0,0,0,0,0.000,0,0,0.069,0.007,-0.040,-0.040,-0.040,0.014,0.994,0.011,-0.004,0.006,0.002,0.000,0.000,0.000,0.000,0,2,0,3,7,255,1200,200,0,0,-89.323,0.873,-31.431
EX0521-092111,22,C25,prep,2031,2031,0,1097099.092,0.686,-0.675,0.196,0.188,0,0,0,0,0,0,0,0,0,0.000,0,0,0.049,0.008,-0.040,0.020,0.020,0.013,0.994,0.011,-0.006,0.006,-0.002,0.000,0.000,0.000,0.000,0,2,0,3,7,255,1200,200,0,0,-89.323,0.873,-31.431
EX0521-092111,22,C25,prep,2031,2031,0,1097104.091,0.686,-0.675,0.196,0.188,0,0,0,0,0,0,0,0,0,0.000,0,0,0.060,0.007,-0.040,-0.040,0.020,0.014,0.994,0.011,-0.004,0.006,-0.002,0.000,0.000,0.000,0.000,0,2,0,3,7,255,1200,200,0,0,-89.323,0.873,-31.431
EX0521-092111,22,C25,prep,2079,2079,0,1097109.091,0.686,-0.675,0.196,0.188,0,0,0,0,0,0,0,0,0,0.000,0,0,0.060,0.006,0.020,-0.040,-0.040,0.015,0.994,0.012,-0.004,0.004,-0.002,0.000,0.000,0.000,0.000,0,2,0,3,7,255,1200,200,0,0,-89.323,0.873,-31.431
EX0521-092111,22,C25,prep,2079,2079,0,1097114.092,0.686,-0.675,0.196,0.188,0,0,0,0,0,0,0,0,0,0.000,0,0,0.110,0.004,0.020,-0.100,-0.040,0.014,0.993,0.011,0.000,0.004,-0.002,0.000,0.000,0.000,0.000,0,2,0,3,7,255,1200,200,0,0,-89.323,0.873,-31.431
EX0521-092111,22,C25,prep,2079,2079,0,1097119.092,0.686,-0.675,0.196,0.187,0,0,0,0,0,0,0,0,0,0.000,0,0,0.060,0.006,-0.040,-0.040,0.020,0.014,0.994,0.011,0.002,0.006,-0.002,0.000,0.000,0.000,0.000,0,2,0,3,7,255,1200,200,0,0,-89.323,0.873,-31.431
EX0521-092111,22,C25,prep,2079,2079,0,1097124.093,0.686,-0.675,0.196,0.187,0,0,0,0,0,0,0,0,0,0.000,0,0,0.035,0.006,0.020,0.020,0.020,0.015,0.993,0.012,0.000,0.006,-0.008,0.000,0.000,0.000,0.000,0,2,0,3,7,255,1200,200,0,0,-89.323,0.873,-31.431
EX0521-092111,22,C25,prep,2079,2079,0,1097129.092,0.686,-0.675,0.196,0.187,0,0,0,0,0,0,0,0,0,0.000,0,0,0.060,0.000,0.020,-0.040,-0.040,0.014,0.994,0.012,0.000,0.000,-0.002,0.000,0.000,0.000,0.000,0,2,0,3,7,255,1200,200,0,0,-89.323,0.873,-31.431
EX0521-092111,22,C25,prep,2079,2079,0,1097134.091,0.686,-0.675,0.196,0.187,0,0,0,0,0,0,0,0,0,0.000,0,0,0.060,0.004,0.020,-0.040,-0.040,0.014,0.993,0.011,-0.004,0.000,-0.012,0.000,0.000,0.000,0.000,0,2,0,3,7,255,1200,200,0,0,-89.323,0.873,-31.431
EX0521-092111,22,C25,prep,2095,2095,0,1097139.092,0.686,-0.675,0.196,0.187,0,0,0,0,0,0,0,0,0,0.000,0,0,0.069,0.006,-0.040,-0.040,-0.040,0.014,0.994,0.011,-0.004,0.004,-0.002,0.000,0.000,0.000,0.000,0,2,0,3,7,255,1200,200,0,0,-89.323,0.873,-31.431
EX0521-092111,22,C25,prep,2095,2095,0,1097144.092,0.686,-0.675,0.196,0.187,0,0,0,0,0,0,0,0,0,0.000,0,0,0.049,0.004,0.020,-0.040,0.020,0.015,0.993,0.012,0.002,0.004,-0.012,0.000,0.000,0.000,0.000,0,2,0,3,7,255,1200,200,0,0,-89.323,0.873,-31.431
EX0521-092111,22,C25,prep,2095,2095,0,1097149.092,0.686,-0.675,0.196,0.187,0,0,0,0,0,0,0,0,0,0.000,0,0,0.069,0.004,-0.040,-0.040,-0.040,0.015,0.994,0.012,0.002,-0.004,-0.002,0.000,0.000,0.000,0.000,0,2,0,3,7,255,1200,200,0,0,-89.323,0.873,-31.431
EX0521-092111,22,C25,prep,2095,2095,0,1097154.091,0.686,-0.675,0.196,0.187,0,0,0,0,0,0,0,0,0,0.000,0,0,0.060,0.004,0.020,-0.040,-0.040,0.014,0.993,0.011,0.000,-0.004,-0.006,0.000,0.000,0.000,0.000,0,2,0,3,7,255,1200,200,0,0,-89.323,0.873,-31.431
EX0521-092111,22,C25,prep,2095,2095,0,1097159.093,0.686,-0.675,0.196,0.187,0,0,0,0,0,0,0,0,0,0.000,0,0,0.069,0.004,-0.040,-0.040,-0.040,0.015,0.993,0.011,0.000,0.004,-0.006,0.000,0.000,0.000,0.000,0,2,0,3,7,255,1200,200,0,0,-89.323,0.873,-31.431
EX0521-092111,22,C25,prep,2095,2095,0,1097164.092,0.686,-0.675,0.196,0.187,0,0,0,0,0,0,0,0,0,0.000,0,0,0.060,0.009,0.020,-0.040,-0.040,0.016,0.995,0.011,0.008,0.004,-0.006,0.000,0.000,0.000,0.000,0,2,0,3,7,255,1200,200,0,0,-89.323,0.873,-31.431
EX0521-092111,22,C25,prep,2126,2126,0,1097169.092,0.686,-0.675,0.196,0.187,0,0,0,0,0,0,0,0,0,0.000,0,0,0.060,0.009,0.020,-0.040,-0.040,0.015,0.993,0.011,0.008,0.004,-0.006,0.000,0.000,0.000,0.000,0,2,0,3,7,255,1200,200,0,0,-89.323,0.873,-31.431
EX0521-092111,22,C25,prep,2126,2126,0,1097174.092,0.686,-0.675,0.196,0.187,0,0,0,0,0,0,0,0,0,0.000,0,0,0.060,0.006,0.020,-0.040,-0.040,0.015,0.994,0.011,0.006,0.000,-0.002,0.000,0.000,0.000,0.000,0,2,0,3,7,255,1200,200,0,0,-89.323,0.873,-31.431
EX0521-092111,22,C25,prep,2127,2127,0,1097179.091,0.686,-0.675,0.196,0.187,0,0,0,0,0,0,0,0,0,0.000,0,0,0.049,0.006,0.020,0.020,-0.040,0.015,0.994,0.012,0.006,0.000,-0.002,0.000,0.000,0.000,0.000,0,2,0,3,7,255,1200,200,0,0,-89.323,0.873,-31.431
EX0521-092111,22,C25,prep,2127,2127,0,1097184.091,0.686,-0.675,0.196,0.187,0,0,0,0,0,0,0,0,0,0.000,0,0,0.110,0.006,0.020,-0.100,-0.040,0.015,0.993,0.011,0.006,0.000,-0.002,0.000,0.000,0.000,0.000,0,2,0,3,7,255,1200,200,0,0,-89.323,0.873,-31.431
EX0521-092111,22,C25,prep,2128,2128,0,1097189.092,0.686,-0.675,0.196,0.187,0,0,0,0,0,0,0,0,0,0.000,0,0,0.049,0.007,0.020,-0.040,0.020,0.015,0.993,0.012,0.006,-0.004,-0.006,0.000,0.000,0.000,0.000,0,2,0,3,7,255,1200,200,0,0,-89.323,0.873,-31.431
EX0521-092111,22,C25,prep,2128,2128,0,1097194.092,0.686,-0.675,0.196,0.187,0,0,0,0,0,0,0,0,0,0.000,0,0,0.069,0.004,-0.040,-0.040,-0.040,0.014,0.993,0.011,0.002,0.004,-0.006,0.000,0.000,0.000,0.000,0,2,0,3,7,255,1200,200,0,0,-89.323,0.873,-31.431
EX0521-092111,22,C25,prep,2159,2159,0,1097199.092,0.686,-0.675,0.196,0.187,0,0,0,0,0,0,0,0,0,0.000,0,0,0.049,0.006,0.020,-0.040,0.020,0.014,0.993,0.011,-0.004,0.004,-0.006,0.000,0.000,0.000,0.000,0,2,0,3,7,255,1200,200,0,0,-89.323,0.873,-31.431
EX0521-092111,22,C25,prep,2159,2159,0,1097204.091,0.686,-0.675,0.196,0.187,0,0,0,0,0,0,0,0,0,0.000,0,0,0.069,0.006,-0.040,-0.040,-0.040,0.014,0.993,0.012,-0.004,0.004,-0.006,0.000,0.000,0.000,0.000,0,2,0,3,7,255,1200,200,0,0,-89.323,0.873,-31.431
EX0521-092111,22,C25,prep,2175,2175,0,1097209.091,0.686,-0.675,0.196,0.187,0,0,0,0,0,0,0,0,0,0.000,0,0,0.069,0.003,-0.040,-0.040,-0.040,0.014,0.993,0.012,-0.002,-0.002,-0.006,0.000,0.000,0.000,0.000,0,2,0,3,7,255,1200,200,0,0,-89.323,0.873,-31.431
EX0521-092111,22,C25,prep,2175,2175,0,1097214.091,0.686,-0.675,0.196,0.187,0,0,0,0,0,0,0,0,0,0.000,0,0,0.049,0.003,0.020,0.020,-0.040,0.015,0.994,0.012,-0.002,-0.002,-0.006,0.000,0.000,0.000,0.000,0,2,0,3,7,255,1200,200,0,0,-89.323,0.873,-31.431
EX0521-092111,22,C25,prep,2175,2175,0,1097219.092,0.686,-0.675,0.196,0.187,0,0,0,0,0,0,0,0,0,0.000,0,0,0.060,0.004,-0.040,-0.040,0.020,0.015,0.994,0.012,0.002,-0.004,-0.002,0.000,0.000,0.000,0.000,0,2,0,3,7,255,1200,200,0,0,-89.323,0.873,-31.431
EX0521-092111,22,C25,prep,2175,2175,0,1097224.093,0.686,-0.675,0.196,0.187,0,0,0,0,0,0,0,0,0,0.000,0,0,0.049,0.004,0.020,0.020,-0.040,0.015,0.993,0.011,0.002,-0.004,-0.002,0.000,0.000,0.000,0.000,0,2,0,3,7,255,1200,200,0,0,-89.323,0.873,-31.431
EX0521-092111,22,C25,prep,2175,2175,0,1097229.092,0.686,-0.675,0.196,0.187,0,0,0,0,0,0,0,0,0,0.000,0,0,0.069,0.004,-0.040,-0.040,-0.040,0.015,0.994,0.012,0.002,-0.004,-0.002,0.000,0.000,0.000,0.000,0,2,0,3,7,255,1200,200,0,0,-89.323,0.873,-31.431
EX0521-092111,22,C25,prep,2175,2175,0,1097234.091,0.686,-0.675,0.196,0.187,0,0,0,0,0,0,0,0,0,0.000,0,0,0.069,0.002,-0.040,-0.040,-0.040,0.014,0.994,0.012,0.000,-0.002,-0.002,0.000,0.000,0.000,0.000,0,2,0,3,7,255,1200,200,0,0,-89.323,0.873,-31.431
EX0521-092111,22,C25,prep,2193,2193,0,1097239.091,0.686,-0.675,0.196,0.187,0,0,0,0,0,0,0,0,0,0.000,0,0,0.049,0.002,0.020,-0.040,0.020,0.015,0.994,0.011,0.000,-0.002,-0.002,0.000,0.000,0.000,0.000,0,2,0,3,7,255,1200,200,0,0,-89.323,0.873,-31.431
EX0521-092111,22,C25,prep,2193,2193,0,1097244.092,0.686,-0.675,0.196,0.187,0,0,0,0,0,0,0,0,0,0.000,0,0,0.069,0.004,-0.040,-0.040,-0.040,0.015,0.993,0.011,0.004,0.000,-0.002,0.000,0.000,0.000,0.000,0,2,0,3,7,255,1200,200,0,0,-89.323,0.873,-31.431
EX0521-092111,22,C25,prep,2194,2194,0,1097249.092,0.686,-0.675,0.196,0.187,0,0,0,0,0,0,0,0,0,0.000,0,0,0.060,0.004,0.020,-0.040,-0.040,0.013,0.994,0.012,0.004,0.000,0.004,0.000,0.000,0.000,0.000,0,2,0,3,7,255,1200,200,0,0,-89.323,0.873,-31.431
EX0521-092111,22,C25,prep,2194,2194,0,1097254.091,0.686,-0.675,0.196,0.187,0,0,0,0,0,0,0,0,0,0.000,0,0,0.060,0.004,0.020,-0.040,-0.040,0.014,0.993,0.011,-0.004,0.000,-0.006,0.000,0.000,0.000,0.000,0,2,0,3,7,255,1200,200,0,0,-89.323,0.873,-31.431
EX0521-092111,22,C25,prep,2207,2207,0,1097259.091,0.686,-0.675,0.196,0.187,0,0,0,0,0,0,0,0,0,0.000,0,0,0.035,0.004,0.020,0.020,0.020,0.015,0.993,0.011,-0.004,0.000,-0.006,0.000,0.000,0.000,0.000,0,2,0,3,7,255,1200,200,0,0,-89.323,0.873,-31.431
EX0521-092111,22,C25,prep,2207,2207,0,1097264.092,0.686,-0.675,0.196,0.187,0,0,0,0,0,0,0,0,0,0.000,0,0,0.069,0.002,-0.040,-0.040,-0.040,0.015,0.993,0.012,0.002,0.000,-0.006,0.000,0.000,0.000,0.000,0,2,0,3,7,255,1200,200,0,0,-89.323,0.873,-31.431
EX0521-092111,22,C25,prep,2207,2207,0,1097269.092,0.686,-0.675,0.196,0.187,0,0,0,0,0,0,0,0,0,0.000,0,0,0.060,0.003,0.020,-0.040,-0.040,0.014,0.994,0.012,0.002,-0.002,-0.006,0.000,0.000,0.000,0.000,0,2,0,3,7,255,1200,200,0,0,-89.323,0.873,-31.431
EX0521-092111,22,C25,prep,2207,2207,0,1097274.092,0.686,-0.675,0.196,0.187,0,0,0,0,0,0,0,0,0,0.000,0,0,0.069,0.002,-0.040,-0.040,-0.040,0.014,0.994,0.011,0.000,-0.002,0.004,0.000,0.000,0.000,0.000,0,2,0,3,7,255,1200,200,0,0,-89.323,0.873,-31.431
EX0521-092111,22,C25,prep,2225,2225,0,1097279.092,0.686,-0.675,0.196,0.187,0,0,0,0,0,0,0,0,0,0.000,0,0,0.110,0.002,0.020,-0.100,-0.040,0.015,0.992,0.012,0.000,-0.002,0.004,0.000,0.000,0.000,0.000,0,2,0,3,7,255,1200,200,0,0,-89.323,0.873,-31.431
EX0521-092111,22,C25,prep,2225,2225,0,1097284.091,0.686,-0.675,0.196,0.187,0,0,0,0,0,0,0,0,0,0.000,0,0,0.060,0.002,0.020,-0.040,-0.040,0.014,0.995,0.011,0.000,0.002,0.004,0.000,0.000,0.000,0.000,0,2,0,3,7,255,1200,200,0,0,-89.323,0.873,-31.431
EX0521-092111,22,C25,prep,2227,2227,0,1097289.091,0.686,-0.675,0.196,0.187,0,0,0,0,0,0,0,0,0,0.000,0,0,0.069,0.002,-0.040,-0.040,-0.040,0.014,0.994,0.011,0.000,0.002,-0.002,0.000,0.000,0.000,0.000,0,2,0,3,7,255,1200,200,0,0,-89.323,0.873,-31.431
EX0521-092111,22,C25,prep,2227,2227,0,1097294.092,0.686,-0.675,0.196,0.187,0,0,0,0,0,0,0,0,0,0.000,0,0,0.049,0.002,0.020,0.020,-0.040,0.014,0.994,0.012,0.000,0.002,0.004,0.000,0.000,0.000,0.000,0,2,0,3,7,255,1200,200,0,0,-89.323,0.873,-31.431
EX0521-092111,22,C25,prep,2239,2239,0,1097299.092,0.686,-0.675,0.196,0.187,0,0,0,0,0,0,0,0,0,0.000,0,0,0.060,0.002,0.020,-0.040,-0.040,0.015,0.994,0.011,0.000,0.002,-0.002,0.000,0.000,0.000,0.000,0,2,0,3,7,255,1200,200,0,0,-89.323,0.873,-31.431
EX0521-092111,22,C25,prep,2239,2239,0,1097304.091,0.686,-0.675,0.196,0.187,0,0,0,0,0,0,0,0,0,0.000,0,0,0.060,0.003,0.020,-0.040,-0.040,0.014,0.994,0.013,-0.002,-0.002,-0.002,0.000,0.000,0.000,0.000,0,2,0,3,7,255,1200,200,0,0,-89.323,0.873,-31.431
EX0521-092111,22,C25,prep,2271,2271,0,1097309.091,0.686,-0.675,0.196,0.187,0,0,0,0,0,0,0,0,0,0.000,0,0,0.060,0.004,0.020,-0.040,-0.040,0.015,0.994,0.011,0.004,0.000,-0.002,0.000,0.000,0.000,0.000,0,2,0,3,7,255,1200,200,0,0,-89.323,0.873,-31.431
EX0521-092111,22,C25,prep,2271,2271,0,1097314.091,0.686,-0.675,0.196,0.187,0,0,0,0,0,0,0,0,0,0.000,0,0,0.069,0.002,-0.040,-0.040,-0.040,0.014,0.993,0.011,-0.002,0.000,-0.002,0.000,0.000,0.000,0.000,0,2,0,3,7,255,1200,200,0,0,-89.323,0.873,-31.431
EX0521-092111,22,C25,prep,2271,2271,0,1097319.092,0.686,-0.675,0.196,0.187,0,0,0,0,0,0,0,0,0,0.000,0,0,0.060,0.002,0.020,-0.040,-0.040,0.015,0.994,0.012,0.002,0.000,-0.002,0.000,0.000,0.000,0.000,0,2,0,3,7,255,1200,200,0,0,-89.323,0.873,-31.431
EX0521-092111,22,C25,prep,2271,2271,0,1097324.093,0.686,-0.675,0.196,0.187,0,0,0,0,0,0,0,0,0,0.000,0,0,0.049,0.002,0.020,-0.040,0.020,0.014,0.994,0.011,0.000,0.002,-0.002,0.000,0.000,0.000,0.000,0,2,0,3,7,255,1200,200,0,0,-89.323,0.873,-31.431
EX0521-092111,22,C25,prep,2271,2271,0,1097329.091,0.686,-0.675,0.196,0.187,0,0,0,0,0,0,0,0,0,0.000,0,0,0.049,0.004,0.020,-0.040,0.020,0.015,0.993,0.012,0.002,-0.004,-0.002,0.000,0.000,0.000,0.000,0,2,0,3,7,255,1200,200,0,0,-89.323,0.873,-31.431
EX0521-092111,22,C25,prep,2271,2271,0,1097334.091,0.686,-0.675,0.196,0.187,0,0,0,0,0,0,0,0,0,0.000,0,0,0.060,0.004,0.020,-0.040,-0.040,0.015,0.993,0.012,0.002,-0.004,-0.006,0.000,0.000,0.000,0.000,0,2,0,3,7,255,1200,200,0,0,-89.323,0.873,-31.431
EX0521-092111,22,C25,prep,2292,2292,0,1097339.091,0.686,-0.675,0.196,0.187,0,0,0,0,0,0,0,0,0,0.000,0,0,0.060,0.004,-0.040,0.020,-0.040,0.013,0.994,0.011,0.002,-0.004,-0.006,0.000,0.000,0.000,0.000,0,2,0,3,7,255,1200,200,0,0,-89.323,0.873,-31.431
EX0521-092111,22,C25,prep,2292,2292,0,1097344.092,0.686,-0.675,0.196,0.187,0,0,0,0,0,0,0,0,0,0.000,0,0,0.060,0.004,0.020,-0.040,-0.040,0.015,0.994,0.011,0.002,0.004,-0.002,0.000,0.000,0.000,0.000,0,2,0,3,7,255,1200,200,0,0,-89.323,0.873,-31.431
EX0521-092111,22,C25,prep,2293,2293,0,1097349.092,0.686,-0.675,0.196,0.187,0,0,0,0,0,0,0,0,0,0.000,0,0,0.060,0.007,0.020,-0.040,-0.040,0.015,0.994,0.011,0.006,0.004,0.004,0.000,0.000,0.000,0.000,0,2,0,3,7,255,1200,200,0,0,-89.323,0.873,-31.431
EX0521-092111,22,C25,prep,2293,2293,0,1097354.092,0.686,-0.675,0.196,0.187,0,0,0,0,0,0,0,0,0,0.000,0,0,0.069,0.006,-0.040,-0.040,-0.040,0.014,0.993,0.011,0.006,0.002,0.004,0.000,0.000,0.000,0.000,0,2,0,3,7,255,1200,200,0,0,-89.323,0.873,-31.431
EX0521-092111,22,C25,prep,2293,2293,0,1097359.093,0.686,-0.675,0.196,0.187,0,0,0,0,0,0,0,0,0,0.000,0,0,0.060,0.002,0.020,-0.040,-0.040,0.014,0.993,0.011,0.000,0.002,-0.006,0.000,0.000,0.000,0.000,0,2,0,3,7,255,1200,200,0,0,-89.323,0.873,-31.431
EX0521-092111,22,C25,prep,2293,2293,0,1097364.092,0.686,-0.675,0.196,0.187,0,0,0,0,0,0,0,0,0,0.000,0,0,0.049,0.002,0.020,-0.040,0.020,0.014,0.994,0.012,0.000,0.002,-0.006,0.000,0.000,0.000,0.000,0,2,0,3,7,255,1200,200,0,0,-89.323,0.873,-31.431
EX0521-092111,22,C25,prep,2303,2303,0,1097369.092,0.686,-0.675,0.196,0.187,0,0,0,0,0,0,0,0,0,0.000,0,0,0.060,0.003,0.020,-0.040,-0.040,0.014,0.993,0.011,-0.002,0.002,-0.006,0.000,0.000,0.000,0.000,0,2,0,3,7,255,1200,200,0,0,-89.323,0.873,-31.431
EX0521-092111,22,C25,prep,2303,2303,0,1097374.092,0.686,-0.675,0.196,0.187,0,0,0,0,0,0,0,0,0,0.000,0,0,0.060,0.002,0.020,-0.040,-0.040,0.014,0.994,0.012,-0.002,0.000,0.000,0.000,0.000,0.000,0.000,0,2,0,3,7,255,1200,200,0,0,-89.323,0.873,-31.431
EX0521-092111,22,C25,prep,2335,2335,0,1097379.092,0.686,-0.675,0.196,0.187,0,0,0,0,0,0,0,0,0,0.000,0,0,0.060,0.006,0.020,-0.040,-0.040,0.014,0.994,0.011,-0.004,0.004,0.004,0.000,0.000,0.000,0.000,0,2,0,3,7,255,1200,200,0,0,-89.323,0.873,-31.431
EX0521-092111,22,C25,prep,2335,2335,0,1097384.091,0.686,-0.675,0.196,0.187,0,0,0,0,0,0,0,0,0,0.000,0,0,0.060,0.006,0.020,-0.040,-0.040,0.014,0.994,0.012,-0.006,0.000,0.004,0.000,0.000,0.000,0.000,0,2,0,3,7,255,1200,200,0,0,-89.323,0.873,-31.431
EX0521-092111,22,C25,prep,2335,2335,0,1097389.091,0.686,-0.675,0.196,0.187,0,0,0,0,0,0,0,0,0,0.000,0,0,0.049,0.004,0.020,-0.040,0.020,0.015,0.994,0.011,-0.004,0.000,0.000,0.000,0.000,0.000,0.000,0,2,0,3,7,255,1200,200,0,0,-89.323,0.873,-31.431
EX0521-092111,22,C25,prep,2335,2335,0,1097394.092,0.686,-0.675,0.196,0.187,0,0,0,0,0,0,0,0,0,0.000,0,0,0.060,0.004,0.020,-0.040,-0.040,0.015,0.994,0.012,0.004,0.000,0.000,0.000,0.000,0.000,0.000,0,2,0,3,7,255,1200,200,0,0,-89.323,0.873,-31.431
EX0521-092111,22,C25,prep,2335,2335,0,1097399.092,0.686,-0.675,0.196,0.187,0,0,0,0,0,0,0,0,0,0.000,0,0,0.060,0.004,-0.040,-0.040,0.020,0.014,0.993,0.012,0.004,-0.002,0.000,0.000,0.000,0.000,0.000,0,2,0,3,7,255,1200,200,0,0,-89.323,0.873,-31.431
EX0521-092111,22,C25,prep,2335,2335,0,1097404.091,0.686,-0.675,0.196,0.187,0,0,0,0,0,0,0,0,0,0.000,0,0,0.060,0.003,-0.040,0.020,-0.040,0.014,0.994,0.012,-0.002,-0.002,0.000,0.000,0.000,0.000,0.000,0,2,0,3,7,255,1200,200,0,0,-89.323,0.873,-31.431
EX0521-092111,22,C25,prep,2390,2390,0,1097409.091,0.686,-0.675,0.196,0.187,0,0,0,0,0,0,0,0,0,0.000,0,0,0.060,0.003,0.020,-0.040,-0.040,0.015,0.992,0.012,-0.002,-0.002,-0.006,0.000,0.000,0.000,0.000,0,2,0,3,7,255,1200,200,0,0,-89.323,0.873,-31.431
EX0521-092111,22,C25,prep,2390,2390,0,1097414.091,0.686,-0.675,0.196,0.187,0,0,0,0,0,0,0,0,0,0.000,0,0,0.060,0.004,0.020,-0.040,-0.040,0.015,0.995,0.012,0.002,-0.004,0.000,0.000,0.000,0.000,0.000,0,2,0,3,7,255,1200,200,0,0,-89.323,0.873,-31.431
EX0521-092111,22,C25,prep,2390,2390,0,1097419.092,0.686,-0.675,0.196,0.187,0,0,0,0,0,0,0,0,0,0.000,0,0,0.060,0.004,0.020,-0.040,-0.040,0.014,0.993,0.012,0.002,-0.004,-0.010,0.000,0.000,0.000,0.000,0,2,0,3,7,255,1200,200,0,0,-89.323,0.873,-31.431
EX0521-092111,22,C25,prep,2390,2390,0,1097424.093,0.686,-0.675,0.196,0.187,0,0,0,0,0,0,0,0,0,0.000,0,0,0.060,0.007,0.020,-0.040,-0.040,0.014,0.994,0.012,-0.006,-0.004,0.004,0.000,0.000,0.000,0.000,0,2,0,3,7,255,1200,200,0,0,-89.323,0.873,-31.431
EX0521-092111,22,C25,prep,2391,2391,0,1097429.092,0.686,-0.675,0.196,0.187,0,0,0,0,0,0,0,0,0,0.000,0,0,0.130,0.007,0.080,-0.100,0.020,0.015,0.993,0.012,-0.006,-0.004,-0.010,0.000,0.000,0.000,0.000,0,2,0,3,7,255,1200,200,0,0,-89.323,0.873,-31.431
EX0521-092111,22,C25,prep,2391,2391,0,1097434.091,0.686,-0.675,0.196,0.187,0,0,0,0,0,0,0,0,0,0.000,0,0,0.104,0.004,0.020,-0.100,0.020,0.014,0.993,0.010,0.002,-0.004,-0.010,0.000,0.000,0.000,0.000,0,2,0,3,7,255,1200,200,0,0,-89.323,0.873,-31.431
EX0521-092111,22,C25,prep,2392,2392,0,1097439.091,0.686,-0.675,0.196,0.187,0,0,0,0,0,0,0,0,0,0.000,0,0,0.060,0.006,0.020,-0.040,-0.040,0.015,0.993,0.011,0.006,-0.002,-0.010,0.000,0.000,0.000,0.000,0,2,0,3,7,255,1200,200,0,0,-89.323,0.873,-31.431
EX0521-092111,22,C25,prep,2392,2392,0,1097444.092,0.686,-0.675,0.196,0.187,0,0,0,0,0,0,0,0,0,0.000,0,0,0.110,0.006,0.020,-0.100,-0.040,0.014,0.995,0.012,0.006,0.000,-0.010,0.000,0.000,0.000,0.000,0,2,0,3,7,255,1200,200,0,0,-89.323,0.873,-31.431
EX0521-092111,22,C25,prep,2393,2393,0,1097449.092,0.686,-0.675,0.196,0.187,0,0,0,0,0,0,0,0,0,0.000,0,0,0.110,0.006,0.020,-0.040,-0.100,0.015,0.993,0.012,0.006,-0.002,-0.010,0.000,0.000,0.000,0.000,0,2,0,3,7,255,1200,200,0,0,-89.323,0.873,-31.431
EX0521-092111,22,C25,prep,2393,2393,0,1097454.091,0.686,-0.675,0.196,0.187,0,0,0,0,0,0,0,0,0,0.000,0,0,0.060,0.006,0.020,-0.040,-0.040,0.013,0.993,0.011,-0.006,0.000,-0.006,0.000,0.000,0.000,0.000,0,2,0,3,7,255,1200,200,0,0,-89.323,0.873,-31.431
EX0521-092111,22,C25,prep,2393,2393,0,1097459.091,0.686,-0.675,0.196,0.187,0,0,0,0,0,0,0,0,0,0.000,0,0,0.110,0.004,-0.040,-0.100,0.020,0.015,0.994,0.012,0.002,-0.004,-0.006,0.000,0.000,0.000,0.000,0,2,0,3,7,255,1200,200,0,0,-89.323,0.873,-31.431
EX0521-092111,22,C25,prep,2393,2393,0,1097464.092,0.686,-0.675,0.196,0.187,0,0,0,0,0,0,0,0,0,0.000,0,0,0.060,0.004,0.020,-0.040,-0.040,0.015,0.994,0.012,0.002,-0.004,0.000,0.000,0.000,0.000,0.000,0,2,0,3,7,255,1200,200,0,0,-89.323,0.873,-31.431
EX0521-092111,22,C25,prep,2427,2427,0,1097469.092,0.686,-0.675,0.196,0.187,0,0,0,0,0,0,0,0,0,0.000,0,0,0.069,0.004,-0.040,-0.040,-0.040,0.013,0.994,0.011,0.002,-0.004,0.004,0.000,0.000,0.000,0.000,0,2,0,3,7,255,1200,200,0,0,-89.323,0.873,-31.431
EX0521-092111,22,C25,prep,2427,2427,0,1097474.092,0.686,-0.675,0.196,0.187,0,0,0,0,0,0,0,0,0,0.000,0,0,0.060,0.008,0.020,-0.040,-0.040,0.014,0.995,0.011,-0.002,0.008,0.004,0.000,0.000,0.000,0.000,0,2,0,3,7,255,1200,200,0,0,-89.323,0.873,-31.431
EX0521-092111,22,C25,prep,2427,2427,0,1097479.092,0.686,-0.675,0.196,0.187,0,0,0,0,0,0,0,0,0,0.000,0,0,0.049,0.008,0.020,-0.040,0.020,0.015,0.993,0.012,-0.002,0.008,0.004,0.000,0.000,0.000,0.000,0,2,0,3,7,255,1200,200,0,0,-89.323,0.873,-31.431
EX0521-092111,22,C25,prep,2427,2427,0,1097484.091,0.686,-0.675,0.196,0.187,0,0,0,0,0,0,0,0,0,0.000,0,0,0.060,0.000,-0.040,-0.040,0.020,0.015,0.993,0.011,0.000,0.000,-0.006,0.000,0.000,0.000,0.000,0,2,0,3,7,255,1200,200,0,0,-89.323,0.873,-31.431
EX0521-092111,22,C25,prep,2428,2428,0,1097489.091,0.686,-0.675,0.196,0.187,0,0,0,0,0,0,0,0,0,0.000,0,0,0.069,0.000,-0.040,-0.040,-0.040,0.014,0.994,0.012,0.000,0.000,-0.006,0.000,0.000,0.000,0.000,0,2,0,3,7,255,1200,200,0,0,-89.323,0.873,-31.431
EX0521-092111,22,C25,prep,2428,2428,0,1097494.092,0.686,-0.675,0.196,0.187,0,0,0,0,0,0,0,0,0,0.000,0,0,0.060,0.000,0.020,-0.040,-0.040,0.014,0.993,0.011,0.000,0.000,-0.006,0.000,0.000,0.000,0.000,0,2,0,3,7,255,1200,200,0,0,-89.323,0.873,-31.431
EX0521-092111,22,C25,prep,2458,2458,0,1097499.092,0.686,-0.675,0.196,0.187,0,0,0,0,0,0,0,0,0,0.000,0,0,0.110,0.002,0.020,-0.100,-0.040,0.014,0.993,0.011,0.000,0.002,-0.010,0.000,0.000,0.000,0.000,0,2,0,3,7,255,1200,200,0,0,-89.323,0.873,-31.431
EX0521-092111,22,C25,prep,2458,2458,0,1097504.091,0.686,-0.675,0.196,0.187,0,0,0,0,0,0,0,0,0,0.000,0,0,0.049,0.002,0.020,-0.040,0.020,0.014,0.993,0.012,0.000,0.002,-0.010,0.000,0.000,0.000,0.000,0,2,0,3,7,255,1200,200,0,0,-89.323,0.873,-31.431
