experiment_id,condition_order_index,condition_id,condition_phase,condition_phase_elapsed_ms,condition_elapsed_ms,is_stimulation_on,t_ms,R_q0,R_q1,R_q2,R_q3,R_heel1,R_mid1,R_fore1,R_heel2,R_fore3,R_mid2,R_fore4,R_fore2,R_cadence,R_speed,R_steps,R_zupt,R_gyroNorm,R_accH,R_gyro_x,R_gyro_y,R_gyro_z,R_acc_x,R_acc_y,R_acc_z,R_nav_ax,R_nav_ay,R_nav_az,R_stepVel,R_stepVelj,R_stepDispRaw,R_stepDispZUPT,R_gaitEvent,R_motorMode,R_motorActive,R_motorAlignment,R_motorRegionMask,R_motorAmplitude,R_motorIntervalMs,R_motorDurationMs,R_motorPhaseMs,R_motorCycleMs,R_roll,R_pitch,R_yaw
EX0521-092111,27,C18,prep,63,63,0,1309189.092,0.686,-0.675,0.196,0.187,0,0,0,0,0,0,0,0,0,0.000,0,0,0.235,0.022,-0.220,-0.020,0.080,0.016,0.977,0.009,0.010,-0.020,-0.164,0.000,0.000,0.000,0.000,0,2,0,2,7,255,1440,200,0,0,-89.325,0.949,-31.501
EX0521-092111,27,C18,prep,63,63,0,1309194.092,0.686,-0.675,0.196,0.187,0,0,0,0,0,0,0,0,0,0.000,0,0,0.376,0.030,0.260,0.160,-0.220,0.015,1.005,0.006,0.028,0.012,-0.164,0.000,0.000,0.000,0.000,0,2,0,2,7,255,1440,200,0,0,-89.330,0.949,-31.501
EX0521-092111,27,C18,prep,63,63,0,1309199.092,0.686,-0.675,0.196,0.187,0,0,0,0,0,0,0,0,0,0.000,0,0,0.120,0.038,0.080,-0.080,-0.040,0.013,1.037,0.010,0.028,0.026,0.116,0.000,0.000,0.000,0.000,0,2,0,2,7,255,1440,200,0,0,-89.330,0.949,-31.501
EX0521-092111,27,C18,prep,63,63,0,1309204.091,0.686,-0.675,0.196,0.187,0,0,0,0,0,0,0,0,0,0.000,0,0,0.350,0.026,-0.220,-0.080,0.260,0.016,0.969,0.017,-0.004,0.026,0.116,0.000,0.000,0.000,0.000,0,2,0,2,7,255,1440,200,0,0,-89.325,0.949,-31.501
EX0521-092111,27,C18,prep,63,63,0,1309209.092,0.686,-0.675,0.196,0.187,0,0,0,0,0,0,0,0,0,0.000,0,0,0.300,0.024,0.200,0.040,-0.220,0.016,0.982,0.013,-0.004,-0.024,-0.104,0.000,0.000,0.000,0.000,0,2,0,2,7,255,1440,200,0,0,-89.325,0.949,-31.501
EX0521-092111,27,C18,prep,63,63,0,1309214.091,0.686,-0.675,0.196,0.187,0,0,0,0,0,0,0,0,0,0.000,0,0,0.202,0.024,0.140,-0.140,-0.040,0.016,0.992,0.009,0.004,-0.024,-0.104,0.000,0.000,0.000,0.000,0,2,0,2,7,255,1440,200,0,0,-89.325,0.949,-31.501
EX0521-092111,27,C18,prep,63,63,0,1309219.091,0.686,-0.675,0.196,0.187,0,0,0,0,0,0,0,0,0,0.000,0,0,0.294,0.009,-0.280,0.040,0.080,0.012,1.005,0.010,0.004,0.008,-0.008,0.000,0.000,0.000,0.000,0,2,0,2,7,255,1440,200,0,0,-89.325,0.949,-31.501
EX0521-092111,27,C18,prep,63,63,0,1309224.091,0.686,-0.675,0.196,0.187,0,0,0,0,0,0,0,0,0,0.000,0,0,0.424,0.024,0.380,0.100,-0.160,0.013,0.983,0.009,0.000,0.024,-0.008,0.000,0.000,0.000,0.000,0,2,0,2,7,255,1440,200,0,0,-89.325,0.949,-31.501
EX0521-092111,27,C18,prep,63,63,0,1309229.092,0.686,-0.675,0.196,0.187,0,0,0,0,0,0,0,0,0,0.000,0,0,0.371,0.029,-0.280,-0.140,0.200,0.014,0.994,0.015,-0.016,0.024,0.010,0.000,0.000,0.000,0.000,0,2,0,2,7,255,1440,200,0,0,-89.325,0.949,-31.501
EX0521-092111,27,C18,prep,63,63,0,1309234.092,0.686,-0.675,0.196,0.187,0,0,0,0,0,0,0,0,0,0.000,0,0,0.264,0.028,0.140,0.040,-0.220,0.016,1.003,0.015,-0.002,-0.028,0.010,0.000,0.000,0.000,0.000,0,2,0,2,7,255,1440,200,0,0,-89.325,0.949,-31.501
EX0521-092111,27,C18,prep,63,63,0,1309239.092,0.686,-0.675,0.196,0.187,0,0,0,0,0,0,0,0,0,0.000,0,0,0.564,0.028,0.500,-0.140,-0.220,0.015,1.000,0.011,-0.002,-0.028,0.070,0.000,0.000,0.000,0.000,0,2,0,2,7,255,1440,200,0,0,-89.325,0.949,-31.501
EX0521-092111,27,C18,prep,63,63,0,1309244.092,0.686,-0.675,0.196,0.187,0,0,0,0,0,0,0,0,0,0.000,0,0,0.844,0.004,-0.780,0.040,0.320,0.013,0.985,0.007,0.004,0.000,0.070,0.000,0.000,0.000,0.000,0,2,0,2,7,255,1440,200,0,0,-89.321,0.949,-31.501
EX0521-092111,27,C18,prep,63,63,0,1309249.091,0.686,-0.675,0.196,0.187,0,0,0,0,0,0,0,0,0,0.000,0,0,0.665,0.004,0.640,-0.080,-0.160,0.013,0.975,0.012,0.004,0.002,-0.082,0.000,0.000,0.000,0.000,0,2,0,2,7,255,1440,200,0,0,-89.324,0.949,-31.501
EX0521-092111,27,C18,prep,63,63,0,1309254.091,0.686,-0.675,0.196,0.187,0,0,0,0,0,0,0,0,0,0.000,0,0,0.503,0.004,-0.460,0.040,0.200,0.015,0.989,0.012,0.004,0.002,-0.082,0.000,0.000,0.000,0.000,0,2,0,2,7,255,1440,200,0,0,-89.324,0.949,-31.501
EX0521-092111,27,C18,prep,95,95,0,1309259.091,0.686,-0.675,0.196,0.187,0,0,0,0,0,0,0,0,0,0.000,0,0,0.224,0.017,0.200,-0.020,-0.100,0.013,1.025,0.016,-0.012,-0.012,-0.040,0.000,0.000,0.000,0.000,0,2,0,2,7,255,1440,200,0,0,-89.324,0.949,-31.501
EX0521-092111,27,C18,prep,95,95,0,1309264.091,0.686,-0.675,0.196,0.187,0,0,0,0,0,0,0,0,0,0.000,0,0,0.098,0.013,0.080,0.040,-0.040,0.016,0.998,0.010,0.004,-0.012,0.046,0.000,0.000,0.000,0.000,0,2,0,2,7,255,1440,200,0,0,-89.324,0.949,-31.501
EX0521-092111,27,C18,prep,95,95,0,1309269.095,0.686,-0.675,0.196,0.187,0,0,0,0,0,0,0,0,0,0.000,0,0,0.294,0.015,-0.280,0.040,0.080,0.013,0.988,0.013,-0.014,-0.006,0.046,0.000,0.000,0.000,0.000,0,2,0,2,7,255,1440,200,0,0,-89.324,0.949,-31.501
EX0521-092111,27,C18,prep,95,95,0,1309274.092,0.686,-0.675,0.196,0.187,0,0,0,0,0,0,0,0,0,0.000,0,0,0.722,0.018,0.700,-0.080,-0.160,0.015,0.969,0.009,0.018,0.004,-0.050,0.000,0.000,0.000,0.000,0,2,0,2,7,255,1440,200,0,0,-89.328,0.949,-31.501
EX0521-092111,27,C18,prep,95,95,0,1309279.092,0.686,-0.675,0.196,0.187,0,0,0,0,0,0,0,0,0,0.000,0,0,0.482,0.015,-0.460,0.040,0.140,0.015,0.995,0.010,0.014,0.004,-0.050,0.000,0.000,0.000,0.000,0,2,0,2,7,255,1440,200,0,0,-89.328,0.949,-31.501
EX0521-092111,27,C18,prep,95,95,0,1309284.092,0.686,-0.675,0.196,0.187,0,0,0,0,0,0,0,0,0,0.000,0,0,0.202,0.015,0.140,-0.140,-0.040,0.014,1.010,0.015,0.014,0.004,0.016,0.000,0.000,0.000,0.000,0,2,0,2,7,255,1440,200,0,0,-89.328,0.949,-31.501
EX0521-092111,27,C18,prep,112,112,0,1309289.092,0.686,-0.675,0.196,0.187,0,0,0,0,0,0,0,0,0,0.000,0,0,0.553,0.011,0.520,0.100,-0.160,0.015,1.000,0.012,0.004,-0.010,0.066,0.000,0.000,0.000,0.000,0,2,0,2,7,255,1440,200,0,0,-89.328,0.949,-31.501
EX0521-092111,27,C18,prep,112,112,0,1309294.092,0.686,-0.675,0.196,0.187,0,0,0,0,0,0,0,0,0,0.000,0,0,0.864,0.010,-0.840,-0.020,0.200,0.014,0.988,0.012,0.000,-0.010,0.066,0.000,0.000,0.000,0.000,0,2,0,2,7,255,1440,200,0,0,-89.324,0.949,-31.500
EX0521-092111,27,C18,prep,112,112,0,1309299.091,0.686,-0.675,0.196,0.187,0,0,0,0,0,0,0,0,0,0.000,0,0,0.417,0.010,0.380,-0.140,-0.100,0.016,0.979,0.014,0.002,-0.010,-0.054,0.000,0.000,0.000,0.000,0,2,0,2,7,255,1440,200,0,0,-89.324,0.949,-31.500
EX0521-092111,27,C18,prep,112,112,0,1309304.091,0.686,-0.675,0.196,0.187,0,0,0,0,0,0,0,0,0,0.000,0,0,0.708,0.004,0.700,0.040,-0.100,0.016,0.991,0.008,0.002,-0.004,-0.054,0.000,0.000,0.000,0.000,0,2,0,2,7,255,1440,200,0,0,-89.327,0.949,-31.500
EX0521-092111,27,C18,prep,127,127,0,1309309.093,0.686,-0.675,0.196,0.187,0,0,0,0,0,0,0,0,0,0.000,0,0,0.793,0.016,-0.780,-0.020,0.140,0.013,1.010,0.009,0.004,0.016,-0.018,0.000,0.000,0.000,0.000,0,2,0,2,7,255,1440,200,0,0,-89.323,0.949,-31.500
EX0521-092111,27,C18,prep,127,127,0,1309314.091,0.686,-0.675,0.196,0.187,0,0,0,0,0,0,0,0,0,0.000,0,0,0.190,0.016,0.140,-0.080,-0.100,0.014,0.997,0.018,0.004,0.016,0.032,0.000,0.000,0.000,0.000,0,2,0,2,7,255,1440,200,0,0,-89.318,0.949,-31.500
EX0521-092111,27,C18,prep,150,150,0,1309319.092,0.686,-0.675,0.196,0.187,0,0,0,0,0,0,0,0,0,0.000,0,0,1.217,0.013,1.180,0.100,-0.280,0.013,0.995,0.011,-0.004,0.012,0.032,0.000,0.000,0.000,0.000,0,2,0,2,7,255,1440,200,0,0,-89.324,0.949,-31.500
EX0521-092111,27,C18,prep,150,150,0,1309324.092,0.686,-0.675,0.196,0.187,0,0,0,0,0,0,0,0,0,0.000,0,0,1.209,0.013,-1.200,0.040,0.140,0.015,0.993,0.008,-0.004,0.012,0.012,0.000,0.000,0.000,0.000,0,2,0,2,7,255,1440,200,0,0,-89.318,0.949,-31.500
EX0521-092111,27,C18,prep,150,150,0,1309329.092,0.686,-0.675,0.196,0.187,0,0,0,0,0,0,0,0,0,0.000,0,0,0.376,0.013,-0.340,-0.140,0.080,0.016,0.984,0.016,-0.004,0.012,-0.006,0.000,0.000,0.000,0.000,0,2,0,2,7,255,1440,200,0,0,-89.318,0.949,-31.500
EX0521-092111,27,C18,prep,150,150,0,1309334.092,0.686,-0.675,0.196,0.187,0,0,0,0,0,0,0,0,0,0.000,0,0,1.832,0.011,1.800,0.040,-0.340,0.013,0.992,0.011,-0.004,0.010,-0.010,0.000,0.000,0.000,0.000,0,2,0,2,7,255,1440,200,0,0,-89.327,0.949,-31.500
EX0521-092111,27,C18,prep,150,150,0,1309339.092,0.686,-0.675,0.196,0.187,0,0,0,0,0,0,0,0,0,0.000,0,0,0.222,0.011,-0.220,-0.020,0.020,0.013,1.003,0.003,-0.004,0.010,-0.010,0.000,0.000,0.000,0.000,0,2,0,2,7,255,1440,200,0,0,-89.335,0.949,-31.500
EX0521-092111,27,C18,prep,150,150,0,1309344.091,0.686,-0.675,0.196,0.187,0,0,0,0,0,0,0,0,0,0.000,0,0,1.816,0.011,-1.740,-0.140,0.500,0.016,0.988,0.019,-0.004,0.010,-0.010,0.000,0.000,0.000,0.000,0,2,0,2,7,255,1440,200,0,0,-89.324,0.949,-31.500
EX0521-092111,27,C18,prep,160,160,0,1309349.091,0.686,-0.675,0.196,0.187,0,0,0,0,0,0,0,0,0,0.000,0,0,1.159,0.042,1.120,0.100,-0.280,0.015,0.999,0.016,-0.018,-0.038,0.052,0.000,0.000,0.000,0.000,0,2,0,2,7,255,1440,200,0,0,-89.330,0.949,-31.500
EX0521-092111,27,C18,prep,160,160,0,1309354.091,0.686,-0.675,0.196,0.187,0,0,0,0,0,0,0,0,0,0.000,0,0,0.924,0.042,0.880,-0.020,-0.280,0.014,0.993,0.007,-0.018,-0.038,-0.008,0.000,0.000,0.000,0.000,0,2,0,2,7,255,1440,200,0,0,-89.334,0.949,-31.500
EX0521-092111,27,C18,prep,191,191,0,1309359.094,0.686,-0.675,0.196,0.187,0,0,0,0,0,0,0,0,0,0.000,0,0,1.990,0.009,-1.880,-0.200,0.620,0.014,0.991,0.012,-0.008,-0.004,-0.008,0.000,0.000,0.000,0.000,0,2,0,2,7,255,1440,200,0,0,-89.325,0.953,-31.500
EX0521-092111,27,C18,prep,191,191,0,1309364.091,0.686,-0.675,0.196,0.187,0,0,0,0,0,0,0,0,0,0.000,0,0,0.867,0.009,0.820,0.040,-0.280,0.014,0.993,0.013,-0.008,-0.004,-0.008,0.000,0.000,0.000,0.000,0,2,0,2,7,255,1440,200,0,0,-89.329,0.953,-31.500
EX0521-092111,27,C18,prep,191,191,0,1309369.094,0.686,-0.675,0.196,0.187,0,0,0,0,0,0,0,0,0,0.000,0,0,0.393,0.009,0.380,0.100,0.020,0.014,0.998,0.008,-0.008,-0.004,-0.002,0.000,0.000,0.000,0.000,0,2,0,2,7,255,1440,200,0,0,-89.329,0.953,-31.500
EX0521-092111,27,C18,prep,191,191,0,1309374.092,0.686,-0.675,0.196,0.187,0,0,0,0,0,0,0,0,0,0.000,0,0,0.855,0.011,-0.840,-0.080,0.140,0.013,0.998,0.012,-0.010,0.004,0.046,0.000,0.000,0.000,0.000,0,2,0,2,7,255,1440,200,0,0,-89.324,0.953,-31.500
EX0521-092111,27,C18,prep,191,191,0,1309379.092,0.686,-0.675,0.196,0.187,0,0,0,0,0,0,0,0,0,0.000,0,0,0.173,0.011,0.140,-0.020,-0.100,0.014,0.983,0.015,-0.010,0.004,0.046,0.000,0.000,0.000,0.000,0,2,0,2,7,255,1440,200,0,0,-89.324,0.953,-31.500
EX0521-092111,27,C18,prep,191,191,0,1309384.092,0.686,-0.675,0.196,0.187,0,0,0,0,0,0,0,0,0,0.000,0,0,0.642,0.011,0.640,0.040,-0.040,0.014,0.989,0.009,-0.010,0.004,-0.044,0.000,0.000,0.000,0.000,0,2,0,2,7,255,1440,200,0,0,-89.328,0.953,-31.500
EX0521-092111,27,C18,prep,223,223,0,1309389.092,0.686,-0.675,0.196,0.187,0,0,0,0,0,0,0,0,0,0.000,0,0,0.401,0.016,-0.400,-0.020,0.020,0.013,0.998,0.010,-0.004,0.016,-0.044,0.000,0.000,0.000,0.000,0,2,0,2,7,255,1440,200,0,0,-89.328,0.953,-31.500
EX0521-092111,27,C18,prep,223,223,0,1309394.091,0.686,-0.675,0.196,0.187,0,0,0,0,0,0,0,0,0,0.000,0,0,0.350,0.016,-0.340,-0.020,0.080,0.014,0.997,0.015,-0.004,0.016,0.032,0.000,0.000,0.000,0.000,0,2,0,2,7,255,1440,200,0,0,-89.328,0.953,-31.500
EX0521-092111,27,C18,prep,223,223,0,1309399.091,0.686,-0.675,0.196,0.187,0,0,0,0,0,0,0,0,0,0.000,0,0,0.661,0.016,0.640,0.040,-0.160,0.014,1.001,0.009,-0.004,0.016,0.042,0.000,0.000,0.000,0.000,0,2,0,2,7,255,1440,200,0,0,-89.331,0.953,-31.500
EX0521-092111,27,C18,prep,223,223,0,1309404.091,0.686,-0.675,0.196,0.187,0,0,0,0,0,0,0,0,0,0.000,0,0,0.183,0.021,-0.160,-0.080,-0.040,0.014,0.990,0.009,0.010,0.018,0.032,0.000,0.000,0.000,0.000,0,2,0,2,7,255,1440,200,0,0,-89.331,0.953,-31.500
EX0521-092111,27,C18,prep,223,223,0,1309409.092,0.686,-0.675,0.196,0.187,0,0,0,0,0,0,0,0,0,0.000,0,0,0.556,0.021,-0.520,-0.140,0.140,0.015,0.987,0.014,0.010,0.018,-0.032,0.000,0.000,0.000,0.000,0,2,0,2,7,255,1440,200,0,0,-89.331,0.953,-31.500
EX0521-092111,27,C18,prep,223,223,0,1309414.092,0.686,-0.675,0.197,0.187,0,0,0,0,0,0,0,0,0,0.000,0,0,0.836,0.004,0.820,0.040,-0.160,0.014,0.992,0.012,-0.002,-0.004,-0.032,0.000,0.000,0.000,0.000,0,2,0,2,7,255,1440,200,0,0,-89.335,0.953,-31.500
EX0521-092111,27,C18,prep,246,246,0,1309419.092,0.686,-0.675,0.197,0.187,0,0,0,0,0,0,0,0,0,0.000,0,0,0.110,0.004,-0.100,0.040,0.020,0.014,0.996,0.009,-0.002,-0.004,-0.012,0.000,0.000,0.000,0.000,0,2,0,2,7,255,1440,200,0,0,-89.335,0.953,-31.500
EX0521-092111,27,C18,prep,246,246,0,1309424.092,0.686,-0.675,0.197,0.187,0,0,0,0,0,0,0,0,0,0.000,0,0,0.650,0.004,-0.640,-0.080,0.080,0.015,0.997,0.013,-0.002,-0.004,0.026,0.000,0.000,0.000,0.000,0,2,0,2,7,255,1440,200,0,0,-89.332,0.953,-31.500
EX0521-092111,27,C18,prep,246,246,0,1309429.092,0.686,-0.675,0.197,0.187,0,0,0,0,0,0,0,0,0,0.000,0,0,0.526,0.010,0.500,0.040,-0.160,0.015,0.993,0.012,-0.002,-0.010,0.026,0.000,0.000,0.000,0.000,0,2,0,2,7,255,1440,200,0,0,-89.332,0.953,-31.500
EX0521-092111,27,C18,prep,246,246,0,1309434.092,0.686,-0.675,0.197,0.187,0,0,0,0,0,0,0,0,0,0.000,0,0,0.092,0.010,0.080,0.040,0.020,0.014,0.994,0.009,-0.002,-0.010,0.002,0.000,0.000,0.000,0.000,0,2,0,2,7,255,1440,200,0,0,-89.332,0.953,-31.500
EX0521-092111,27,C18,prep,247,247,0,1309439.091,0.686,-0.675,0.197,0.187,0,0,0,0,0,0,0,0,0,0.000,0,0,0.474,0.008,-0.460,-0.080,0.080,0.014,0.994,0.012,-0.002,-0.008,0.002,0.000,0.000,0.000,0.000,0,2,0,2,7,255,1440,200,0,0,-89.332,0.953,-31.500
EX0521-092111,27,C18,prep,247,247,0,1309444.091,0.686,-0.675,0.197,0.187,0,0,0,0,0,0,0,0,0,0.000,0,0,0.281,0.010,0.260,0.040,-0.100,0.014,0.992,0.013,-0.006,-0.008,0.002,0.000,0.000,0.000,0.000,0,2,0,2,7,255,1440,200,0,0,-89.332,0.953,-31.500
EX0521-092111,27,C18,prep,304,304,0,1309449.091,0.686,-0.675,0.197,0.187,0,0,0,0,0,0,0,0,0,0.000,0,0,0.384,0.010,0.380,0.040,-0.040,0.015,0.998,0.010,-0.006,-0.008,0.002,0.000,0.000,0.000,0.000,0,2,0,2,7,255,1440,200,0,0,-89.332,0.953,-31.500
EX0521-092111,27,C18,prep,304,304,0,1309454.091,0.686,-0.675,0.197,0.187,0,0,0,0,0,0,0,0,0,0.000,0,0,0.401,0.009,-0.400,-0.020,0.020,0.015,0.996,0.010,0.008,0.004,0.022,0.000,0.000,0.000,0.000,0,2,0,2,7,255,1440,200,0,0,-89.332,0.953,-31.500
EX0521-092111,27,C18,prep,304,304,0,1309459.092,0.686,-0.675,0.197,0.187,0,0,0,0,0,0,0,0,0,0.000,0,0,0.162,0.009,-0.160,-0.020,0.020,0.015,0.992,0.013,0.008,0.004,0.022,0.000,0.000,0.000,0.000,0,2,0,2,7,255,1440,200,0,0,-89.332,0.953,-31.500
EX0521-092111,27,C18,prep,304,304,0,1309464.092,0.686,-0.675,0.197,0.187,0,0,0,0,0,0,0,0,0,0.000,0,0,0.470,0.006,0.440,0.040,-0.160,0.013,0.991,0.011,-0.004,0.004,-0.016,0.000,0.000,0.000,0.000,0,2,0,2,7,255,1440,200,0,0,-89.332,0.953,-31.500
EX0521-092111,27,C18,prep,304,304,0,1309469.095,0.686,-0.675,0.197,0.187,0,0,0,0,0,0,0,0,0,0.000,0,0,0.281,0.006,-0.280,-0.020,0.020,0.014,0.992,0.011,-0.004,0.004,-0.016,0.000,0.000,0.000,0.000,0,2,0,2,7,255,1440,200,0,0,-89.332,0.953,-31.500
EX0521-092111,27,C18,prep,304,304,0,1309474.092,0.686,-0.675,0.197,0.187,0,0,0,0,0,0,0,0,0,0.000,0,0,0.180,0.009,-0.160,-0.080,0.020,0.015,0.993,0.014,-0.008,0.004,-0.012,0.000,0.000,0.000,0.000,0,2,0,2,7,255,1440,200,0,0,-89.332,0.953,-31.500
EX0521-092111,27,C18,prep,304,304,0,1309479.092,0.686,-0.675,0.197,0.187,0,0,0,0,0,0,0,0,0,0.000,0,0,0.526,0.008,0.500,0.040,-0.160,0.015,0.997,0.012,0.002,-0.008,-0.002,0.000,0.000,0.000,0.000,0,2,0,2,7,255,1440,200,0,0,-89.332,0.953,-31.500
EX0521-092111,27,C18,prep,304,304,0,1309484.091,0.686,-0.675,0.197,0.187,0,0,0,0,0,0,0,0,0,0.000,0,0,0.235,0.010,-0.220,-0.020,0.080,0.014,0.995,0.009,0.006,-0.008,0.016,0.000,0.000,0.000,0.000,0,2,0,2,7,255,1440,200,0,0,-89.332,0.953,-31.500
EX0521-092111,27,C18,prep,306,306,0,1309489.091,0.686,-0.675,0.197,0.187,0,0,0,0,0,0,0,0,0,0.000,0,0,0.350,0.010,-0.340,-0.080,0.020,0.015,0.991,0.012,0.006,-0.008,0.016,0.000,0.000,0.000,0.000,0,2,0,2,7,255,1440,200,0,0,-89.332,0.953,-31.500
EX0521-092111,27,C18,prep,306,306,0,1309494.091,0.686,-0.675,0.197,0.187,0,0,0,0,0,0,0,0,0,0.000,0,0,0.393,0.008,0.380,-0.020,-0.100,0.013,0.992,0.011,-0.002,0.008,-0.012,0.000,0.000,0.000,0.000,0,2,0,2,7,255,1440,200,0,0,-89.332,0.953,-31.500
EX0521-092111,27,C18,prep,306,306,0,1309499.091,0.686,-0.675,0.197,0.187,0,0,0,0,0,0,0,0,0,0.000,0,0,0.092,0.006,0.080,0.040,0.020,0.014,0.994,0.011,-0.004,0.004,-0.012,0.000,0.000,0.000,0.000,0,2,0,2,7,255,1440,200,0,0,-89.332,0.953,-31.500
EX0521-092111,27,C18,prep,306,306,0,1309504.092,0.686,-0.675,0.197,0.187,0,0,0,0,0,0,0,0,0,0.000,0,0,0.292,0.007,-0.280,-0.080,0.020,0.014,0.996,0.012,-0.006,0.004,0.008,0.000,0.000,0.000,0.000,0,2,0,2,7,255,1440,200,0,0,-89.332,0.953,-31.500
EX0521-092111,27,C18,prep,319,319,0,1309509.092,0.686,-0.675,0.197,0.187,0,0,0,0,0,0,0,0,0,0.000,0,0,0.224,0.007,0.200,-0.020,-0.100,0.015,0.994,0.013,-0.004,-0.006,0.008,0.000,0.000,0.000,0.000,0,2,0,2,7,255,1440,200,0,0,-89.332,0.953,-31.500
EX0521-092111,27,C18,prep,319,319,0,1309514.092,0.686,-0.675,0.197,0.187,0,0,0,0,0,0,0,0,0,0.000,0,0,0.151,0.006,0.140,0.040,-0.040,0.015,0.993,0.009,-0.002,-0.006,0.002,0.000,0.000,0.000,0.000,0,2,0,2,7,255,1440,200,0,0,-89.332,0.953,-31.500
EX0521-092111,27,C18,prep,350,350,0,1309519.092,0.686,-0.675,0.197,0.187,0,0,0,0,0,0,0,0,0,0.000,0,0,0.416,0.010,-0.400,-0.080,0.080,0.015,0.991,0.011,0.010,0.000,-0.002,0.000,0.000,0.000,0.000,0,2,0,2,7,255,1440,200,0,0,-89.332,0.953,-31.500
EX0521-092111,27,C18,prep,350,350,0,1309524.092,0.686,-0.675,0.197,0.187,0,0,0,0,0,0,0,0,0,0.000,0,0,0.147,0.010,0.140,-0.020,-0.040,0.013,0.991,0.013,0.010,0.000,-0.022,0.000,0.000,0.000,0.000,0,2,0,2,7,255,1440,200,0,0,-89.332,0.953,-31.500
EX0521-092111,27,C18,prep,350,350,0,1309529.091,0.686,-0.675,0.197,0.187,0,0,0,0,0,0,0,0,0,0.000,0,0,0.266,0.000,0.260,0.040,-0.040,0.014,0.996,0.011,0.000,0.000,-0.022,0.000,0.000,0.000,0.000,0,2,0,2,7,255,1440,200,0,0,-89.332,0.953,-31.500
EX0521-092111,27,C18,prep,350,350,0,1309534.091,0.686,-0.675,0.197,0.187,0,0,0,0,0,0,0,0,0,0.000,0,0,0.281,0.008,-0.280,-0.020,0.020,0.014,0.996,0.012,-0.006,-0.006,0.022,0.000,0.000,0.000,0.000,0,2,0,2,7,255,1440,200,0,0,-89.332,0.953,-31.500
EX0521-092111,27,C18,prep,350,350,0,1309539.091,0.686,-0.675,0.197,0.187,0,0,0,0,0,0,0,0,0,0.000,0,0,0.092,0.008,-0.040,-0.080,0.020,0.014,0.993,0.014,-0.006,-0.006,0.022,0.000,0.000,0.000,0.000,0,2,0,2,7,255,1440,200,0,0,-89.332,0.953,-31.500
EX0521-092111,27,C18,prep,350,350,0,1309544.091,0.686,-0.675,0.197,0.187,0,0,0,0,0,0,0,0,0,0.000,0,0,0.323,0.008,0.320,-0.020,-0.040,0.015,0.991,0.010,-0.006,-0.006,-0.002,0.000,0.000,0.000,0.000,0,2,0,2,7,255,1440,200,0,0,-89.332,0.953,-31.500
EX0521-092111,27,C18,prep,401,401,0,1309549.092,0.686,-0.675,0.197,0.187,0,0,0,0,0,0,0,0,0,0.000,0,0,0.162,0.010,-0.160,-0.020,0.020,0.013,0.991,0.010,-0.002,0.010,-0.022,0.000,0.000,0.000,0.000,0,2,0,2,7,255,1440,200,0,0,-89.332,0.953,-31.500
EX0521-092111,27,C18,prep,401,401,0,1309554.092,0.686,-0.675,0.197,0.187,0,0,0,0,0,0,0,0,0,0.000,0,0,0.180,0.010,-0.160,-0.020,0.080,0.014,0.993,0.014,-0.002,0.010,-0.022,0.000,0.000,0.000,0.000,0,2,0,2,7,255,1440,200,0,0,-89.332,0.953,-31.500
EX0521-092111,27,C18,prep,401,401,0,1309559.095,0.686,-0.675,0.197,0.187,0,0,0,0,0,0,0,0,0,0.000,0,0,0.338,0.002,0.320,0.040,-0.100,0.015,0.997,0.011,-0.002,0.000,-0.006,0.000,0.000,0.000,0.000,0,2,0,2,7,255,1440,200,0,0,-89.332,0.953,-31.500
EX0521-092111,27,C18,prep,401,401,0,1309564.092,0.686,-0.675,0.197,0.187,0,0,0,0,0,0,0,0,0,0.000,0,0,0.060,0.012,-0.040,-0.020,-0.040,0.012,0.997,0.010,-0.012,0.000,0.030,0.000,0.000,0.000,0.000,0,2,0,2,7,255,1440,200,0,0,-89.332,0.953,-31.500
EX0521-092111,27,C18,prep,401,401,0,1309569.094,0.686,-0.675,0.197,0.187,0,0,0,0,0,0,0,0,0,0.000,0,0,0.237,0.012,-0.220,-0.080,-0.040,0.013,0.993,0.012,-0.012,0.000,0.030,0.000,0.000,0.000,0.000,0,2,0,2,7,255,1440,200,0,0,-89.332,0.953,-31.500
EX0521-092111,27,C18,prep,401,401,0,1309574.091,0.686,-0.675,0.197,0.187,0,0,0,0,0,0,0,0,0,0.000,0,0,0.264,0.020,0.260,-0.020,-0.040,0.013,0.991,0.010,-0.012,0.016,-0.002,0.000,0.000,0.000,0.000,0,2,0,2,7,255,1440,200,0,0,-89.332,0.953,-31.500
EX0521-092111,27,C18,prep,417,417,0,1309579.091,0.686,-0.675,0.197,0.187,0,0,0,0,0,0,0,0,0,0.000,0,0,0.092,0.012,0.080,0.040,0.020,0.015,0.992,0.010,-0.006,0.010,-0.012,0.000,0.000,0.000,0.000,0,2,0,2,7,255,1440,200,0,0,-89.332,0.953,-31.500
EX0521-092111,27,C18,prep,417,417,0,1309584.091,0.686,-0.675,0.197,0.187,0,0,0,0,0,0,0,0,0,0.000,0,0,0.222,0.011,-0.220,-0.020,0.020,0.014,0.994,0.012,-0.004,0.010,-0.012,0.000,0.000,0.000,0.000,0,2,0,2,7,255,1440,200,0,0,-89.332,0.953,-31.500
EX0521-092111,27,C18,prep,419,419,0,1309589.091,0.686,-0.675,0.197,0.187,0,0,0,0,0,0,0,0,0,0.000,0,0,0.151,0.008,0.140,0.040,-0.040,0.015,0.995,0.013,-0.002,-0.008,0.008,0.000,0.000,0.000,0.000,0,2,0,2,7,255,1440,200,0,0,-89.332,0.953,-31.500
EX0521-092111,27,C18,prep,419,419,0,1309594.092,0.686,-0.675,0.197,0.187,0,0,0,0,0,0,0,0,0,0.000,0,0,0.147,0.008,0.140,-0.020,-0.040,0.016,0.994,0.011,-0.002,-0.008,0.008,0.000,0.000,0.000,0.000,0,2,0,2,7,255,1440,200,0,0,-89.332,0.953,-31.500
EX0521-092111,27,C18,prep,420,420,0,1309599.092,0.686,-0.675,0.197,0.187,0,0,0,0,0,0,0,0,0,0.000,0,0,0.247,0.006,-0.220,-0.080,0.080,0.014,0.993,0.012,-0.002,-0.006,0.002,0.000,0.000,0.000,0.000,0,2,0,2,7,255,1440,200,0,0,-89.332,0.953,-31.500
EX0521-092111,27,C18,prep,420,420,0,1309604.092,0.686,-0.675,0.197,0.187,0,0,0,0,0,0,0,0,0,0.000,0,0,0.147,0.004,0.140,-0.020,-0.040,0.014,0.992,0.012,-0.002,-0.004,-0.008,0.000,0.000,0.000,0.000,0,2,0,2,7,255,1440,200,0,0,-89.332,0.953,-31.500
EX0521-092111,27,C18,prep,420,420,0,1309609.093,0.686,-0.675,0.197,0.187,0,0,0,0,0,0,0,0,0,0.000,0,0,0.205,0.006,0.200,-0.020,-0.040,0.012,0.993,0.011,-0.006,0.000,-0.008,0.000,0.000,0.000,0.000,0,2,0,2,7,255,1440,200,0,0,-89.332,0.953,-31.500
EX0521-092111,27,C18,prep,420,420,0,1309614.092,0.686,-0.675,0.197,0.187,0,0,0,0,0,0,0,0,0,0.000,0,0,0.162,0.006,-0.160,-0.020,0.020,0.014,0.996,0.012,-0.006,0.000,-0.002,0.000,0.000,0.000,0.000,0,2,0,2,7,255,1440,200,0,0,-89.332,0.953,-31.500
EX0521-092111,27,C18,prep,431,431,0,1309619.092,0.686,-0.675,0.197,0.187,0,0,0,0,0,0,0,0,0,0.000,0,0,0.104,0.009,-0.100,-0.020,0.020,0.014,0.996,0.012,-0.008,-0.004,0.026,0.000,0.000,0.000,0.000,0,2,0,2,7,255,1440,200,0,0,-89.332,0.953,-31.500
EX0521-092111,27,C18,prep,431,431,0,1309624.091,0.686,-0.675,0.197,0.187,0,0,0,0,0,0,0,0,0,0.000,0,0,0.208,0.006,0.200,0.040,-0.040,0.014,0.994,0.011,-0.004,-0.004,0.026,0.000,0.000,0.000,0.000,0,2,0,2,7,255,1440,200,0,0,-89.332,0.953,-31.500
EX0521-092111,27,C18,prep,447,447,0,1309629.091,0.686,-0.675,0.197,0.187,0,0,0,0,0,0,0,0,0,0.000,0,0,0.110,0.006,-0.100,-0.020,-0.040,0.014,0.991,0.012,-0.004,-0.004,0.006,0.000,0.000,0.000,0.000,0,2,0,2,7,255,1440,200,0,0,-89.332,0.953,-31.500
EX0521-092111,27,C18,prep,447,447,0,1309634.091,0.686,-0.675,0.197,0.187,0,0,0,0,0,0,0,0,0,0.000,0,0,0.180,0.006,-0.160,-0.080,0.020,0.014,0.991,0.012,-0.004,-0.004,-0.022,0.000,0.000,0.000,0.000,0,2,0,2,7,255,1440,200,0,0,-89.332,0.953,-31.500
EX0521-092111,27,C18,prep,447,447,0,1309639.091,0.686,-0.675,0.197,0.187,0,0,0,0,0,0,0,0,0,0.000,0,0,0.279,0.009,0.260,-0.020,-0.100,0.014,0.995,0.013,-0.004,-0.008,-0.022,0.000,0.000,0.000,0.000,0,2,0,2,7,255,1440,200,0,0,-89.332,0.953,-31.500
EX0521-092111,27,C18,prep,447,447,0,1309644.092,0.686,-0.675,0.197,0.187,0,0,0,0,0,0,0,0,0,0.000,0,0,0.049,0.009,0.020,-0.020,-0.040,0.015,0.997,0.011,-0.004,-0.008,0.012,0.000,0.000,0.000,0.000,0,2,0,2,7,255,1440,200,0,0,-89.332,0.953,-31.500
EX0521-092111,27,C18,prep,495,495,0,1309649.092,0.686,-0.675,0.197,0.187,0,0,0,0,0,0,0,0,0,0.000,0,0,0.180,0.010,-0.160,-0.080,0.020,0.015,0.995,0.013,-0.002,-0.010,0.016,0.000,0.000,0.000,0.000,0,2,0,2,7,255,1440,200,0,0,-89.332,0.953,-31.500
EX0521-092111,27,C18,prep,495,495,0,1309654.092,0.686,-0.675,0.197,0.187,0,0,0,0,0,0,0,0,0,0.000,0,0,0.098,0.009,0.080,0.040,-0.040,0.015,0.993,0.011,0.008,-0.004,0.016,0.000,0.000,0.000,0.000,0,2,0,2,7,255,1440,200,0,0,-89.332,0.953,-31.500
EX0521-092111,27,C18,prep,495,495,0,1309659.092,0.686,-0.675,0.197,0.187,0,0,0,0,0,0,0,0,0,0.000,0,0,0.085,0.007,0.020,-0.080,0.020,0.014,0.993,0.009,0.006,-0.004,-0.008,0.000,0.000,0.000,0.000,0,2,0,2,7,255,1440,200,0,0,-89.332,0.953,-31.500
EX0521-092111,27,C18,prep,495,495,0,1309664.092,0.686,-0.675,0.197,0.187,0,0,0,0,0,0,0,0,0,0.000,0,0,0.110,0.007,-0.100,-0.020,-0.040,0.015,0.994,0.012,0.006,-0.004,-0.008,0.000,0.000,0.000,0.000,0,2,0,2,7,255,1440,200,0,0,-89.332,0.953,-31.500
EX0521-092111,27,C18,prep,495,495,0,1309669.093,0.686,-0.675,0.197,0.187,0,0,0,0,0,0,0,0,0,0.000,0,0,0.092,0.008,0.080,-0.020,-0.040,0.015,0.994,0.012,0.006,-0.006,0.006,0.000,0.000,0.000,0.000,0,2,0,2,7,255,1440,200,0,0,-89.332,0.953,-31.500
EX0521-092111,27,C18,prep,495,495,0,1309674.091,0.686,-0.675,0.197,0.187,0,0,0,0,0,0,0,0,0,0.000,0,0,0.092,0.010,0.080,-0.020,-0.040,0.015,0.995,0.012,0.006,-0.008,0.006,0.000,0.000,0.000,0.000,0,2,0,2,7,255,1440,200,0,0,-89.332,0.953,-31.500
EX0521-092111,27,C18,prep,523,523,0,1309679.091,0.686,-0.675,0.197,0.187,0,0,0,0,0,0,0,0,0,0.000,0,0,0.162,0.007,-0.160,-0.020,0.020,0.015,0.993,0.011,0.004,-0.006,0.006,0.000,0.000,0.000,0.000,0,2,0,2,7,255,1440,200,0,0,-89.332,0.953,-31.500
EX0521-092111,27,C18,prep,523,523,0,1309684.091,0.686,-0.675,0.197,0.187,0,0,0,0,0,0,0,0,0,0.000,0,0,0.060,0.009,-0.040,-0.020,-0.040,0.015,0.993,0.012,0.004,-0.008,-0.002,0.000,0.000,0.000,0.000,0,2,0,2,7,255,1440,200,0,0,-89.332,0.953,-31.500
EX0521-092111,27,C18,prep,523,523,0,1309689.092,0.686,-0.675,0.197,0.187,0,0,0,0,0,0,0,0,0,0.000,0,0,0.085,0.004,0.080,-0.020,0.020,0.014,0.993,0.011,0.004,-0.002,-0.002,0.000,0.000,0.000,0.000,0,2,0,2,7,255,1440,200,0,0,-89.332,0.953,-31.500
EX0521-092111,27,C18,prep,523,523,0,1309694.092,0.686,-0.675,0.197,0.187,0,0,0,0,0,0,0,0,0,0.000,0,0,0.130,0.002,-0.100,-0.020,0.080,0.014,0.994,0.012,0.000,-0.002,-0.002,0.000,0.000,0.000,0.000,0,2,0,2,7,255,1440,200,0,0,-89.332,0.953,-31.500
EX0521-092111,27,C18,prep,524,524,0,1309699.092,0.686,-0.675,0.197,0.187,0,0,0,0,0,0,0,0,0,0.000,0,0,0.049,0.003,-0.040,-0.020,0.020,0.014,0.995,0.013,-0.002,-0.002,0.006,0.000,0.000,0.000,0.000,0,2,0,2,7,255,1440,200,0,0,-89.332,0.953,-31.500
EX0521-092111,27,C18,prep,524,524,0,1309704.092,0.686,-0.675,0.197,0.187,0,0,0,0,0,0,0,0,0,0.000,0,0,0.147,0.013,0.140,-0.020,-0.040,0.014,0.996,0.013,-0.008,-0.010,0.016,0.000,0.000,0.000,0.000,0,2,0,2,7,255,1440,200,0,0,-89.332,0.953,-31.500
EX0521-092111,27,C18,prep,525,525,0,1309709.092,0.686,-0.675,0.197,0.187,0,0,0,0,0,0,0,0,0,0.000,0,0,0.104,0.013,-0.100,-0.020,0.020,0.016,0.994,0.011,-0.008,-0.010,0.016,0.000,0.000,0.000,0.000,0,2,0,2,7,255,1440,200,0,0,-89.332,0.953,-31.500
EX0521-092111,27,C18,prep,525,525,0,1309714.092,0.686,-0.675,0.197,0.187,0,0,0,0,0,0,0,0,0,0.000,0,0,0.104,0.002,-0.100,-0.020,0.020,0.014,0.991,0.011,0.000,-0.002,0.002,0.000,0.000,0.000,0.000,0,2,0,2,7,255,1440,200,0,0,-89.332,0.953,-31.500
EX0521-092111,27,C18,prep,543,543,0,1309719.091,0.686,-0.675,0.197,0.187,0,0,0,0,0,0,0,0,0,0.000,0,0,0.085,0.002,0.080,-0.020,0.020,0.013,0.992,0.011,0.000,0.002,-0.012,0.000,0.000,0.000,0.000,0,2,0,2,7,255,1440,200,0,0,-89.332,0.953,-31.500
EX0521-092111,27,C18,prep,543,543,0,1309724.091,0.686,-0.675,0.197,0.187,0,0,0,0,0,0,0,0,0,0.000,0,0,0.069,0.002,-0.040,0.040,-0.040,0.015,0.995,0.011,0.000,0.002,-0.012,0.000,0.000,0.000,0.000,0,2,0,2,7,255,1440,200,0,0,-89.332,0.953,-31.500
EX0521-092111,27,C18,prep,543,543,0,1309729.091,0.686,-0.675,0.197,0.187,0,0,0,0,0,0,0,0,0,0.000,0,0,0.104,0.004,-0.100,-0.020,0.020,0.014,0.995,0.012,-0.004,0.000,0.012,0.000,0.000,0.000,0.000,0,2,0,2,7,255,1440,200,0,0,-89.332,0.953,-31.500
EX0521-092111,27,C18,prep,543,543,0,1309734.091,0.686,-0.675,0.197,0.187,0,0,0,0,0,0,0,0,0,0.000,0,0,0.085,0.004,0.080,-0.020,0.020,0.013,0.995,0.012,-0.004,-0.002,0.012,0.000,0.000,0.000,0.000,0,2,0,2,7,255,1440,200,0,0,-89.332,0.953,-31.500
EX0521-092111,27,C18,prep,543,543,0,1309739.092,0.686,-0.675,0.197,0.187,0,0,0,0,0,0,0,0,0,0.000,0,0,0.092,0.004,0.020,-0.080,-0.040,0.014,0.993,0.011,-0.004,-0.002,0.010,0.000,0.000,0.000,0.000,0,2,0,2,7,255,1440,200,0,0,-89.332,0.953,-31.500
EX0521-092111,27,C18,prep,543,543,0,1309744.092,0.686,-0.675,0.197,0.187,0,0,0,0,0,0,0,0,0,0.000,0,0,0.104,0.003,-0.100,-0.020,0.020,0.014,0.992,0.012,-0.002,-0.002,-0.008,0.000,0.000,0.000,0.000,0,2,0,2,7,255,1440,200,0,0,-89.332,0.953,-31.500
EX0521-092111,27,C18,prep,559,559,0,1309749.092,0.686,-0.675,0.197,0.187,0,0,0,0,0,0,0,0,0,0.000,0,0,0.060,0.003,-0.040,-0.020,-0.040,0.014,0.993,0.012,-0.002,-0.002,-0.008,0.000,0.000,0.000,0.000,0,2,0,2,7,255,1440,200,0,0,-89.332,0.953,-31.500
EX0521-092111,27,C18,prep,559,559,0,1309754.092,0.686,-0.675,0.197,0.187,0,0,0,0,0,0,0,0,0,0.000,0,0,0.104,0.008,0.020,-0.020,-0.100,0.013,0.994,0.011,-0.008,-0.002,-0.004,0.000,0.000,0.000,0.000,0,2,0,2,7,255,1440,200,0,0,-89.332,0.953,-31.500
EX0521-092111,27,C18,prep,580,580,0,1309759.093,0.686,-0.675,0.197,0.187,0,0,0,0,0,0,0,0,0,0.000,0,0,0.060,0.008,-0.040,-0.020,-0.040,0.014,0.995,0.012,-0.008,-0.002,0.002,0.000,0.000,0.000,0.000,0,2,0,2,7,255,1440,200,0,0,-89.332,0.953,-31.500
EX0521-092111,27,C18,prep,580,580,0,1309764.093,0.686,-0.675,0.197,0.187,0,0,0,0,0,0,0,0,0,0.000,0,0,0.035,0.008,0.020,-0.020,0.020,0.014,0.993,0.012,-0.008,-0.002,0.002,0.000,0.000,0.000,0.000,0,2,0,2,7,255,1440,200,0,0,-89.332,0.953,-31.500
EX0521-092111,27,C18,prep,580,580,0,1309769.093,0.686,-0.675,0.197,0.187,0,0,0,0,0,0,0,0,0,0.000,0,0,0.092,0.006,0.080,-0.020,-0.040,0.014,0.994,0.012,-0.006,-0.002,0.006,0.000,0.000,0.000,0.000,0,2,0,2,7,255,1440,200,0,0,-89.332,0.953,-31.500
EX0521-092111,27,C18,prep,580,580,0,1309774.091,0.686,-0.675,0.197,0.187,0,0,0,0,0,0,0,0,0,0.000,0,0,0.060,0.006,-0.040,0.040,0.020,0.015,0.994,0.011,-0.006,0.000,0.002,0.000,0.000,0.000,0.000,0,2,0,2,7,255,1440,200,0,0,-89.332,0.953,-31.500
EX0521-092111,27,C18,prep,617,617,0,1309779.093,0.686,-0.675,0.197,0.187,0,0,0,0,0,0,0,0,0,0.000,0,0,0.049,0.002,0.020,-0.020,-0.040,0.014,0.994,0.012,-0.002,0.000,0.002,0.000,0.000,0.000,0.000,0,2,0,2,7,255,1440,200,0,0,-89.332,0.953,-31.500
EX0521-092111,27,C18,prep,617,617,0,1309784.092,0.686,-0.675,0.197,0.187,0,0,0,0,0,0,0,0,0,0.000,0,0,0.092,0.002,0.080,-0.020,-0.040,0.014,0.996,0.012,-0.002,0.000,0.002,0.000,0.000,0.000,0.000,0,2,0,2,7,255,1440,200,0,0,-89.332,0.953,-31.500
EX0521-092111,27,C18,prep,619,619,0,1309789.092,0.686,-0.675,0.197,0.187,0,0,0,0,0,0,0,0,0,0.000,0,0,0.049,0.006,-0.040,-0.020,0.020,0.014,0.995,0.012,-0.006,0.000,0.016,0.000,0.000,0.000,0.000,0,2,0,2,7,255,1440,200,0,0,-89.332,0.953,-31.500
EX0521-092111,27,C18,prep,619,619,0,1309794.092,0.686,-0.675,0.197,0.187,0,0,0,0,0,0,0,0,0,0.000,0,0,0.049,0.006,-0.040,-0.020,0.020,0.014,0.994,0.012,-0.006,0.000,0.016,0.000,0.000,0.000,0.000,0,2,0,2,7,255,1440,200,0,0,-89.332,0.953,-31.500
EX0521-092111,27,C18,prep,620,620,0,1309799.092,0.686,-0.675,0.197,0.187,0,0,0,0,0,0,0,0,0,0.000,0,0,0.085,0.004,0.080,-0.020,0.020,0.014,0.993,0.012,-0.004,-0.002,0.006,0.000,0.000,0.000,0.000,0,2,0,2,7,255,1440,200,0,0,-89.332,0.953,-31.500
EX0521-092111,27,C18,prep,620,620,0,1309804.092,0.686,-0.675,0.197,0.187,0,0,0,0,0,0,0,0,0,0.000,0,0,0.092,0.003,0.080,-0.020,-0.040,0.014,0.992,0.010,-0.002,-0.002,-0.008,0.000,0.000,0.000,0.000,0,2,0,2,7,255,1440,200,0,0,-89.332,0.953,-31.500
EX0521-092111,27,C18,prep,620,620,0,1309809.092,0.686,-0.675,0.197,0.187,0,0,0,0,0,0,0,0,0,0.000,0,0,0.104,0.004,-0.100,-0.020,0.020,0.015,0.993,0.012,0.004,-0.002,-0.008,0.000,0.000,0.000,0.000,0,2,0,2,7,255,1440,200,0,0,-89.332,0.953,-31.500
EX0521-092111,27,C18,prep,620,620,0,1309814.091,0.686,-0.675,0.197,0.187,0,0,0,0,0,0,0,0,0,0.000,0,0,0.092,0.009,0.080,0.040,0.020,0.015,0.993,0.012,0.004,-0.008,-0.008,0.000,0.000,0.000,0.000,0,2,0,2,7,255,1440,200,0,0,-89.332,0.953,-31.500
EX0521-092111,27,C18,prep,650,650,0,1309819.091,0.686,-0.675,0.197,0.187,0,0,0,0,0,0,0,0,0,0.000,0,0,0.120,0.008,0.080,-0.080,-0.040,0.013,0.993,0.011,0.000,-0.008,-0.008,0.000,0.000,0.000,0.000,0,2,0,2,7,255,1440,200,0,0,-89.332,0.953,-31.500
EX0521-092111,27,C18,prep,650,650,0,1309824.091,0.686,-0.675,0.197,0.187,0,0,0,0,0,0,0,0,0,0.000,0,0,0.060,0.004,-0.040,0.040,0.020,0.015,0.994,0.012,0.000,-0.004,-0.004,0.000,0.000,0.000,0.000,0,2,0,2,7,255,1440,200,0,0,-89.332,0.953,-31.500
EX0521-092111,27,C18,prep,650,650,0,1309829.091,0.686,-0.675,0.197,0.187,0,0,0,0,0,0,0,0,0,0.000,0,0,0.104,0.004,0.020,-0.020,-0.100,0.015,0.995,0.012,0.002,-0.004,0.002,0.000,0.000,0.000,0.000,0,2,0,2,7,255,1440,200,0,0,-89.332,0.953,-31.500
EX0521-092111,27,C18,prep,650,650,0,1309834.092,0.686,-0.675,0.197,0.187,0,0,0,0,0,0,0,0,0,0.000,0,0,0.092,0.004,0.080,0.040,0.020,0.014,0.993,0.011,0.002,-0.004,0.002,0.000,0.000,0.000,0.000,0,2,0,2,7,255,1440,200,0,0,-89.332,0.953,-31.500
EX0521-092111,27,C18,prep,652,652,0,1309839.092,0.686,-0.675,0.197,0.187,0,0,0,0,0,0,0,0,0,0.000,0,0,0.130,0.002,-0.100,-0.080,0.020,0.013,0.993,0.012,0.000,0.002,-0.004,0.000,0.000,0.000,0.000,0,2,0,2,7,255,1440,200,0,0,-89.332,0.953,-31.500
EX0521-092111,27,C18,prep,652,652,0,1309844.092,0.686,-0.675,0.197,0.187,0,0,0,0,0,0,0,0,0,0.000,0,0,0.049,0.004,-0.040,-0.020,0.020,0.014,0.993,0.012,-0.004,0.002,-0.008,0.000,0.000,0.000,0.000,0,2,0,2,7,255,1440,200,0,0,-89.332,0.953,-31.500
EX0521-092111,27,C18,prep,687,687,0,1309849.092,0.686,-0.675,0.197,0.187,0,0,0,0,0,0,0,0,0,0.000,0,0,0.049,0.007,0.020,0.040,0.020,0.016,0.993,0.012,-0.004,-0.006,-0.008,0.000,0.000,0.000,0.000,0,2,0,2,7,255,1440,200,0,0,-89.332,0.953,-31.500
EX0521-092111,27,C18,prep,687,687,0,1309854.092,0.686,-0.675,0.197,0.187,0,0,0,0,0,0,0,0,0,0.000,0,0,0.060,0.008,-0.040,-0.020,-0.040,0.015,0.993,0.011,0.006,-0.006,-0.008,0.000,0.000,0.000,0.000,0,2,0,2,7,255,1440,200,0,0,-89.332,0.953,-31.500
EX0521-092111,27,C18,prep,716,716,0,1309859.091,0.686,-0.675,0.197,0.187,0,0,0,0,0,0,0,0,0,0.000,0,0,0.049,0.007,-0.040,-0.020,0.020,0.015,0.993,0.012,0.006,-0.004,-0.008,0.000,0.000,0.000,0.000,0,2,0,2,7,255,1440,200,0,0,-89.332,0.953,-31.500
EX0521-092111,27,C18,prep,716,716,0,1309864.091,0.686,-0.675,0.197,0.187,0,0,0,0,0,0,0,0,0,0.000,0,0,0.085,0.007,0.080,-0.020,0.020,0.015,0.992,0.012,0.006,-0.004,-0.008,0.000,0.000,0.000,0.000,0,2,0,2,7,255,1440,200,0,0,-89.332,0.953,-31.500
EX0521-092111,27,C18,prep,716,716,0,1309869.093,0.686,-0.675,0.197,0.187,0,0,0,0,0,0,0,0,0,0.000,0,0,0.049,0.007,0.020,-0.020,-0.040,0.015,0.995,0.011,0.006,-0.004,-0.008,0.000,0.000,0.000,0.000,0,2,0,2,7,255,1440,200,0,0,-89.332,0.953,-31.500
EX0521-092111,27,C18,prep,716,716,0,1309874.091,0.686,-0.675,0.197,0.187,0,0,0,0,0,0,0,0,0,0.000,0,0,0.049,0.008,-0.040,-0.020,0.020,0.014,0.995,0.012,0.006,-0.006,0.012,0.000,0.000,0.000,0.000,0,2,0,2,7,255,1440,200,0,0,-89.332,0.953,-31.500
EX0521-092111,27,C18,prep,717,717,0,1309879.093,0.686,-0.675,0.197,0.187,0,0,0,0,0,0,0,0,0,0.000,0,0,0.049,0.007,0.020,-0.020,-0.040,0.014,0.993,0.012,-0.004,-0.006,0.012,0.000,0.000,0.000,0.000,0,2,0,2,7,255,1440,200,0,0,-89.332,0.953,-31.500
EX0521-092111,27,C18,prep,717,717,0,1309884.092,0.686,-0.675,0.197,0.187,0,0,0,0,0,0,0,0,0,0.000,0,0,0.035,0.007,0.020,-0.020,0.020,0.014,0.993,0.012,-0.004,-0.006,-0.004,0.000,0.000,0.000,0.000,0,2,0,2,7,255,1440,200,0,0,-89.332,0.953,-31.500
EX0521-092111,27,C18,prep,718,718,0,1309889.092,0.686,-0.675,0.197,0.187,0,0,0,0,0,0,0,0,0,0.000,0,0,0.049,0.007,-0.040,-0.020,0.020,0.013,0.994,0.012,-0.004,-0.006,-0.004,0.000,0.000,0.000,0.000,0,2,0,2,7,255,1440,200,0,0,-89.332,0.953,-31.500
EX0521-092111,27,C18,prep,718,718,0,1309894.092,0.686,-0.675,0.197,0.187,0,0,0,0,0,0,0,0,0,0.000,0,0,0.092,0.006,0.080,-0.020,-0.040,0.014,0.993,0.011,-0.004,0.004,-0.004,0.000,0.000,0.000,0.000,0,2,0,2,7,255,1440,200,0,0,-89.332,0.953,-31.500
EX0521-092111,27,C18,prep,718,718,0,1309899.092,0.686,-0.675,0.197,0.187,0,0,0,0,0,0,0,0,0,0.000,0,0,0.092,0.004,0.080,-0.020,-0.040,0.014,0.993,0.012,-0.002,0.004,-0.004,0.000,0.000,0.000,0.000,0,2,0,2,7,255,1440,200,0,0,-89.332,0.953,-31.500
EX0521-092111,27,C18,prep,718,718,0,1309904.091,0.686,-0.675,0.197,0.187,0,0,0,0,0,0,0,0,0,0.000,0,0,0.092,0.003,-0.040,-0.080,0.020,0.014,0.995,0.012,-0.002,-0.002,-0.004,0.000,0.000,0.000,0.000,0,2,0,2,7,255,1440,200,0,0,-89.332,0.953,-31.500
EX0521-092111,27,C18,prep,749,749,0,1309909.092,0.686,-0.675,0.197,0.187,0,0,0,0,0,0,0,0,0,0.000,0,0,0.069,0.006,-0.040,0.040,-0.040,0.015,0.993,0.012,-0.002,-0.006,-0.002,0.000,0.000,0.000,0.000,0,2,0,2,7,255,1440,200,0,0,-89.332,0.953,-31.500
EX0521-092111,27,C18,prep,749,749,0,1309914.091,0.686,-0.675,0.197,0.187,0,0,0,0,0,0,0,0,0,0.000,0,0,0.035,0.007,0.020,-0.020,0.020,0.014,0.994,0.011,0.004,-0.006,0.006,0.000,0.000,0.000,0.000,0,2,0,2,7,255,1440,200,0,0,-89.332,0.953,-31.500
EX0521-092111,27,C18,prep,749,749,0,1309919.091,0.686,-0.675,0.197,0.187,0,0,0,0,0,0,0,0,0,0.000,0,0,0.060,0.007,-0.040,-0.020,-0.040,0.014,0.993,0.012,0.004,-0.006,-0.002,0.000,0.000,0.000,0.000,0,2,0,2,7,255,1440,200,0,0,-89.332,0.953,-31.500
EX0521-092111,27,C18,prep,749,749,0,1309924.091,0.686,-0.675,0.197,0.187,0,0,0,0,0,0,0,0,0,0.000,0,0,0.085,0.003,0.020,-0.080,0.020,0.014,0.993,0.011,0.002,0.002,-0.004,0.000,0.000,0.000,0.000,0,2,0,2,7,255,1440,200,0,0,-89.332,0.953,-31.500
EX0521-092111,27,C18,prep,749,749,0,1309929.092,0.686,-0.675,0.197,0.187,0,0,0,0,0,0,0,0,0,0.000,0,0,0.092,0.006,0.080,-0.020,-0.040,0.015,0.993,0.012,0.000,-0.006,-0.004,0.000,0.000,0.000,0.000,0,2,0,2,7,255,1440,200,0,0,-89.332,0.953,-31.500
EX0521-092111,27,C18,prep,749,749,0,1309934.092,0.686,-0.675,0.197,0.187,0,0,0,0,0,0,0,0,0,0.000,0,0,0.092,0.004,0.020,-0.080,-0.040,0.015,0.993,0.012,0.002,-0.004,-0.004,0.000,0.000,0.000,0.000,0,2,0,2,7,255,1440,200,0,0,-89.332,0.953,-31.500
EX0521-092111,27,C18,prep,750,750,0,1309939.092,0.686,-0.675,0.197,0.187,0,0,0,0,0,0,0,0,0,0.000,0,0,0.060,0.004,0.020,0.040,-0.040,0.015,0.994,0.011,0.002,-0.004,-0.002,0.000,0.000,0.000,0.000,0,2,0,2,7,255,1440,200,0,0,-89.332,0.953,-31.500
EX0521-092111,27,C18,prep,750,750,0,1309944.092,0.686,-0.675,0.197,0.187,0,0,0,0,0,0,0,0,0,0.000,0,0,0.104,0.002,0.020,-0.020,-0.100,0.014,0.993,0.011,0.002,0.000,-0.004,0.000,0.000,0.000,0.000,0,2,0,2,7,255,1440,200,0,0,-89.332,0.953,-31.500
EX0521-092111,27,C18,prep,779,779,0,1309949.092,0.686,-0.675,0.197,0.187,0,0,0,0,0,0,0,0,0,0.000,0,0,0.049,0.000,0.020,-0.020,-0.040,0.014,0.994,0.012,0.000,0.000,0.006,0.000,0.000,0.000,0.000,0,2,0,2,7,255,1440,200,0,0,-89.332,0.953,-31.500
EX0521-092111,27,C18,prep,779,779,0,1309954.091,0.686,-0.675,0.197,0.187,0,0,0,0,0,0,0,0,0,0.000,0,0,0.049,0.000,0.020,-0.020,-0.040,0.015,0.994,0.011,0.000,0.000,0.006,0.000,0.000,0.000,0.000,0,2,0,2,7,255,1440,200,0,0,-89.332,0.953,-31.500
EX0521-092111,27,C18,prep,799,799,0,1309959.093,0.686,-0.675,0.197,0.187,0,0,0,0,0,0,0,0,0,0.000,0,0,0.060,0.004,0.020,0.040,-0.040,0.015,0.994,0.012,0.004,-0.002,0.006,0.000,0.000,0.000,0.000,0,2,0,2,7,255,1440,200,0,0,-89.332,0.953,-31.500
EX0521-092111,27,C18,prep,799,799,0,1309964.091,0.686,-0.675,0.197,0.187,0,0,0,0,0,0,0,0,0,0.000,0,0,0.049,0.004,0.020,0.040,0.020,0.014,0.995,0.012,0.004,0.000,0.006,0.000,0.000,0.000,0.000,0,2,0,2,7,255,1440,200,0,0,-89.332,0.953,-31.500
EX0521-092111,27,C18,prep,816,816,0,1309969.095,0.686,-0.675,0.197,0.187,0,0,0,0,0,0,0,0,0,0.000,0,0,0.092,0.007,-0.040,-0.080,0.020,0.014,0.993,0.012,-0.006,-0.004,0.006,0.000,0.000,0.000,0.000,0,2,0,2,7,255,1440,200,0,0,-89.332,0.953,-31.500
EX0521-092111,27,C18,prep,816,816,0,1309974.092,0.686,-0.675,0.197,0.187,0,0,0,0,0,0,0,0,0,0.000,0,0,0.049,0.006,0.020,-0.020,-0.040,0.014,0.994,0.012,-0.006,0.002,0.002,0.000,0.000,0.000,0.000,0,2,0,2,7,255,1440,200,0,0,-89.332,0.953,-31.500
EX0521-092111,27,C18,prep,817,817,0,1309979.092,0.686,-0.675,0.197,0.187,0,0,0,0,0,0,0,0,0,0.000,0,0,0.049,0.006,0.020,-0.020,-0.040,0.014,0.993,0.011,-0.006,0.002,-0.004,0.000,0.000,0.000,0.000,0,2,0,2,7,255,1440,200,0,0,-89.332,0.953,-31.500
EX0521-092111,27,C18,prep,817,817,0,1309984.092,0.686,-0.675,0.197,0.187,0,0,0,0,0,0,0,0,0,0.000,0,0,0.069,0.004,-0.040,0.040,-0.040,0.015,0.994,0.012,-0.004,0.002,0.002,0.000,0.000,0.000,0.000,0,2,0,2,7,255,1440,200,0,0,-89.332,0.953,-31.500
EX0521-092111,27,C18,prep,818,818,0,1309989.092,0.686,-0.675,0.197,0.187,0,0,0,0,0,0,0,0,0,0.000,0,0,0.049,0.008,0.020,0.040,0.020,0.015,0.994,0.012,0.006,-0.006,0.002,0.000,0.000,0.000,0.000,0,2,0,2,7,255,1440,200,0,0,-89.332,0.953,-31.500
EX0521-092111,27,C18,prep,818,818,0,1309994.092,0.686,-0.675,0.197,0.187,0,0,0,0,0,0,0,0,0,0.000,0,0,0.115,0.008,0.080,-0.080,0.020,0.015,0.994,0.011,0.006,-0.006,0.002,0.000,0.000,0.000,0.000,0,2,0,2,7,255,1440,200,0,0,-89.332,0.953,-31.500
EX0521-092111,27,C18,prep,831,831,0,1309999.092,0.686,-0.675,0.197,0.187,0,0,0,0,0,0,0,0,0,0.000,0,0,0.035,0.007,0.020,-0.020,0.020,0.016,0.994,0.011,0.006,-0.004,0.002,0.000,0.000,0.000,0.000,0,2,0,2,7,255,1440,200,0,0,-89.332,0.953,-31.500
EX0521-092111,27,C18,prep,831,831,0,1310004.091,0.686,-0.675,0.197,0.187,0,0,0,0,0,0,0,0,0,0.000,0,0,0.060,0.004,-0.040,-0.020,-0.040,0.014,0.994,0.012,0.004,-0.002,0.006,0.000,0.000,0.000,0.000,0,2,0,2,7,255,1440,200,0,0,-89.332,0.953,-31.500
EX0521-092111,27,C18,prep,831,831,0,1310009.093,0.686,-0.675,0.197,0.187,0,0,0,0,0,0,0,0,0,0.000,0,0,0.049,0.004,0.020,-0.020,-0.040,0.015,0.993,0.012,0.002,-0.004,0.006,0.000,0.000,0.000,0.000,0,2,0,2,7,255,1440,200,0,0,-89.332,0.953,-31.500
EX0521-092111,27,C18,prep,831,831,0,1310014.091,0.686,-0.675,0.197,0.187,0,0,0,0,0,0,0,0,0,0.000,0,0,0.092,0.003,0.020,-0.080,-0.040,0.014,0.994,0.012,-0.002,-0.002,0.006,0.000,0.000,0.000,0.000,0,2,0,2,7,255,1440,200,0,0,-89.332,0.953,-31.500
EX0521-092111,27,C18,prep,831,831,0,1310019.091,0.686,-0.675,0.197,0.187,0,0,0,0,0,0,0,0,0,0.000,0,0,0.049,0.003,-0.040,-0.020,0.020,0.014,0.993,0.011,0.002,-0.002,-0.004,0.000,0.000,0.000,0.000,0,2,0,2,7,255,1440,200,0,0,-89.332,0.953,-31.500
EX0521-092111,27,C18,prep,831,831,0,1310024.092,0.686,-0.675,0.197,0.187,0,0,0,0,0,0,0,0,0,0.000,0,0,0.035,0.006,0.020,-0.020,0.020,0.014,0.993,0.011,0.000,0.006,-0.004,0.000,0.000,0.000,0.000,0,2,0,2,7,255,1440,200,0,0,-89.332,0.953,-31.500
EX0521-092111,27,C18,prep,850,850,0,1310029.092,0.686,-0.675,0.197,0.187,0,0,0,0,0,0,0,0,0,0.000,0,0,0.049,0.006,0.020,-0.020,-0.040,0.014,0.993,0.012,0.000,0.006,-0.004,0.000,0.000,0.000,0.000,0,2,0,2,7,255,1440,200,0,0,-89.332,0.953,-31.500
EX0521-092111,27,C18,prep,850,850,0,1310034.092,0.686,-0.675,0.197,0.187,0,0,0,0,0,0,0,0,0,0.000,0,0,0.035,0.004,0.020,-0.020,0.020,0.014,0.993,0.012,-0.004,0.002,-0.004,0.000,0.000,0.000,0.000,0,2,0,2,7,255,1440,200,0,0,-89.332,0.953,-31.500
EX0521-092111,27,C18,prep,851,851,0,1310039.092,0.686,-0.675,0.197,0.187,0,0,0,0,0,0,0,0,0,0.000,0,0,0.035,0.006,0.020,-0.020,0.020,0.014,0.993,0.012,-0.006,0.000,-0.004,0.000,0.000,0.000,0.000,0,2,0,2,7,255,1440,200,0,0,-89.332,0.953,-31.500
EX0521-092111,27,C18,prep,851,851,0,1310044.092,0.686,-0.675,0.197,0.187,0,0,0,0,0,0,0,0,0,0.000,0,0,0.049,0.006,0.020,-0.020,-0.040,0.015,0.993,0.012,-0.006,0.000,-0.004,0.000,0.000,0.000,0.000,0,2,0,2,7,255,1440,200,0,0,-89.332,0.953,-31.500
EX0521-092111,27,C18,prep,863,863,0,1310049.092,0.686,-0.675,0.197,0.187,0,0,0,0,0,0,0,0,0,0.000,0,0,0.049,0.003,-0.040,-0.020,0.020,0.014,0.993,0.012,-0.002,-0.002,-0.008,0.000,0.000,0.000,0.000,0,2,0,2,7,255,1440,200,0,0,-89.332,0.953,-31.500
EX0521-092111,27,C18,prep,863,863,0,1310054.091,0.686,-0.675,0.197,0.187,0,0,0,0,0,0,0,0,0,0.000,0,0,0.049,0.003,0.020,-0.020,-0.040,0.014,0.993,0.011,-0.002,-0.002,-0.004,0.000,0.000,0.000,0.000,0,2,0,2,7,255,1440,200,0,0,-89.332,0.953,-31.500
EX0521-092111,27,C18,prep,895,895,0,1310059.091,0.686,-0.675,0.197,0.187,0,0,0,0,0,0,0,0,0,0.000,0,0,0.092,0.003,0.080,-0.020,-0.040,0.015,0.993,0.012,-0.002,-0.002,-0.008,0.000,0.000,0.000,0.000,0,2,0,2,7,255,1440,200,0,0,-89.332,0.953,-31.500
EX0521-092111,27,C18,prep,895,895,0,1310064.092,0.686,-0.675,0.197,0.187,0,0,0,0,0,0,0,0,0,0.000,0,0,0.049,0.004,-0.040,-0.020,0.020,0.014,0.993,0.012,-0.004,0.000,-0.008,0.000,0.000,0.000,0.000,0,2,0,2,7,255,1440,200,0,0,-89.332,0.953,-31.500
EX0521-092111,27,C18,prep,918,918,0,1310069.095,0.686,-0.675,0.197,0.187,0,0,0,0,0,0,0,0,0,0.000,0,0,0.069,0.002,-0.040,0.040,-0.040,0.015,0.993,0.011,0.002,0.000,-0.008,0.000,0.000,0.000,0.000,0,2,0,2,7,255,1440,200,0,0,-89.332,0.953,-31.500
EX0521-092111,27,C18,prep,918,918,0,1310074.092,0.686,-0.675,0.197,0.187,0,0,0,0,0,0,0,0,0,0.000,0,0,0.049,0.006,0.020,-0.020,-0.040,0.015,0.993,0.012,0.006,0.000,-0.008,0.000,0.000,0.000,0.000,0,2,0,2,7,255,1440,200,0,0,-89.332,0.953,-31.500
EX0521-092111,27,C18,prep,919,919,0,1310079.092,0.686,-0.675,0.197,0.187,0,0,0,0,0,0,0,0,0,0.000,0,0,0.060,0.006,-0.040,-0.020,-0.040,0.015,0.994,0.011,0.006,0.000,-0.002,0.000,0.000,0.000,0.000,0,2,0,2,7,255,1440,200,0,0,-89.332,0.953,-31.500
EX0521-092111,27,C18,prep,919,919,0,1310084.092,0.686,-0.675,0.197,0.187,0,0,0,0,0,0,0,0,0,0.000,0,0,0.049,0.004,0.020,-0.020,-0.040,0.014,0.993,0.012,0.004,-0.002,-0.002,0.000,0.000,0.000,0.000,0,2,0,2,7,255,1440,200,0,0,-89.332,0.953,-31.500
EX0521-092111,27,C18,prep,920,920,0,1310089.092,0.686,-0.675,0.197,0.187,0,0,0,0,0,0,0,0,0,0.000,0,0,0.049,0.000,0.020,-0.020,-0.040,0.014,0.993,0.011,0.000,0.000,-0.002,0.000,0.000,0.000,0.000,0,2,0,2,7,255,1440,200,0,0,-89.332,0.953,-31.500
EX0521-092111,27,C18,prep,920,920,0,1310094.092,0.686,-0.675,0.197,0.187,0,0,0,0,0,0,0,0,0,0.000,0,0,0.049,0.002,0.020,-0.020,-0.040,0.014,0.992,0.012,-0.002,0.000,-0.008,0.000,0.000,0.000,0.000,0,2,0,2,7,255,1440,200,0,0,-89.332,0.953,-31.500
EX0521-092111,27,C18,prep,921,921,0,1310099.091,0.686,-0.675,0.197,0.187,0,0,0,0,0,0,0,0,0,0.000,0,0,0.092,0.000,-0.040,-0.080,0.020,0.015,0.993,0.011,0.000,0.000,-0.008,0.000,0.000,0.000,0.000,0,2,0,2,7,255,1440,200,0,0,-89.332,0.953,-31.500
EX0521-092111,27,C18,prep,921,921,0,1310104.093,0.686,-0.675,0.197,0.187,0,0,0,0,0,0,0,0,0,0.000,0,0,0.085,0.004,0.080,-0.020,0.020,0.015,0.994,0.011,0.004,0.000,-0.008,0.000,0.000,0.000,0.000,0,2,0,2,7,255,1440,200,0,0,-89.332,0.953,-31.500
EX0521-092111,27,C18,prep,927,927,0,1310109.092,0.686,-0.675,0.197,0.187,0,0,0,0,0,0,0,0,0,0.000,0,0,0.060,0.004,-0.040,-0.020,-0.040,0.014,0.992,0.011,0.004,0.000,-0.008,0.000,0.000,0.000,0.000,0,2,0,2,7,255,1440,200,0,0,-89.332,0.953,-31.500
EX0521-092111,27,C18,prep,927,927,0,1310114.091,0.686,-0.675,0.197,0.187,0,0,0,0,0,0,0,0,0,0.000,0,0,0.049,0.002,-0.040,-0.020,0.020,0.014,0.995,0.012,0.000,0.002,0.006,0.000,0.000,0.000,0.000,0,2,0,2,7,255,1440,200,0,0,-89.332,0.953,-31.500
EX0521-092111,27,C18,prep,927,927,0,1310119.092,0.686,-0.675,0.197,0.187,0,0,0,0,0,0,0,0,0,0.000,0,0,0.049,0.002,0.020,-0.020,-0.040,0.015,0.994,0.012,0.000,0.002,0.008,0.000,0.000,0.000,0.000,0,2,0,2,7,255,1440,200,0,0,-89.332,0.953,-31.500
EX0521-092111,27,C18,prep,927,927,0,1310124.092,0.686,-0.675,0.197,0.187,0,0,0,0,0,0,0,0,0,0.000,0,0,0.049,0.003,0.020,-0.020,-0.040,0.014,0.994,0.010,0.002,0.002,0.008,0.000,0.000,0.000,0.000,0,2,0,2,7,255,1440,200,0,0,-89.332,0.953,-31.500
EX0521-092111,27,C18,prep,950,950,0,1310129.092,0.686,-0.675,0.197,0.187,0,0,0,0,0,0,0,0,0,0.000,0,0,0.035,0.008,0.020,-0.020,0.020,0.015,0.993,0.012,0.006,-0.006,0.002,0.000,0.000,0.000,0.000,0,2,0,2,7,255,1440,200,0,0,-89.332,0.953,-31.500
EX0521-092111,27,C18,prep,950,950,0,1310134.092,0.686,-0.675,0.197,0.187,0,0,0,0,0,0,0,0,0,0.000,0,0,0.049,0.007,-0.040,-0.020,0.020,0.015,0.993,0.011,0.006,0.004,-0.002,0.000,0.000,0.000,0.000,0,2,0,2,7,255,1440,200,0,0,-89.332,0.953,-31.500
EX0521-092111,27,C18,prep,959,959,0,1310139.092,0.686,-0.675,0.197,0.187,0,0,0,0,0,0,0,0,0,0.000,0,0,0.085,0.006,0.020,-0.080,0.020,0.014,0.994,0.011,0.006,0.002,-0.002,0.000,0.000,0.000,0.000,0,2,0,2,7,255,1440,200,0,0,-89.332,0.953,-31.500
EX0521-092111,27,C18,prep,959,959,0,1310144.091,0.686,-0.675,0.197,0.187,0,0,0,0,0,0,0,0,0,0.000,0,0,0.035,0.004,0.020,-0.020,0.020,0.014,0.993,0.011,0.000,0.004,-0.008,0.000,0.000,0.000,0.000,0,2,0,2,7,255,1440,200,0,0,-89.332,0.953,-31.500
EX0521-092111,27,C18,prep,959,959,0,1310149.091,0.686,-0.675,0.197,0.187,0,0,0,0,0,0,0,0,0,0.000,0,0,0.049,0.003,-0.040,-0.020,0.020,0.014,0.992,0.012,-0.002,0.002,-0.008,0.000,0.000,0.000,0.000,0,2,0,2,7,255,1440,200,0,0,-89.332,0.953,-31.500
EX0521-092111,27,C18,prep,959,959,0,1310154.091,0.686,-0.675,0.197,0.187,0,0,0,0,0,0,0,0,0,0.000,0,0,0.035,0.003,0.020,-0.020,0.020,0.014,0.993,0.011,-0.002,0.002,-0.008,0.000,0.000,0.000,0.000,0,2,0,2,7,255,1440,200,0,0,-89.332,0.953,-31.500
EX0521-092111,27,C18,prep,991,991,0,1310159.093,0.686,-0.675,0.197,0.187,0,0,0,0,0,0,0,0,0,0.000,0,0,0.060,0.003,-0.040,-0.020,-0.040,0.014,0.994,0.011,-0.002,0.002,-0.008,0.000,0.000,0.000,0.000,0,2,0,2,7,255,1440,200,0,0,-89.332,0.953,-31.500
EX0521-092111,27,C18,prep,991,991,0,1310164.092,0.686,-0.675,0.197,0.187,0,0,0,0,0,0,0,0,0,0.000,0,0,0.060,0.002,-0.040,-0.020,-0.040,0.014,0.993,0.011,0.000,0.002,-0.008,0.000,0.000,0.000,0.000,0,2,0,2,7,255,1440,200,0,0,-89.332,0.953,-31.500
EX0521-092111,27,C18,prep,1027,1027,0,1310169.092,0.686,-0.675,0.197,0.187,0,0,0,0,0,0,0,0,0,0.000,0,0,0.085,0.004,0.080,-0.020,0.020,0.014,0.995,0.012,-0.004,0.002,0.002,0.000,0.000,0.000,0.000,0,2,0,2,7,255,1440,200,0,0,-89.332,0.953,-31.500
EX0521-092111,27,C18,prep,1027,1027,0,1310174.093,0.686,-0.675,0.197,0.187,0,0,0,0,0,0,0,0,0,0.000,0,0,0.049,0.002,0.020,-0.020,-0.040,0.015,0.994,0.011,0.000,0.002,0.002,0.000,0.000,0.000,0.000,0,2,0,2,7,255,1440,200,0,0,-89.332,0.953,-31.500
EX0521-092111,27,C18,prep,1028,1028,0,1310179.092,0.686,-0.675,0.197,0.187,0,0,0,0,0,0,0,0,0,0.000,0,0,0.049,0.004,-0.040,-0.020,0.020,0.013,0.991,0.012,-0.004,0.002,0.002,0.000,0.000,0.000,0.000,0,2,0,2,7,255,1440,200,0,0,-89.332,0.953,-31.500
EX0521-092111,27,C18,prep,1028,1028,0,1310184.092,0.686,-0.675,0.197,0.187,0,0,0,0,0,0,0,0,0,0.000,0,0,0.049,0.006,0.020,-0.020,-0.040,0.014,0.992,0.011,-0.004,0.004,-0.012,0.000,0.000,0.000,0.000,0,2,0,2,7,255,1440,200,0,0,-89.332,0.953,-31.500
EX0521-092111,27,C18,prep,1030,1030,0,1310189.092,0.686,-0.675,0.197,0.187,0,0,0,0,0,0,0,0,0,0.000,0,0,0.035,0.004,0.020,-0.020,0.020,0.015,0.993,0.011,-0.004,0.002,-0.012,0.000,0.000,0.000,0.000,0,2,0,2,7,255,1440,200,0,0,-89.332,0.953,-31.500
EX0521-092111,27,C18,prep,1030,1030,0,1310194.091,0.686,-0.675,0.197,0.187,0,0,0,0,0,0,0,0,0,0.000,0,0,0.085,0.004,0.080,-0.020,0.020,0.015,0.993,0.011,0.004,0.000,-0.006,0.000,0.000,0.000,0.000,0,2,0,2,7,255,1440,200,0,0,-89.332,0.953,-31.500
EX0521-092111,27,C18,prep,1031,1031,0,1310199.091,0.686,-0.675,0.197,0.187,0,0,0,0,0,0,0,0,0,0.000,0,0,0.085,0.008,0.080,-0.020,0.020,0.016,0.994,0.012,0.008,-0.002,-0.002,0.000,0.000,0.000,0.000,0,2,0,2,7,255,1440,200,0,0,-89.332,0.953,-31.500
EX0521-092111,27,C18,prep,1031,1031,0,1310204.091,0.686,-0.675,0.197,0.187,0,0,0,0,0,0,0,0,0,0.000,0,0,0.060,0.008,-0.040,-0.020,-0.040,0.013,0.993,0.012,0.008,-0.002,-0.002,0.000,0.000,0.000,0.000,0,2,0,2,7,255,1440,200,0,0,-89.332,0.953,-31.500
EX0521-092111,27,C18,prep,1031,1031,0,1310209.092,0.686,-0.675,0.197,0.187,0,0,0,0,0,0,0,0,0,0.000,0,0,0.049,0.004,-0.040,-0.020,0.020,0.015,0.994,0.012,0.002,-0.004,0.002,0.000,0.000,0.000,0.000,0,2,0,2,7,255,1440,200,0,0,-89.332,0.953,-31.500
EX0521-092111,27,C18,prep,1031,1031,0,1310214.092,0.686,-0.675,0.197,0.187,0,0,0,0,0,0,0,0,0,0.000,0,0,0.049,0.002,0.020,-0.020,-0.040,0.015,0.993,0.011,0.002,0.000,-0.002,0.000,0.000,0.000,0.000,0,2,0,2,7,255,1440,200,0,0,-89.332,0.953,-31.500
EX0521-092111,27,C18,prep,1032,1032,0,1310219.092,0.686,-0.675,0.197,0.187,0,0,0,0,0,0,0,0,0,0.000,0,0,0.069,0.006,-0.040,0.040,-0.040,0.016,0.993,0.011,0.004,-0.004,-0.002,0.000,0.000,0.000,0.000,0,2,0,2,7,255,1440,200,0,0,-89.332,0.953,-31.500
EX0521-092111,27,C18,prep,1032,1032,0,1310224.092,0.686,-0.675,0.197,0.187,0,0,0,0,0,0,0,0,0,0.000,0,0,0.049,0.004,0.020,-0.020,-0.040,0.013,0.992,0.011,0.004,0.000,-0.002,0.000,0.000,0.000,0.000,0,2,0,2,7,255,1440,200,0,0,-89.332,0.953,-31.500
EX0521-092111,27,C18,prep,1032,1032,0,1310229.092,0.686,-0.675,0.197,0.187,0,0,0,0,0,0,0,0,0,0.000,0,0,0.060,0.012,-0.040,-0.020,-0.040,0.015,0.993,0.011,0.012,0.002,-0.006,0.000,0.000,0.000,0.000,0,2,0,2,7,255,1440,200,0,0,-89.332,0.953,-31.500
EX0521-092111,27,C18,prep,1032,1032,0,1310234.092,0.686,-0.675,0.197,0.187,0,0,0,0,0,0,0,0,0,0.000,0,0,0.049,0.006,0.020,-0.020,-0.040,0.014,0.993,0.011,-0.004,0.004,-0.006,0.000,0.000,0.000,0.000,0,2,0,2,7,255,1440,200,0,0,-89.332,0.953,-31.500
EX0521-092111,27,C18,prep,1055,1055,0,1310239.092,0.686,-0.675,0.197,0.187,0,0,0,0,0,0,0,0,0,0.000,0,0,0.049,0.004,0.020,0.040,0.020,0.015,0.993,0.011,0.004,0.002,-0.006,0.000,0.000,0.000,0.000,0,2,0,2,7,255,1440,200,0,0,-89.332,0.953,-31.500
EX0521-092111,27,C18,prep,1055,1055,0,1310244.091,0.686,-0.675,0.197,0.187,0,0,0,0,0,0,0,0,0,0.000,0,0,0.049,0.004,0.020,0.040,0.020,0.016,0.993,0.012,0.004,0.000,-0.002,0.000,0.000,0.000,0.000,0,2,0,2,7,255,1440,200,0,0,-89.332,0.953,-31.500
EX0521-092111,27,C18,prep,1055,1055,0,1310249.091,0.686,-0.675,0.197,0.187,0,0,0,0,0,0,0,0,0,0.000,0,0,0.035,0.004,0.020,-0.020,0.020,0.014,0.993,0.011,0.004,0.000,-0.002,0.000,0.000,0.000,0.000,0,2,0,2,7,255,1440,200,0,0,-89.332,0.953,-31.500
EX0521-092111,27,C18,prep,1055,1055,0,1310254.091,0.686,-0.675,0.197,0.187,0,0,0,0,0,0,0,0,0,0.000,0,0,0.085,0.002,0.020,-0.080,0.020,0.014,0.994,0.011,0.000,0.002,-0.002,0.000,0.000,0.000,0.000,0,2,0,2,7,255,1440,200,0,0,-89.332,0.953,-31.500
EX0521-092111,27,C18,prep,1087,1087,0,1310259.091,0.686,-0.675,0.197,0.187,0,0,0,0,0,0,0,0,0,0.000,0,0,0.060,0.004,-0.040,-0.020,-0.040,0.013,0.994,0.012,-0.004,0.002,0.002,0.000,0.000,0.000,0.000,0,2,0,2,7,255,1440,200,0,0,-89.332,0.953,-31.500
EX0521-092111,27,C18,prep,1087,1087,0,1310264.092,0.686,-0.675,0.197,0.187,0,0,0,0,0,0,0,0,0,0.000,0,0,0.092,0.010,0.080,0.040,0.020,0.013,0.992,0.011,-0.010,0.002,0.002,0.000,0.000,0.000,0.000,0,2,0,2,7,255,1440,200,0,0,-89.332,0.953,-31.500
EX0521-092111,27,C18,prep,1114,1114,0,1310269.092,0.686,-0.675,0.197,0.187,0,0,0,0,0,0,0,0,0,0.000,0,0,0.049,0.010,-0.040,-0.020,0.020,0.014,0.992,0.011,-0.010,0.002,-0.012,0.000,0.000,0.000,0.000,0,2,0,2,7,255,1440,200,0,0,-89.332,0.953,-31.500
EX0521-092111,27,C18,prep,1114,1114,0,1310274.093,0.686,-0.675,0.197,0.187,0,0,0,0,0,0,0,0,0,0.000,0,0,0.035,0.011,0.020,-0.020,0.020,0.013,0.992,0.011,-0.008,0.008,-0.012,0.000,0.000,0.000,0.000,0,2,0,2,7,255,1440,200,0,0,-89.332,0.953,-31.500
EX0521-092111,27,C18,prep,1115,1115,0,1310279.092,0.686,-0.675,0.197,0.187,0,0,0,0,0,0,0,0,0,0.000,0,0,0.035,0.002,0.020,-0.020,0.020,0.014,0.993,0.011,0.000,0.002,-0.012,0.000,0.000,0.000,0.000,0,2,0,2,7,255,1440,200,0,0,-89.332,0.953,-31.500
EX0521-092111,27,C18,prep,1115,1115,0,1310284.092,0.686,-0.675,0.197,0.187,0,0,0,0,0,0,0,0,0,0.000,0,0,0.060,0.006,-0.040,-0.020,-0.040,0.014,0.992,0.011,0.000,0.006,-0.012,0.000,0.000,0.000,0.000,0,2,0,2,7,255,1440,200,0,0,-89.332,0.953,-31.500
EX0521-092111,27,C18,prep,1150,1150,0,1310289.091,0.686,-0.675,0.197,0.187,0,0,0,0,0,0,0,0,0,0.000,0,0,0.120,0.002,0.080,-0.080,-0.040,0.014,0.993,0.012,0.000,0.002,-0.006,0.000,0.000,0.000,0.000,0,2,0,2,7,255,1440,200,0,0,-89.332,0.953,-31.500
EX0521-092111,27,C18,prep,1150,1150,0,1310294.091,0.686,-0.675,0.197,0.187,0,0,0,0,0,0,0,0,0,0.000,0,0,0.060,0.003,0.020,0.040,-0.040,0.014,0.993,0.012,-0.002,-0.002,-0.006,0.000,0.000,0.000,0.000,0,2,0,2,7,255,1440,200,0,0,-89.332,0.953,-31.500
EX0521-092111,27,C18,prep,1150,1150,0,1310299.091,0.686,-0.675,0.197,0.187,0,0,0,0,0,0,0,0,0,0.000,0,0,0.060,0.003,0.020,0.040,-0.040,0.014,0.993,0.012,-0.002,-0.002,-0.002,0.000,0.000,0.000,0.000,0,2,0,2,7,255,1440,200,0,0,-89.332,0.953,-31.500
EX0521-092111,27,C18,prep,1150,1150,0,1310304.091,0.686,-0.675,0.197,0.187,0,0,0,0,0,0,0,0,0,0.000,0,0,0.049,0.003,0.020,-0.020,-0.040,0.014,0.994,0.011,-0.002,-0.002,-0.002,0.000,0.000,0.000,0.000,0,2,0,2,7,255,1440,200,0,0,-89.332,0.953,-31.500
EX0521-092111,27,C18,prep,1150,1150,0,1310309.093,0.686,-0.675,0.197,0.187,0,0,0,0,0,0,0,0,0,0.000,0,0,0.049,0.006,0.020,-0.020,-0.040,0.015,0.994,0.011,0.004,0.004,0.004,0.000,0.000,0.000,0.000,0,2,0,2,7,255,1440,200,0,0,-89.332,0.953,-31.500
EX0521-092111,27,C18,prep,1150,1150,0,1310314.092,0.686,-0.675,0.197,0.187,0,0,0,0,0,0,0,0,0,0.000,0,0,0.060,0.006,-0.040,-0.020,-0.040,0.015,0.994,0.011,0.004,0.004,0.004,0.000,0.000,0.000,0.000,0,2,0,2,7,255,1440,200,0,0,-89.332,0.953,-31.500
EX0521-092111,27,C18,prep,1150,1150,0,1310319.092,0.686,-0.675,0.197,0.187,0,0,0,0,0,0,0,0,0,0.000,0,0,0.092,0.004,0.020,-0.080,-0.040,0.015,0.994,0.012,0.004,0.000,0.004,0.000,0.000,0.000,0.000,0,2,0,2,7,255,1440,200,0,0,-89.332,0.953,-31.500
EX0521-092111,27,C18,prep,1150,1150,0,1310324.092,0.686,-0.675,0.197,0.187,0,0,0,0,0,0,0,0,0,0.000,0,0,0.069,0.004,-0.040,0.040,-0.040,0.015,0.994,0.012,0.002,-0.004,0.004,0.000,0.000,0.000,0.000,0,2,0,2,7,255,1440,200,0,0,-89.332,0.953,-31.500
EX0521-092111,27,C18,prep,1152,1152,0,1310329.092,0.686,-0.675,0.197,0.187,0,0,0,0,0,0,0,0,0,0.000,0,0,0.049,0.004,-0.040,-0.020,0.020,0.014,0.993,0.011,0.002,-0.004,0.004,0.000,0.000,0.000,0.000,0,2,0,2,7,255,1440,200,0,0,-89.332,0.953,-31.500
EX0521-092111,27,C18,prep,1152,1152,0,1310334.091,0.686,-0.675,0.197,0.187,0,0,0,0,0,0,0,0,0,0.000,0,0,0.060,0.003,-0.040,-0.020,-0.040,0.014,0.994,0.012,-0.002,-0.002,0.004,0.000,0.000,0.000,0.000,0,2,0,2,7,255,1440,200,0,0,-89.332,0.953,-31.500
EX0521-092111,27,C18,prep,1153,1153,0,1310339.091,0.686,-0.675,0.197,0.187,0,0,0,0,0,0,0,0,0,0.000,0,0,0.049,0.002,0.020,-0.020,-0.040,0.014,0.994,0.012,-0.002,0.000,0.004,0.000,0.000,0.000,0.000,0,2,0,2,7,255,1440,200,0,0,-89.332,0.953,-31.500
EX0521-092111,27,C18,prep,1153,1153,0,1310344.091,0.686,-0.675,0.197,0.187,0,0,0,0,0,0,0,0,0,0.000,0,0,0.092,0.006,0.080,-0.020,-0.040,0.014,0.994,0.012,-0.006,-0.002,0.008,0.000,0.000,0.000,0.000,0,2,0,2,7,255,1440,200,0,0,-89.332,0.953,-31.500
EX0521-092111,27,C18,prep,1180,1180,0,1310349.091,0.686,-0.675,0.197,0.187,0,0,0,0,0,0,0,0,0,0.000,0,0,0.098,0.007,-0.040,-0.080,-0.040,0.014,0.993,0.013,-0.006,-0.004,0.004,0.000,0.000,0.000,0.000,0,2,0,2,7,255,1440,200,0,0,-89.332,0.953,-31.500
EX0521-092111,27,C18,prep,1180,1180,0,1310354.092,0.686,-0.675,0.197,0.187,0,0,0,0,0,0,0,0,0,0.000,0,0,0.049,0.007,-0.040,-0.020,0.020,0.014,0.993,0.012,-0.006,-0.004,-0.006,0.000,0.000,0.000,0.000,0,2,0,2,7,255,1440,200,0,0,-89.332,0.953,-31.500
EX0521-092111,27,C18,prep,1199,1199,0,1310359.092,0.686,-0.675,0.197,0.187,0,0,0,0,0,0,0,0,0,0.000,0,0,0.049,0.008,0.020,-0.020,-0.040,0.014,0.992,0.012,-0.006,-0.006,-0.006,0.000,0.000,0.000,0.000,0,2,0,2,7,255,1440,200,0,0,-89.332,0.953,-31.500
EX0521-092111,27,C18,prep,1199,1199,0,1310364.093,0.686,-0.675,0.197,0.187,0,0,0,0,0,0,0,0,0,0.000,0,0,0.060,0.006,-0.040,-0.020,-0.040,0.013,0.993,0.011,-0.006,0.000,-0.006,0.000,0.000,0.000,0.000,0,2,0,2,7,255,1440,200,0,0,-89.332,0.953,-31.500
EX0521-092111,27,C18,prep,1218,1218,0,1310369.093,0.686,-0.675,0.197,0.187,0,0,0,0,0,0,0,0,0,0.000,0,0,0.049,0.011,-0.040,-0.020,0.020,0.013,0.993,0.011,-0.008,0.008,-0.006,0.000,0.000,0.000,0.000,0,2,0,2,7,255,1440,200,0,0,-89.332,0.953,-31.500
EX0521-092111,27,C18,prep,1218,1218,0,1310374.092,0.686,-0.675,0.197,0.187,0,0,0,0,0,0,0,0,0,0.000,0,0,0.092,0.013,-0.040,-0.080,0.020,0.013,0.994,0.012,-0.010,0.008,-0.006,0.000,0.000,0.000,0.000,0,2,0,2,7,255,1440,200,0,0,-89.332,0.953,-31.500
EX0521-092111,27,C18,prep,1219,1219,0,1310379.093,0.686,-0.675,0.197,0.187,0,0,0,0,0,0,0,0,0,0.000,0,0,0.049,0.009,0.020,-0.020,-0.040,0.015,0.993,0.011,-0.008,0.004,-0.002,0.000,0.000,0.000,0.000,0,2,0,2,7,255,1440,200,0,0,-89.332,0.953,-31.500
EX0521-092111,27,C18,prep,1219,1219,0,1310384.091,0.686,-0.675,0.197,0.187,0,0,0,0,0,0,0,0,0,0.000,0,0,0.035,0.006,0.020,-0.020,0.020,0.014,0.993,0.012,-0.006,0.000,-0.002,0.000,0.000,0.000,0.000,0,2,0,2,7,255,1440,200,0,0,-89.332,0.953,-31.500
EX0521-092111,27,C18,prep,1220,1220,0,1310389.091,0.686,-0.675,0.197,0.187,0,0,0,0,0,0,0,0,0,0.000,0,0,0.049,0.002,-0.040,-0.020,0.020,0.014,0.992,0.011,0.002,0.000,-0.002,0.000,0.000,0.000,0.000,0,2,0,2,7,255,1440,200,0,0,-89.332,0.953,-31.500
EX0521-092111,27,C18,prep,1220,1220,0,1310394.091,0.686,-0.675,0.197,0.187,0,0,0,0,0,0,0,0,0,0.000,0,0,0.060,0.002,-0.040,-0.020,-0.040,0.014,0.993,0.012,-0.002,0.000,-0.002,0.000,0.000,0.000,0.000,0,2,0,2,7,255,1440,200,0,0,-89.332,0.953,-31.500
EX0521-092111,27,C18,prep,1220,1220,0,1310399.091,0.686,-0.675,0.197,0.187,0,0,0,0,0,0,0,0,0,0.000,0,0,0.049,0.003,-0.040,-0.020,0.020,0.015,0.993,0.011,0.002,-0.002,-0.006,0.000,0.000,0.000,0.000,0,2,0,2,7,255,1440,200,0,0,-89.332,0.953,-31.500
EX0521-092111,27,C18,prep,1220,1220,0,1310404.092,0.686,-0.675,0.197,0.187,0,0,0,0,0,0,0,0,0,0.000,0,0,0.049,0.004,0.020,-0.020,-0.040,0.015,0.994,0.011,0.004,-0.002,-0.002,0.000,0.000,0.000,0.000,0,2,0,2,7,255,1440,200,0,0,-89.332,0.953,-31.500
EX0521-092111,27,C18,prep,1221,1221,0,1310409.092,0.686,-0.675,0.197,0.187,0,0,0,0,0,0,0,0,0,0.000,0,0,0.035,0.004,0.020,-0.020,0.020,0.015,0.994,0.012,0.004,-0.002,0.004,0.000,0.000,0.000,0.000,0,2,0,2,7,255,1440,200,0,0,-89.332,0.953,-31.500
EX0521-092111,27,C18,prep,1221,1221,0,1310414.092,0.686,-0.675,0.197,0.187,0,0,0,0,0,0,0,0,0,0.000,0,0,0.049,0.003,0.020,-0.020,-0.040,0.014,0.992,0.012,0.002,-0.002,0.004,0.000,0.000,0.000,0.000,0,2,0,2,7,255,1440,200,0,0,-89.332,0.953,-31.500
EX0521-092111,27,C18,prep,1231,1231,0,1310419.092,0.686,-0.675,0.197,0.187,0,0,0,0,0,0,0,0,0,0.000,0,0,0.049,0.003,0.020,0.040,0.020,0.014,0.992,0.011,0.002,-0.002,-0.010,0.000,0.000,0.000,0.000,0,2,0,2,7,255,1440,200,0,0,-89.332,0.953,-31.500
EX0521-092111,27,C18,prep,1231,1231,0,1310424.092,0.686,-0.675,0.197,0.187,0,0,0,0,0,0,0,0,0,0.000,0,0,0.060,0.002,-0.040,-0.020,-0.040,0.014,0.992,0.011,0.000,0.002,-0.010,0.000,0.000,0.000,0.000,0,2,0,2,7,255,1440,200,0,0,-89.332,0.953,-31.500
EX0521-092111,27,C18,prep,1263,1263,0,1310429.091,0.686,-0.675,0.197,0.187,0,0,0,0,0,0,0,0,0,0.000,0,0,0.110,0.002,-0.040,-0.020,-0.100,0.014,0.994,0.012,0.000,0.002,-0.010,0.000,0.000,0.000,0.000,0,2,0,2,7,255,1440,200,0,0,-89.332,0.953,-31.500
EX0521-092111,27,C18,prep,1263,1263,0,1310434.091,0.686,-0.675,0.197,0.187,0,0,0,0,0,0,0,0,0,0.000,0,0,0.035,0.002,0.020,-0.020,0.020,0.014,0.994,0.011,0.000,0.002,0.004,0.000,0.000,0.000,0.000,0,2,0,2,7,255,1440,200,0,0,-89.332,0.953,-31.500
EX0521-092111,27,C18,prep,1263,1263,0,1310439.091,0.686,-0.675,0.197,0.187,0,0,0,0,0,0,0,0,0,0.000,0,0,0.035,0.003,0.020,-0.020,0.020,0.014,0.993,0.011,-0.002,0.002,0.004,0.000,0.000,0.000,0.000,0,2,0,2,7,255,1440,200,0,0,-89.332,0.953,-31.500
EX0521-092111,27,C18,prep,1263,1263,0,1310444.091,0.686,-0.675,0.197,0.187,0,0,0,0,0,0,0,0,0,0.000,0,0,0.060,0.002,-0.040,-0.020,-0.040,0.015,0.992,0.012,0.000,0.002,-0.002,0.000,0.000,0.000,0.000,0,2,0,2,7,255,1440,200,0,0,-89.332,0.953,-31.500
EX0521-092111,27,C18,prep,1263,1263,0,1310449.092,0.686,-0.675,0.197,0.187,0,0,0,0,0,0,0,0,0,0.000,0,0,0.049,0.004,0.020,-0.020,-0.040,0.015,0.993,0.012,0.002,-0.004,-0.006,0.000,0.000,0.000,0.000,0,2,0,2,7,255,1440,200,0,0,-89.332,0.953,-31.500
EX0521-092111,27,C18,prep,1263,1263,0,1310454.092,0.686,-0.675,0.197,0.187,0,0,0,0,0,0,0,0,0,0.000,0,0,0.049,0.004,0.020,-0.020,-0.040,0.014,0.993,0.012,0.002,-0.004,-0.006,0.000,0.000,0.000,0.000,0,2,0,2,7,255,1440,200,0,0,-89.332,0.953,-31.500
EX0521-092111,27,C18,prep,1295,1295,0,1310459.092,0.686,-0.675,0.197,0.187,0,0,0,0,0,0,0,0,0,0.000,0,0,0.049,0.004,0.020,-0.020,-0.040,0.015,0.994,0.012,0.002,-0.004,-0.006,0.000,0.000,0.000,0.000,0,2,0,2,7,255,1440,200,0,0,-89.332,0.953,-31.500
EX0521-092111,27,C18,prep,1295,1295,0,1310464.092,0.686,-0.675,0.197,0.187,0,0,0,0,0,0,0,0,0,0.000,0,0,0.049,0.004,0.020,-0.020,-0.040,0.014,0.994,0.010,0.002,-0.004,0.004,0.000,0.000,0.000,0.000,0,2,0,2,7,255,1440,200,0,0,-89.332,0.953,-31.500
EX0521-092111,27,C18,prep,1317,1317,0,1310469.092,0.686,-0.675,0.197,0.187,0,0,0,0,0,0,0,0,0,0.000,0,0,0.035,0.002,0.020,-0.020,0.020,0.015,0.994,0.011,0.002,0.000,0.008,0.000,0.000,0.000,0.000,0,2,0,2,7,255,1440,200,0,0,-89.332,0.953,-31.500
EX0521-092111,27,C18,prep,1317,1317,0,1310474.091,0.686,-0.675,0.197,0.187,0,0,0,0,0,0,0,0,0,0.000,0,0,0.092,0.002,0.080,-0.020,-0.040,0.015,0.994,0.012,0.002,0.000,0.008,0.000,0.000,0.000,0.000,0,2,0,2,7,255,1440,200,0,0,-89.332,0.953,-31.500
EX0521-092111,27,C18,prep,1318,1318,0,1310479.094,0.686,-0.675,0.197,0.187,0,0,0,0,0,0,0,0,0,0.000,0,0,0.092,0.004,0.020,-0.080,-0.040,0.014,0.993,0.011,0.004,0.000,0.004,0.000,0.000,0.000,0.000,0,2,0,2,7,255,1440,200,0,0,-89.332,0.953,-31.500
EX0521-092111,27,C18,prep,1318,1318,0,1310484.091,0.686,-0.675,0.197,0.187,0,0,0,0,0,0,0,0,0,0.000,0,0,0.049,0.004,0.020,-0.020,-0.040,0.014,0.994,0.012,0.002,-0.004,0.004,0.000,0.000,0.000,0.000,0,2,0,2,7,255,1440,200,0,0,-89.332,0.953,-31.500
EX0521-092111,27,C18,prep,1318,1318,0,1310489.091,0.686,-0.675,0.197,0.187,0,0,0,0,0,0,0,0,0,0.000,0,0,0.049,0.003,0.020,-0.020,-0.040,0.014,0.994,0.012,-0.002,-0.002,0.004,0.000,0.000,0.000,0.000,0,2,0,2,7,255,1440,200,0,0,-89.332,0.953,-31.500
EX0521-092111,27,C18,prep,1318,1318,0,1310494.092,0.686,-0.675,0.197,0.187,0,0,0,0,0,0,0,0,0,0.000,0,0,0.035,0.003,0.020,-0.020,0.020,0.015,0.993,0.011,-0.002,-0.002,0.004,0.000,0.000,0.000,0.000,0,2,0,2,7,255,1440,200,0,0,-89.332,0.953,-31.500
EX0521-092111,27,C18,prep,1327,1327,0,1310499.092,0.686,-0.675,0.197,0.187,0,0,0,0,0,0,0,0,0,0.000,0,0,0.060,0.003,-0.040,-0.020,-0.040,0.014,0.993,0.012,-0.002,-0.002,-0.002,0.000,0.000,0.000,0.000,0,2,0,2,7,255,1440,200,0,0,-89.332,0.953,-31.500
EX0521-092111,27,C18,prep,1327,1327,0,1310504.092,0.686,-0.675,0.197,0.187,0,0,0,0,0,0,0,0,0,0.000,0,0,0.035,0.006,0.020,-0.020,0.020,0.014,0.994,0.012,-0.006,0.000,-0.002,0.000,0.000,0.000,0.000,0,2,0,2,7,255,1440,200,0,0,-89.332,0.953,-31.500
EX0521-092111,27,C18,prep,1327,1327,0,1310509.092,0.686,-0.675,0.197,0.187,0,0,0,0,0,0,0,0,0,0.000,0,0,0.060,0.006,-0.040,-0.020,-0.040,0.014,0.994,0.011,-0.006,0.000,0.004,0.000,0.000,0.000,0.000,0,2,0,2,7,255,1440,200,0,0,-89.332,0.953,-31.500
EX0521-092111,27,C18,prep,1327,1327,0,1310514.092,0.686,-0.675,0.197,0.187,0,0,0,0,0,0,0,0,0,0.000,0,0,0.049,0.000,-0.040,-0.020,0.020,0.015,0.994,0.012,0.000,0.000,0.004,0.000,0.000,0.000,0.000,0,2,0,2,7,255,1440,200,0,0,-89.332,0.953,-31.500
EX0521-092111,27,C18,prep,1345,1345,0,1310519.092,0.686,-0.675,0.197,0.187,0,0,0,0,0,0,0,0,0,0.000,0,0,0.049,0.008,-0.040,-0.020,0.020,0.015,0.992,0.012,0.000,-0.008,0.004,0.000,0.000,0.000,0.000,0,2,0,2,7,255,1440,200,0,0,-89.332,0.953,-31.500
EX0521-092111,27,C18,prep,1345,1345,0,1310524.091,0.686,-0.675,0.197,0.187,0,0,0,0,0,0,0,0,0,0.000,0,0,0.098,0.008,-0.040,-0.080,-0.040,0.014,0.993,0.012,0.000,-0.008,-0.006,0.000,0.000,0.000,0.000,0,2,0,2,7,255,1440,200,0,0,-89.332,0.953,-31.500
EX0521-092111,27,C18,prep,1345,1345,0,1310529.091,0.686,-0.675,0.197,0.187,0,0,0,0,0,0,0,0,0,0.000,0,0,0.049,0.003,0.020,-0.020,-0.040,0.014,0.993,0.011,-0.002,-0.002,-0.006,0.000,0.000,0.000,0.000,0,2,0,2,7,255,1440,200,0,0,-89.332,0.953,-31.500
EX0521-092111,27,C18,prep,1345,1345,0,1310534.091,0.686,-0.675,0.197,0.187,0,0,0,0,0,0,0,0,0,0.000,0,0,0.049,0.003,-0.040,-0.020,0.020,0.014,0.993,0.012,-0.002,-0.002,-0.002,0.000,0.000,0.000,0.000,0,2,0,2,7,255,1440,200,0,0,-89.332,0.953,-31.500
EX0521-092111,27,C18,prep,1346,1346,0,1310539.091,0.686,-0.675,0.197,0.187,0,0,0,0,0,0,0,0,0,0.000,0,0,0.092,0.003,-0.040,-0.080,0.020,0.015,0.992,0.012,-0.002,-0.002,-0.002,0.000,0.000,0.000,0.000,0,2,0,2,7,255,1440,200,0,0,-89.332,0.953,-31.500
EX0521-092111,27,C18,prep,1346,1346,0,1310544.092,0.686,-0.675,0.197,0.187,0,0,0,0,0,0,0,0,0,0.000,0,0,0.035,0.006,0.020,-0.020,0.020,0.015,0.995,0.011,0.006,-0.002,-0.002,0.000,0.000,0.000,0.000,0,2,0,2,7,255,1440,200,0,0,-89.332,0.953,-31.500
EX0521-092111,27,C18,prep,1359,1359,0,1310549.092,0.686,-0.675,0.197,0.187,0,0,0,0,0,0,0,0,0,0.000,0,0,0.049,0.006,-0.040,-0.020,0.020,0.013,0.994,0.012,0.006,-0.002,0.004,0.000,0.000,0.000,0.000,0,2,0,2,7,255,1440,200,0,0,-89.332,0.953,-31.500
EX0521-092111,27,C18,prep,1359,1359,0,1310554.092,0.686,-0.675,0.197,0.187,0,0,0,0,0,0,0,0,0,0.000,0,0,0.049,0.004,0.020,-0.020,-0.040,0.015,0.994,0.011,0.004,0.000,0.004,0.000,0.000,0.000,0.000,0,2,0,2,7,255,1440,200,0,0,-89.332,0.953,-31.500
EX0521-092111,27,C18,prep,1391,1391,0,1310559.092,0.686,-0.675,0.197,0.187,0,0,0,0,0,0,0,0,0,0.000,0,0,0.049,0.004,0.020,-0.020,-0.040,0.013,0.993,0.011,-0.004,0.000,0.004,0.000,0.000,0.000,0.000,0,2,0,2,7,255,1440,200,0,0,-89.332,0.953,-31.500
EX0521-092111,27,C18,prep,1391,1391,0,1310564.092,0.686,-0.675,0.197,0.187,0,0,0,0,0,0,0,0,0,0.000,0,0,0.060,0.004,-0.040,-0.020,-0.040,0.015,0.993,0.011,0.004,0.000,-0.002,0.000,0.000,0.000,0.000,0,2,0,2,7,255,1440,200,0,0,-89.332,0.953,-31.500
EX0521-092111,27,C18,prep,1409,1409,0,1310569.093,0.686,-0.675,0.197,0.187,0,0,0,0,0,0,0,0,0,0.000,0,0,0.035,0.002,0.020,-0.020,0.020,0.014,0.995,0.011,0.000,0.002,-0.002,0.000,0.000,0.000,0.000,0,2,0,2,7,255,1440,200,0,0,-89.332,0.953,-31.500
EX0521-092111,27,C18,prep,1409,1409,0,1310574.091,0.686,-0.675,0.197,0.187,0,0,0,0,0,0,0,0,0,0.000,0,0,0.060,0.002,-0.040,-0.020,-0.040,0.014,0.993,0.012,0.000,-0.002,-0.006,0.000,0.000,0.000,0.000,0,2,0,2,7,255,1440,200,0,0,-89.332,0.953,-31.500
EX0521-092111,27,C18,prep,1410,1410,0,1310579.091,0.686,-0.675,0.197,0.187,0,0,0,0,0,0,0,0,0,0.000,0,0,0.110,0.007,-0.100,-0.020,-0.040,0.014,0.993,0.013,-0.006,-0.004,-0.002,0.000,0.000,0.000,0.000,0,2,0,2,7,255,1440,200,0,0,-89.332,0.953,-31.500
EX0521-092111,27,C18,prep,1410,1410,0,1310584.091,0.686,-0.675,0.197,0.187,0,0,0,0,0,0,0,0,0,0.000,0,0,0.035,0.007,0.020,-0.020,0.020,0.014,0.995,0.012,-0.006,-0.004,-0.002,0.000,0.000,0.000,0.000,0,2,0,2,7,255,1440,200,0,0,-89.332,0.953,-31.500
EX0521-092111,27,C18,prep,1423,1423,0,1310589.092,0.686,-0.675,0.197,0.187,0,0,0,0,0,0,0,0,0,0.000,0,0,0.049,0.006,-0.040,-0.020,0.020,0.014,0.993,0.012,-0.006,-0.002,-0.002,0.000,0.000,0.000,0.000,0,2,0,2,7,255,1440,200,0,0,-89.332,0.953,-31.500
EX0521-092111,27,C18,prep,1423,1423,0,1310594.092,0.686,-0.675,0.197,0.187,0,0,0,0,0,0,0,0,0,0.000,0,0,0.069,0.003,-0.040,0.040,-0.040,0.014,0.993,0.012,-0.002,-0.002,-0.002,0.000,0.000,0.000,0.000,0,2,0,2,7,255,1440,200,0,0,-89.332,0.953,-31.500
EX0521-092111,27,C18,prep,1423,1423,0,1310599.092,0.686,-0.675,0.197,0.187,0,0,0,0,0,0,0,0,0,0.000,0,0,0.049,0.003,0.020,-0.020,-0.040,0.014,0.993,0.012,-0.002,-0.002,-0.006,0.000,0.000,0.000,0.000,0,2,0,2,7,255,1440,200,0,0,-89.332,0.953,-31.500
EX0521-092111,27,C18,prep,1423,1423,0,1310604.092,0.686,-0.675,0.197,0.187,0,0,0,0,0,0,0,0,0,0.000,0,0,0.060,0.003,-0.040,-0.020,-0.040,0.013,0.994,0.012,-0.002,-0.002,-0.002,0.000,0.000,0.000,0.000,0,2,0,2,7,255,1440,200,0,0,-89.332,0.953,-31.500
EX0521-092111,27,C18,prep,1423,1423,0,1310609.092,0.686,-0.675,0.197,0.187,0,0,0,0,0,0,0,0,0,0.000,0,0,0.049,0.011,-0.040,-0.020,0.020,0.013,0.993,0.011,-0.010,0.004,-0.006,0.000,0.000,0.000,0.000,0,2,0,2,7,255,1440,200,0,0,-89.332,0.953,-31.500
EX0521-092111,27,C18,prep,1423,1423,0,1310614.092,0.686,-0.675,0.197,0.187,0,0,0,0,0,0,0,0,0,0.000,0,0,0.049,0.011,-0.040,-0.020,0.020,0.015,0.995,0.012,-0.010,0.004,0.004,0.000,0.000,0.000,0.000,0,2,0,2,7,255,1440,200,0,0,-89.332,0.953,-31.500
EX0521-092111,27,C18,prep,1446,1446,0,1310619.091,0.686,-0.675,0.197,0.187,0,0,0,0,0,0,0,0,0,0.000,0,0,0.110,0.002,-0.100,-0.020,-0.040,0.014,0.993,0.011,0.000,0.002,-0.006,0.000,0.000,0.000,0.000,0,2,0,2,7,255,1440,200,0,0,-89.332,0.953,-31.500
EX0521-092111,27,C18,prep,1446,1446,0,1310624.091,0.686,-0.675,0.197,0.187,0,0,0,0,0,0,0,0,0,0.000,0,0,0.049,0.008,0.020,-0.020,-0.040,0.014,0.993,0.013,0.000,-0.008,-0.002,0.000,0.000,0.000,0.000,0,2,0,2,7,255,1440,200,0,0,-89.332,0.953,-31.500
EX0521-092111,27,C18,prep,1446,1446,0,1310629.091,0.686,-0.675,0.197,0.187,0,0,0,0,0,0,0,0,0,0.000,0,0,0.049,0.006,0.020,-0.020,-0.040,0.013,0.993,0.012,-0.006,0.002,-0.006,0.000,0.000,0.000,0.000,0,2,0,2,7,255,1440,200,0,0,-89.332,0.953,-31.500
EX0521-092111,27,C18,prep,1446,1446,0,1310634.091,0.686,-0.675,0.197,0.187,0,0,0,0,0,0,0,0,0,0.000,0,0,0.049,0.007,-0.040,-0.020,0.020,0.016,0.993,0.011,-0.006,-0.004,-0.002,0.000,0.000,0.000,0.000,0,2,0,2,7,255,1440,200,0,0,-89.332,0.953,-31.500
EX0521-092111,27,C18,prep,1446,1446,0,1310639.092,0.686,-0.675,0.197,0.187,0,0,0,0,0,0,0,0,0,0.000,0,0,0.035,0.006,0.020,-0.020,0.020,0.014,0.993,0.012,-0.006,0.000,-0.006,0.000,0.000,0.000,0.000,0,2,0,2,7,255,1440,200,0,0,-89.332,0.953,-31.500
EX0521-092111,27,C18,prep,1446,1446,0,1310644.092,0.686,-0.675,0.197,0.187,0,0,0,0,0,0,0,0,0,0.000,0,0,0.049,0.000,0.020,-0.020,-0.040,0.014,0.993,0.011,0.000,0.000,-0.002,0.000,0.000,0.000,0.000,0,2,0,2,7,255,1440,200,0,0,-89.332,0.953,-31.500
EX0521-092111,27,C18,prep,1481,1481,0,1310649.092,0.686,-0.675,0.197,0.187,0,0,0,0,0,0,0,0,0,0.000,0,0,0.060,0.006,-0.040,-0.020,-0.040,0.014,0.993,0.012,-0.006,0.000,-0.006,0.000,0.000,0.000,0.000,0,2,0,2,7,255,1440,200,0,0,-89.332,0.953,-31.500
EX0521-092111,27,C18,prep,1481,1481,0,1310654.092,0.686,-0.675,0.197,0.187,0,0,0,0,0,0,0,0,0,0.000,0,0,0.049,0.008,0.020,0.040,0.020,0.014,0.993,0.011,0.000,0.008,-0.006,0.000,0.000,0.000,0.000,0,2,0,2,7,255,1440,200,0,0,-89.332,0.953,-31.500
EX0521-092111,27,C18,prep,1515,1515,0,1310659.092,0.686,-0.675,0.197,0.187,0,0,0,0,0,0,0,0,0,0.000,0,0,0.060,0.000,-0.040,-0.020,-0.040,0.015,0.992,0.012,0.000,0.000,-0.006,0.000,0.000,0.000,0.000,0,2,0,2,7,255,1440,200,0,0,-89.332,0.953,-31.500
EX0521-092111,27,C18,prep,1515,1515,0,1310664.091,0.686,-0.675,0.197,0.187,0,0,0,0,0,0,0,0,0,0.000,0,0,0.092,0.004,0.020,-0.080,-0.040,0.015,0.994,0.012,0.002,-0.004,-0.006,0.000,0.000,0.000,0.000,0,2,0,2,7,255,1440,200,0,0,-89.332,0.953,-31.500
EX0521-092111,27,C18,prep,1524,1524,0,1310669.094,0.686,-0.675,0.197,0.187,0,0,0,0,0,0,0,0,0,0.000,0,0,0.049,0.004,0.020,0.040,0.020,0.015,0.993,0.012,0.002,-0.004,0.000,0.000,0.000,0.000,0.000,0,2,0,2,7,255,1440,200,0,0,-89.332,0.953,-31.500
EX0521-092111,27,C18,prep,1524,1524,0,1310674.091,0.686,-0.675,0.197,0.187,0,0,0,0,0,0,0,0,0,0.000,0,0,0.035,0.004,0.020,-0.020,0.020,0.014,0.993,0.011,0.002,-0.004,0.000,0.000,0.000,0.000,0.000,0,2,0,2,7,255,1440,200,0,0,-89.332,0.953,-31.500
EX0521-092111,27,C18,prep,1524,1524,0,1310679.091,0.686,-0.675,0.197,0.187,0,0,0,0,0,0,0,0,0,0.000,0,0,0.060,0.004,0.020,0.040,-0.040,0.015,0.994,0.012,0.002,-0.004,0.000,0.000,0.000,0.000,0.000,0,2,0,2,7,255,1440,200,0,0,-89.332,0.953,-31.500
EX0521-092111,27,C18,prep,1524,1524,0,1310684.092,0.686,-0.675,0.197,0.187,0,0,0,0,0,0,0,0,0,0.000,0,0,0.035,0.004,0.020,-0.020,0.020,0.015,0.994,0.011,0.004,0.000,0.004,0.000,0.000,0.000,0.000,0,2,0,2,7,255,1440,200,0,0,-89.332,0.953,-31.500
EX0521-092111,27,C18,prep,1525,1525,0,1310689.092,0.686,-0.675,0.197,0.187,0,0,0,0,0,0,0,0,0,0.000,0,0,0.049,0.004,0.020,-0.020,-0.040,0.014,0.994,0.011,0.004,0.000,0.004,0.000,0.000,0.000,0.000,0,2,0,2,7,255,1440,200,0,0,-89.332,0.953,-31.500
EX0521-092111,27,C18,prep,1525,1525,0,1310694.092,0.686,-0.675,0.197,0.187,0,0,0,0,0,0,0,0,0,0.000,0,0,0.049,0.003,0.020,-0.020,-0.040,0.014,0.993,0.011,0.002,0.002,0.004,0.000,0.000,0.000,0.000,0,2,0,2,7,255,1440,200,0,0,-89.332,0.953,-31.500
EX0521-092111,27,C18,prep,1525,1525,0,1310699.092,0.686,-0.675,0.197,0.187,0,0,0,0,0,0,0,0,0,0.000,0,0,0.049,0.003,0.020,-0.020,-0.040,0.015,0.994,0.011,0.002,0.002,0.004,0.000,0.000,0.000,0.000,0,2,0,2,7,255,1440,200,0,0,-89.332,0.953,-31.500
EX0521-092111,27,C18,prep,1525,1525,0,1310704.092,0.686,-0.675,0.197,0.187,0,0,0,0,0,0,0,0,0,0.000,0,0,0.035,0.002,0.020,-0.020,0.020,0.015,0.994,0.012,0.002,0.000,0.008,0.000,0.000,0.000,0.000,0,2,0,2,7,255,1440,200,0,0,-89.332,0.953,-31.500
EX0521-092111,27,C18,prep,1525,1525,0,1310709.092,0.686,-0.675,0.197,0.187,0,0,0,0,0,0,0,0,0,0.000,0,0,0.060,0.006,-0.040,-0.020,-0.040,0.015,0.993,0.011,0.006,0.000,0.008,0.000,0.000,0.000,0.000,0,2,0,2,7,255,1440,200,0,0,-89.332,0.953,-31.500
EX0521-092111,27,C18,prep,1525,1525,0,1310714.091,0.686,-0.675,0.197,0.187,0,0,0,0,0,0,0,0,0,0.000,0,0,0.049,0.002,0.020,-0.020,-0.040,0.014,0.993,0.011,0.002,0.000,-0.002,0.000,0.000,0.000,0.000,0,2,0,2,7,255,1440,200,0,0,-89.332,0.953,-31.500
EX0521-092111,27,C18,prep,1540,1540,0,1310719.091,0.686,-0.675,0.197,0.187,0,0,0,0,0,0,0,0,0,0.000,0,0,0.049,0.006,0.020,-0.020,-0.040,0.015,0.994,0.011,0.006,0.002,-0.002,0.000,0.000,0.000,0.000,0,2,0,2,7,255,1440,200,0,0,-89.332,0.953,-31.500
EX0521-092111,27,C18,prep,1540,1540,0,1310724.091,0.686,-0.675,0.197,0.187,0,0,0,0,0,0,0,0,0,0.000,0,0,0.060,0.004,-0.040,-0.020,-0.040,0.015,0.994,0.011,0.004,0.002,0.004,0.000,0.000,0.000,0.000,0,2,0,2,7,255,1440,200,0,0,-89.332,0.953,-31.500
EX0521-092111,27,C18,prep,1540,1540,0,1310729.091,0.686,-0.675,0.197,0.187,0,0,0,0,0,0,0,0,0,0.000,0,0,0.035,0.004,0.020,-0.020,0.020,0.015,0.993,0.011,0.004,0.000,0.004,0.000,0.000,0.000,0.000,0,2,0,2,7,255,1440,200,0,0,-89.332,0.953,-31.500
EX0521-092111,27,C18,prep,1540,1540,0,1310734.092,0.686,-0.675,0.197,0.187,0,0,0,0,0,0,0,0,0,0.000,0,0,0.049,0.004,0.020,-0.020,-0.040,0.014,0.993,0.011,0.004,0.000,-0.002,0.000,0.000,0.000,0.000,0,2,0,2,7,255,1440,200,0,0,-89.332,0.953,-31.500
EX0521-092111,27,C18,prep,1541,1541,0,1310739.092,0.686,-0.675,0.197,0.187,0,0,0,0,0,0,0,0,0,0.000,0,0,0.060,0.004,0.020,0.040,-0.040,0.016,0.993,0.012,0.004,0.000,-0.006,0.000,0.000,0.000,0.000,0,2,0,2,7,255,1440,200,0,0,-89.332,0.953,-31.500
EX0521-092111,27,C18,prep,1541,1541,0,1310744.092,0.686,-0.675,0.197,0.187,0,0,0,0,0,0,0,0,0,0.000,0,0,0.060,0.008,-0.040,0.040,0.020,0.015,0.994,0.012,0.000,-0.008,-0.006,0.000,0.000,0.000,0.000,0,2,0,2,7,255,1440,200,0,0,-89.332,0.953,-31.500
EX0521-092111,27,C18,prep,1572,1572,0,1310749.092,0.686,-0.675,0.197,0.187,0,0,0,0,0,0,0,0,0,0.000,0,0,0.049,0.008,-0.040,-0.020,0.020,0.015,0.993,0.012,0.000,-0.008,0.000,0.000,0.000,0.000,0.000,0,2,0,2,7,255,1440,200,0,0,-89.332,0.953,-31.500
EX0521-092111,27,C18,prep,1572,1572,0,1310754.092,0.686,-0.675,0.197,0.187,0,0,0,0,0,0,0,0,0,0.000,0,0,0.060,0.008,-0.040,-0.020,-0.040,0.015,0.993,0.012,0.000,-0.008,0.000,0.000,0.000,0.000,0.000,0,2,0,2,7,255,1440,200,0,0,-89.332,0.953,-31.500
EX0521-092111,27,C18,prep,1615,1615,0,1310759.095,0.686,-0.675,0.197,0.187,0,0,0,0,0,0,0,0,0,0.000,0,0,0.049,0.008,0.020,-0.020,-0.040,0.015,0.993,0.011,0.000,-0.008,0.000,0.000,0.000,0.000,0.000,0,2,0,2,7,255,1440,200,0,0,-89.332,0.953,-31.500
EX0521-092111,27,C18,prep,1615,1615,0,1310764.091,0.686,-0.675,0.197,0.187,0,0,0,0,0,0,0,0,0,0.000,0,0,0.049,0.009,-0.040,-0.020,0.020,0.016,0.993,0.012,0.004,-0.008,-0.006,0.000,0.000,0.000,0.000,0,2,0,2,7,255,1440,200,0,0,-89.332,0.953,-31.500
EX0521-092111,27,C18,prep,1616,1616,0,1310769.095,0.686,-0.675,0.197,0.187,0,0,0,0,0,0,0,0,0,0.000,0,0,0.060,0.014,-0.040,-0.020,-0.040,0.016,0.993,0.010,0.014,0.000,0.000,0.000,0.000,0.000,0.000,0,2,0,2,7,255,1440,200,0,0,-89.332,0.953,-31.500
EX0521-092111,27,C18,prep,1616,1616,0,1310774.091,0.686,-0.675,0.197,0.187,0,0,0,0,0,0,0,0,0,0.000,0,0,0.049,0.015,-0.040,-0.020,0.020,0.014,0.992,0.011,0.014,0.004,-0.006,0.000,0.000,0.000,0.000,0,2,0,2,7,255,1440,200,0,0,-89.332,0.953,-31.500
EX0521-092111,27,C18,prep,1617,1617,0,1310779.091,0.686,-0.675,0.197,0.187,0,0,0,0,0,0,0,0,0,0.000,0,0,0.049,0.004,-0.040,-0.020,0.020,0.014,0.993,0.012,0.002,0.004,0.000,0.000,0.000,0.000,0.000,0,2,0,2,7,255,1440,200,0,0,-89.332,0.953,-31.500
EX0521-092111,27,C18,prep,1617,1617,0,1310784.092,0.686,-0.675,0.197,0.187,0,0,0,0,0,0,0,0,0,0.000,0,0,0.049,0.006,-0.040,-0.020,0.020,0.014,0.994,0.012,-0.006,0.002,0.000,0.000,0.000,0.000,0.000,0,2,0,2,7,255,1440,200,0,0,-89.332,0.953,-31.500
EX0521-092111,27,C18,prep,1618,1618,0,1310789.092,0.686,-0.675,0.197,0.187,0,0,0,0,0,0,0,0,0,0.000,0,0,0.049,0.006,-0.040,-0.020,0.020,0.015,0.993,0.011,-0.006,0.002,0.000,0.000,0.000,0.000,0.000,0,2,0,2,7,255,1440,200,0,0,-89.332,0.953,-31.500
EX0521-092111,27,C18,prep,1618,1618,0,1310794.092,0.686,-0.675,0.197,0.187,0,0,0,0,0,0,0,0,0,0.000,0,0,0.060,0.003,-0.040,-0.020,-0.040,0.014,0.993,0.011,0.002,0.002,0.000,0.000,0.000,0.000,0.000,0,2,0,2,7,255,1440,200,0,0,-89.332,0.953,-31.500
EX0521-092111,27,C18,prep,1631,1631,0,1310799.092,0.686,-0.675,0.197,0.187,0,0,0,0,0,0,0,0,0,0.000,0,0,0.049,0.002,0.020,-0.020,-0.040,0.014,0.994,0.012,0.002,0.000,0.000,0.000,0.000,0.000,0.000,0,2,0,2,7,255,1440,200,0,0,-89.332,0.953,-31.500
EX0521-092111,27,C18,prep,1631,1631,0,1310804.092,0.686,-0.675,0.197,0.187,0,0,0,0,0,0,0,0,0,0.000,0,0,0.049,0.002,-0.040,-0.020,0.020,0.015,0.993,0.012,0.000,-0.002,0.000,0.000,0.000,0.000,0.000,0,2,0,2,7,255,1440,200,0,0,-89.332,0.953,-31.500
EX0521-092111,27,C18,prep,1631,1631,0,1310809.092,0.686,-0.675,0.197,0.187,0,0,0,0,0,0,0,0,0,0.000,0,0,0.049,0.002,0.020,-0.020,-0.040,0.014,0.994,0.011,0.000,-0.002,0.004,0.000,0.000,0.000,0.000,0,2,0,2,7,255,1440,200,0,0,-89.332,0.953,-31.500
EX0521-092111,27,C18,prep,1631,1631,0,1310814.091,0.686,-0.675,0.197,0.187,0,0,0,0,0,0,0,0,0,0.000,0,0,0.060,0.002,-0.040,-0.020,-0.040,0.014,0.993,0.011,0.000,0.002,0.000,0.000,0.000,0.000,0.000,0,2,0,2,7,255,1440,200,0,0,-89.332,0.953,-31.500
EX0521-092111,27,C18,prep,1631,1631,0,1310819.091,0.686,-0.675,0.197,0.187,0,0,0,0,0,0,0,0,0,0.000,0,0,0.060,0.006,0.020,0.040,-0.040,0.014,0.993,0.011,0.002,0.006,0.000,0.000,0.000,0.000,0.000,0,2,0,2,7,255,1440,200,0,0,-89.332,0.953,-31.500
EX0521-092111,27,C18,prep,1631,1631,0,1310824.091,0.686,-0.675,0.197,0.187,0,0,0,0,0,0,0,0,0,0.000,0,0,0.060,0.006,-0.040,-0.020,-0.040,0.014,0.994,0.011,0.002,0.006,0.000,0.000,0.000,0.000,0.000,0,2,0,2,7,255,1440,200,0,0,-89.332,0.953,-31.500
EX0521-092111,27,C18,prep,1663,1663,0,1310829.092,0.686,-0.675,0.197,0.187,0,0,0,0,0,0,0,0,0,0.000,0,0,0.035,0.006,0.020,-0.020,0.020,0.015,0.992,0.012,0.002,0.006,0.000,0.000,0.000,0.000,0.000,0,2,0,2,7,255,1440,200,0,0,-89.332,0.953,-31.500
EX0521-092111,27,C18,prep,1663,1663,0,1310834.092,0.686,-0.675,0.197,0.187,0,0,0,0,0,0,0,0,0,0.000,0,0,0.049,0.003,-0.040,-0.020,0.020,0.014,0.993,0.011,0.002,0.002,-0.006,0.000,0.000,0.000,0.000,0,2,0,2,7,255,1440,200,0,0,-89.332,0.953,-31.500
EX0521-092111,27,C18,prep,1663,1663,0,1310839.092,0.686,-0.675,0.197,0.187,0,0,0,0,0,0,0,0,0,0.000,0,0,0.060,0.002,-0.040,0.040,0.020,0.014,0.992,0.011,0.000,0.002,-0.010,0.000,0.000,0.000,0.000,0,2,0,2,7,255,1440,200,0,0,-89.332,0.953,-31.500
EX0521-092111,27,C18,prep,1663,1663,0,1310844.092,0.686,-0.675,0.197,0.187,0,0,0,0,0,0,0,0,0,0.000,0,0,0.035,0.003,0.020,-0.020,0.020,0.014,0.993,0.012,-0.002,0.002,-0.006,0.000,0.000,0.000,0.000,0,2,0,2,7,255,1440,200,0,0,-89.332,0.953,-31.500
EX0521-092111,27,C18,prep,1663,1663,0,1310849.092,0.686,-0.675,0.197,0.187,0,0,0,0,0,0,0,0,0,0.000,0,0,0.049,0.006,0.020,0.040,0.020,0.013,0.994,0.011,-0.004,0.004,0.000,0.000,0.000,0.000,0.000,0,2,0,2,7,255,1440,200,0,0,-89.332,0.953,-31.500
EX0521-092111,27,C18,prep,1663,1663,0,1310854.091,0.686,-0.675,0.197,0.187,0,0,0,0,0,0,0,0,0,0.000,0,0,0.049,0.004,0.020,0.040,0.020,0.015,0.994,0.011,-0.002,0.004,0.008,0.000,0.000,0.000,0.000,0,2,0,2,7,255,1440,200,0,0,-89.332,0.953,-31.500
EX0521-092111,27,C18,prep,1695,1695,0,1310859.091,0.686,-0.675,0.197,0.187,0,0,0,0,0,0,0,0,0,0.000,0,0,0.060,0.006,-0.040,-0.020,-0.040,0.015,0.993,0.011,0.004,0.004,0.008,0.000,0.000,0.000,0.000,0,2,0,2,7,255,1440,200,0,0,-89.332,0.953,-31.500
EX0521-092111,27,C18,prep,1695,1695,0,1310864.091,0.686,-0.675,0.197,0.187,0,0,0,0,0,0,0,0,0,0.000,0,0,0.035,0.004,0.020,-0.020,0.020,0.014,0.992,0.012,0.004,0.000,0.000,0.000,0.000,0.000,0.000,0,2,0,2,7,255,1440,200,0,0,-89.332,0.953,-31.500
EX0521-092111,27,C18,prep,1714,1714,0,1310869.093,0.686,-0.675,0.197,0.187,0,0,0,0,0,0,0,0,0,0.000,0,0,0.069,0.004,-0.040,0.040,-0.040,0.015,0.993,0.012,0.004,-0.002,0.000,0.000,0.000,0.000,0.000,0,2,0,2,7,255,1440,200,0,0,-89.332,0.953,-31.500
EX0521-092111,27,C18,prep,1714,1714,0,1310874.091,0.686,-0.675,0.197,0.187,0,0,0,0,0,0,0,0,0,0.000,0,0,0.060,0.006,-0.040,-0.020,-0.040,0.014,0.993,0.010,0.006,-0.002,0.000,0.000,0.000,0.000,0.000,0,2,0,2,7,255,1440,200,0,0,-89.332,0.953,-31.500
EX0521-092111,27,C18,prep,1715,1715,0,1310879.092,0.686,-0.675,0.197,0.187,0,0,0,0,0,0,0,0,0,0.000,0,0,0.049,0.006,0.020,-0.020,-0.040,0.015,0.993,0.011,0.006,-0.002,0.000,0.000,0.000,0.000,0.000,0,2,0,2,7,255,1440,200,0,0,-89.332,0.953,-31.500
EX0521-092111,27,C18,prep,1715,1715,0,1310884.092,0.686,-0.675,0.197,0.187,0,0,0,0,0,0,0,0,0,0.000,0,0,0.049,0.006,-0.040,-0.020,0.020,0.015,0.994,0.012,0.006,-0.002,0.000,0.000,0.000,0.000,0.000,0,2,0,2,7,255,1440,200,0,0,-89.332,0.953,-31.500
EX0521-092111,27,C18,prep,1716,1716,0,1310889.092,0.686,-0.675,0.197,0.187,0,0,0,0,0,0,0,0,0,0.000,0,0,0.035,0.003,0.020,-0.020,0.020,0.014,0.994,0.012,0.002,-0.002,0.004,0.000,0.000,0.000,0.000,0,2,0,2,7,255,1440,200,0,0,-89.332,0.953,-31.500
EX0521-092111,27,C18,prep,1716,1716,0,1310894.092,0.686,-0.675,0.197,0.187,0,0,0,0,0,0,0,0,0,0.000,0,0,0.049,0.004,0.020,-0.020,-0.040,0.014,0.993,0.012,-0.002,-0.004,0.004,0.000,0.000,0.000,0.000,0,2,0,2,7,255,1440,200,0,0,-89.332,0.953,-31.500
EX0521-092111,27,C18,prep,1727,1727,0,1310899.092,0.686,-0.675,0.197,0.187,0,0,0,0,0,0,0,0,0,0.000,0,0,0.060,0.003,-0.040,-0.020,-0.040,0.014,0.993,0.011,-0.002,-0.002,0.000,0.000,0.000,0.000,0.000,0,2,0,2,7,255,1440,200,0,0,-89.332,0.953,-31.500
EX0521-092111,27,C18,prep,1727,1727,0,1310904.091,0.686,-0.675,0.197,0.187,0,0,0,0,0,0,0,0,0,0.000,0,0,0.069,0.006,-0.040,0.040,-0.040,0.016,0.992,0.011,0.000,-0.006,0.000,0.000,0.000,0.000,0.000,0,2,0,2,7,255,1440,200,0,0,-89.332,0.953,-31.500
EX0521-092111,27,C18,prep,1750,1750,0,1310909.092,0.686,-0.675,0.197,0.187,0,0,0,0,0,0,0,0,0,0.000,0,0,0.060,0.000,-0.040,-0.020,-0.040,0.014,0.993,0.012,0.000,0.000,-0.006,0.000,0.000,0.000,0.000,0,2,0,2,7,255,1440,200,0,0,-89.332,0.953,-31.500
EX0521-092111,27,C18,prep,1750,1750,0,1310914.091,0.686,-0.675,0.197,0.187,0,0,0,0,0,0,0,0,0,0.000,0,0,0.049,0.008,-0.040,-0.020,0.020,0.015,0.993,0.012,0.000,-0.008,-0.006,0.000,0.000,0.000,0.000,0,2,0,2,7,255,1440,200,0,0,-89.332,0.953,-31.500
EX0521-092111,27,C18,prep,1750,1750,0,1310919.091,0.686,-0.675,0.197,0.187,0,0,0,0,0,0,0,0,0,0.000,0,0,0.049,0.004,0.020,-0.020,-0.040,0.014,0.994,0.011,-0.004,0.000,-0.006,0.000,0.000,0.000,0.000,0,2,0,2,7,255,1440,200,0,0,-89.332,0.953,-31.500
EX0521-092111,27,C18,prep,1750,1750,0,1310924.091,0.686,-0.675,0.197,0.187,0,0,0,0,0,0,0,0,0,0.000,0,0,0.069,0.002,-0.040,0.040,-0.040,0.015,0.995,0.011,0.000,0.002,0.004,0.000,0.000,0.000,0.000,0,2,0,2,7,255,1440,200,0,0,-89.332,0.953,-31.500
EX0521-092111,27,C18,prep,1751,1751,0,1310929.092,0.686,-0.675,0.197,0.187,0,0,0,0,0,0,0,0,0,0.000,0,0,0.049,0.004,-0.040,-0.020,0.020,0.014,0.993,0.012,-0.004,0.002,0.004,0.000,0.000,0.000,0.000,0,2,0,2,7,255,1440,200,0,0,-89.332,0.953,-31.500
EX0521-092111,27,C18,prep,1751,1751,0,1310934.092,0.686,-0.675,0.197,0.187,0,0,0,0,0,0,0,0,0,0.000,0,0,0.049,0.004,0.020,-0.020,-0.040,0.012,0.993,0.011,-0.004,0.002,0.000,0.000,0.000,0.000,0.000,0,2,0,2,7,255,1440,200,0,0,-89.332,0.953,-31.500
EX0521-092111,27,C18,prep,1752,1752,0,1310939.092,0.686,-0.675,0.197,0.187,0,0,0,0,0,0,0,0,0,0.000,0,0,0.049,0.009,0.020,-0.020,-0.040,0.014,0.993,0.011,-0.004,0.008,0.000,0.000,0.000,0.000,0.000,0,2,0,2,7,255,1440,200,0,0,-89.332,0.953,-31.500
EX0521-092111,27,C18,prep,1752,1752,0,1310944.092,0.686,-0.675,0.197,0.187,0,0,0,0,0,0,0,0,0,0.000,0,0,0.060,0.008,-0.040,0.040,0.020,0.015,0.993,0.012,-0.002,0.008,0.000,0.000,0.000,0.000,0.000,0,2,0,2,7,255,1440,200,0,0,-89.332,0.953,-31.500
EX0521-092111,27,C18,prep,1759,1759,0,1310949.092,0.686,-0.675,0.197,0.187,0,0,0,0,0,0,0,0,0,0.000,0,0,0.049,0.008,0.020,-0.020,-0.040,0.014,0.994,0.011,-0.002,0.008,0.000,0.000,0.000,0.000,0.000,0,2,0,2,7,255,1440,200,0,0,-89.332,0.953,-31.500
EX0521-092111,27,C18,prep,1759,1759,0,1310954.091,0.686,-0.675,0.197,0.187,0,0,0,0,0,0,0,0,0,0.000,0,0,0.049,0.002,0.020,-0.020,-0.040,0.014,0.993,0.011,0.000,0.002,0.000,0.000,0.000,0.000,0.000,0,2,0,2,7,255,1440,200,0,0,-89.332,0.953,-31.500
EX0521-092111,27,C18,prep,1791,1791,0,1310959.093,0.686,-0.675,0.197,0.187,0,0,0,0,0,0,0,0,0,0.000,0,0,0.049,0.002,0.020,-0.020,-0.040,0.015,0.993,0.012,0.000,0.002,0.000,0.000,0.000,0.000,0.000,0,2,0,2,7,255,1440,200,0,0,-89.332,0.953,-31.500
EX0521-092111,27,C18,prep,1791,1791,0,1310964.091,0.686,-0.675,0.197,0.187,0,0,0,0,0,0,0,0,0,0.000,0,0,0.035,0.002,0.020,-0.020,0.020,0.014,0.994,0.011,0.000,0.002,0.000,0.000,0.000,0.000,0.000,0,2,0,2,7,255,1440,200,0,0,-89.332,0.953,-31.500
EX0521-092111,27,C18,prep,1817,1817,0,1310969.094,0.686,-0.675,0.197,0.187,0,0,0,0,0,0,0,0,0,0.000,0,0,0.035,0.006,0.020,-0.020,0.020,0.015,0.994,0.012,0.000,-0.006,0.004,0.000,0.000,0.000,0.000,0,2,0,2,7,255,1440,200,0,0,-89.332,0.953,-31.500
EX0521-092111,27,C18,prep,1817,1817,0,1310974.091,0.686,-0.675,0.197,0.187,0,0,0,0,0,0,0,0,0,0.000,0,0,0.049,0.002,-0.040,-0.020,0.020,0.014,0.995,0.011,0.000,0.002,0.004,0.000,0.000,0.000,0.000,0,2,0,2,7,255,1440,200,0,0,-89.332,0.953,-31.500
EX0521-092111,27,C18,prep,1818,1818,0,1310979.092,0.686,-0.675,0.197,0.187,0,0,0,0,0,0,0,0,0,0.000,0,0,0.049,0.006,0.020,-0.020,-0.040,0.013,0.993,0.012,-0.002,0.006,0.004,0.000,0.000,0.000,0.000,0,2,0,2,7,255,1440,200,0,0,-89.332,0.953,-31.500
EX0521-092111,27,C18,prep,1818,1818,0,1310984.092,0.686,-0.675,0.197,0.187,0,0,0,0,0,0,0,0,0,0.000,0,0,0.049,0.006,-0.040,-0.020,0.020,0.014,0.993,0.011,-0.002,0.006,0.000,0.000,0.000,0.000,0.000,0,2,0,2,7,255,1440,200,0,0,-89.332,0.953,-31.500
EX0521-092111,27,C18,prep,1819,1819,0,1310989.092,0.686,-0.675,0.197,0.187,0,0,0,0,0,0,0,0,0,0.000,0,0,0.049,0.013,0.020,-0.020,-0.040,0.014,0.992,0.013,-0.012,0.006,-0.002,0.000,0.000,0.000,0.000,0,2,0,2,7,255,1440,200,0,0,-89.332,0.953,-31.500
EX0521-092111,27,C18,prep,1819,1819,0,1310994.092,0.686,-0.675,0.197,0.187,0,0,0,0,0,0,0,0,0,0.000,0,0,0.060,0.014,-0.040,-0.020,-0.040,0.014,0.995,0.013,-0.012,-0.008,0.000,0.000,0.000,0.000,0.000,0,2,0,2,7,255,1440,200,0,0,-89.332,0.953,-31.500
EX0521-092111,27,C18,prep,1819,1819,0,1310999.092,0.686,-0.675,0.197,0.187,0,0,0,0,0,0,0,0,0,0.000,0,0,0.060,0.014,-0.040,0.040,0.020,0.013,0.993,0.011,-0.012,-0.008,-0.002,0.000,0.000,0.000,0.000,0,2,0,2,7,255,1440,200,0,0,-89.332,0.953,-31.500
EX0521-092111,27,C18,prep,1819,1819,0,1311004.091,0.686,-0.675,0.197,0.187,0,0,0,0,0,0,0,0,0,0.000,0,0,0.098,0.013,-0.040,-0.080,-0.040,0.014,0.993,0.013,-0.010,-0.008,0.000,0.000,0.000,0.000,0.000,0,2,0,2,7,255,1440,200,0,0,-89.332,0.953,-31.500
EX0521-092111,27,C18,prep,1820,1820,0,1311009.092,0.686,-0.675,0.197,0.187,0,0,0,0,0,0,0,0,0,0.000,0,0,0.049,0.013,0.020,-0.020,-0.040,0.014,0.993,0.013,-0.010,-0.008,0.000,0.000,0.000,0.000,0.000,0,2,0,2,7,255,1440,200,0,0,-89.332,0.953,-31.500
EX0521-092111,27,C18,prep,1820,1820,0,1311014.091,0.686,-0.675,0.197,0.187,0,0,0,0,0,0,0,0,0,0.000,0,0,0.049,0.013,0.020,-0.020,-0.040,0.014,0.993,0.013,-0.010,-0.008,0.000,0.000,0.000,0.000,0.000,0,2,0,2,7,255,1440,200,0,0,-89.332,0.953,-31.500
EX0521-092111,27,C18,prep,1848,1848,0,1311019.091,0.686,-0.675,0.197,0.187,0,0,0,0,0,0,0,0,0,0.000,0,0,0.060,0.010,-0.040,-0.020,-0.040,0.014,0.993,0.012,-0.006,-0.008,-0.006,0.000,0.000,0.000,0.000,0,2,0,2,7,255,1440,200,0,0,-89.332,0.953,-31.500
EX0521-092111,27,C18,prep,1848,1848,0,1311024.092,0.686,-0.675,0.197,0.187,0,0,0,0,0,0,0,0,0,0.000,0,0,0.049,0.007,0.020,-0.020,-0.040,0.014,0.993,0.011,-0.004,-0.006,-0.006,0.000,0.000,0.000,0.000,0,2,0,2,7,255,1440,200,0,0,-89.332,0.953,-31.500
EX0521-092111,27,C18,prep,1848,1848,0,1311029.092,0.686,-0.675,0.197,0.187,0,0,0,0,0,0,0,0,0,0.000,0,0,0.049,0.003,0.020,-0.020,-0.040,0.014,0.994,0.012,-0.002,-0.002,0.000,0.000,0.000,0.000,0.000,0,2,0,2,7,255,1440,200,0,0,-89.332,0.953,-31.500
EX0521-092111,27,C18,prep,1848,1848,0,1311034.092,0.686,-0.675,0.197,0.187,0,0,0,0,0,0,0,0,0,0.000,0,0,0.060,0.003,-0.040,-0.020,-0.040,0.014,0.993,0.012,-0.002,-0.002,0.000,0.000,0.000,0.000,0.000,0,2,0,2,7,255,1440,200,0,0,-89.332,0.953,-31.500
EX0521-092111,27,C18,prep,1856,1856,0,1311039.092,0.686,-0.675,0.197,0.187,0,0,0,0,0,0,0,0,0,0.000,0,0,0.049,0.003,0.020,-0.020,-0.040,0.014,0.993,0.012,-0.002,-0.002,-0.006,0.000,0.000,0.000,0.000,0,2,0,2,7,255,1440,200,0,0,-89.332,0.953,-31.500
EX0521-092111,27,C18,prep,1856,1856,0,1311044.092,0.686,-0.675,0.197,0.187,0,0,0,0,0,0,0,0,0,0.000,0,0,0.049,0.009,-0.040,-0.020,0.020,0.014,0.993,0.013,-0.008,-0.004,-0.006,0.000,0.000,0.000,0.000,0,2,0,2,7,255,1440,200,0,0,-89.332,0.953,-31.500
EX0521-092111,27,C18,prep,1856,1856,0,1311049.092,0.686,-0.675,0.197,0.187,0,0,0,0,0,0,0,0,0,0.000,0,0,0.085,0.003,0.080,-0.020,0.020,0.015,0.994,0.011,-0.002,-0.002,0.000,0.000,0.000,0.000,0.000,0,2,0,2,7,255,1440,200,0,0,-89.332,0.953,-31.500
EX0521-092111,27,C18,prep,1856,1856,0,1311054.091,0.686,-0.675,0.197,0.187,0,0,0,0,0,0,0,0,0,0.000,0,0,0.060,0.004,-0.040,-0.020,-0.040,0.014,0.993,0.011,0.004,-0.002,0.000,0.000,0.000,0.000,0.000,0,2,0,2,7,255,1440,200,0,0,-89.332,0.953,-31.500
EX0521-092111,27,C18,prep,1887,1887,0,1311059.091,0.686,-0.675,0.197,0.187,0,0,0,0,0,0,0,0,0,0.000,0,0,0.060,0.004,0.020,0.040,-0.040,0.014,0.993,0.012,0.004,-0.002,-0.006,0.000,0.000,0.000,0.000,0,2,0,2,7,255,1440,200,0,0,-89.332,0.953,-31.500
EX0521-092111,27,C18,prep,1887,1887,0,1311064.093,0.686,-0.675,0.197,0.187,0,0,0,0,0,0,0,0,0,0.000,0,0,0.049,0.003,0.020,-0.020,-0.040,0.014,0.993,0.012,-0.002,-0.002,-0.006,0.000,0.000,0.000,0.000,0,2,0,2,7,255,1440,200,0,0,-89.332,0.953,-31.500
EX0521-092111,27,C18,prep,1915,1915,0,1311069.091,0.686,-0.675,0.197,0.187,0,0,0,0,0,0,0,0,0,0.000,0,0,0.049,0.003,0.020,-0.020,-0.040,0.015,0.994,0.011,-0.002,-0.002,0.000,0.000,0.000,0.000,0.000,0,2,0,2,7,255,1440,200,0,0,-89.332,0.953,-31.500
EX0521-092111,27,C18,prep,1915,1915,0,1311074.093,0.686,-0.675,0.197,0.187,0,0,0,0,0,0,0,0,0,0.000,0,0,0.049,0.004,0.020,-0.020,-0.040,0.015,0.994,0.011,0.004,0.000,0.008,0.000,0.000,0.000,0.000,0,2,0,2,7,255,1440,200,0,0,-89.332,0.953,-31.500
EX0521-092111,27,C18,prep,1916,1916,0,1311079.092,0.686,-0.675,0.197,0.187,0,0,0,0,0,0,0,0,0,0.000,0,0,0.092,0.006,0.020,-0.080,-0.040,0.015,0.994,0.011,0.006,0.000,0.008,0.000,0.000,0.000,0.000,0,2,0,2,7,255,1440,200,0,0,-89.332,0.953,-31.500
EX0521-092111,27,C18,prep,1916,1916,0,1311084.092,0.686,-0.675,0.197,0.187,0,0,0,0,0,0,0,0,0,0.000,0,0,0.060,0.004,-0.040,-0.020,-0.040,0.014,0.994,0.012,0.004,0.000,0.008,0.000,0.000,0.000,0.000,0,2,0,2,7,255,1440,200,0,0,-89.332,0.953,-31.500
EX0521-092111,27,C18,prep,1917,1917,0,1311089.092,0.686,-0.675,0.197,0.187,0,0,0,0,0,0,0,0,0,0.000,0,0,0.049,0.004,-0.040,-0.020,0.020,0.014,0.994,0.012,-0.004,-0.002,0.004,0.000,0.000,0.000,0.000,0,2,0,2,7,255,1440,200,0,0,-89.332,0.953,-31.500
EX0521-092111,27,C18,prep,1917,1917,0,1311094.092,0.686,-0.675,0.197,0.187,0,0,0,0,0,0,0,0,0,0.000,0,0,0.060,0.008,-0.040,-0.020,-0.040,0.013,0.994,0.011,-0.008,-0.002,0.008,0.000,0.000,0.000,0.000,0,2,0,2,7,255,1440,200,0,0,-89.332,0.953,-31.500
EX0521-092111,27,C18,prep,1941,1941,0,1311099.092,0.686,-0.675,0.197,0.187,0,0,0,0,0,0,0,0,0,0.000,0,0,0.035,0.008,0.020,-0.020,0.020,0.014,0.993,0.011,-0.008,0.002,0.004,0.000,0.000,0.000,0.000,0,2,0,2,7,255,1440,200,0,0,-89.332,0.953,-31.500
EX0521-092111,27,C18,prep,1941,1941,0,1311104.091,0.686,-0.675,0.197,0.187,0,0,0,0,0,0,0,0,0,0.000,0,0,0.049,0.003,-0.040,-0.020,0.020,0.015,0.993,0.011,0.002,0.002,0.000,0.000,0.000,0.000,0.000,0,2,0,2,7,255,1440,200,0,0,-89.332,0.953,-31.500
EX0521-092111,27,C18,prep,1941,1941,0,1311109.091,0.686,-0.675,0.197,0.187,0,0,0,0,0,0,0,0,0,0.000,0,0,0.049,0.006,0.020,-0.020,-0.040,0.015,0.994,0.011,0.006,0.002,0.000,0.000,0.000,0.000,0.000,0,2,0,2,7,255,1440,200,0,0,-89.332,0.953,-31.500
EX0521-092111,27,C18,prep,1941,1941,0,1311114.092,0.686,-0.675,0.197,0.187,0,0,0,0,0,0,0,0,0,0.000,0,0,0.060,0.006,-0.040,-0.020,-0.040,0.015,0.993,0.012,0.006,0.000,0.000,0.000,0.000,0.000,0.000,0,2,0,2,7,255,1440,200,0,0,-89.332,0.953,-31.500
EX0521-092111,27,C18,prep,1941,1941,0,1311119.091,0.686,-0.675,0.197,0.187,0,0,0,0,0,0,0,0,0,0.000,0,0,0.049,0.004,-0.040,-0.020,0.020,0.014,0.994,0.010,0.002,0.004,0.004,0.000,0.000,0.000,0.000,0,2,0,2,7,255,1440,200,0,0,-89.332,0.953,-31.500
EX0521-092111,27,C18,prep,1941,1941,0,1311124.092,0.686,-0.675,0.197,0.187,0,0,0,0,0,0,0,0,0,0.000,0,0,0.092,0.002,0.080,0.040,0.020,0.015,0.992,0.011,0.002,0.000,0.000,0.000,0.000,0.000,0.000,0,2,0,2,7,255,1440,200,0,0,-89.332,0.953,-31.500
EX0521-092111,27,C18,prep,1951,1951,0,1311129.092,0.686,-0.675,0.197,0.187,0,0,0,0,0,0,0,0,0,0.000,0,0,0.049,0.007,-0.040,-0.020,0.020,0.015,0.993,0.011,0.006,0.004,-0.006,0.000,0.000,0.000,0.000,0,2,0,2,7,255,1440,200,0,0,-89.332,0.953,-31.500
EX0521-092111,27,C18,prep,1951,1951,0,1311134.092,0.686,-0.675,0.197,0.187,0,0,0,0,0,0,0,0,0,0.000,0,0,0.035,0.008,0.020,-0.020,0.020,0.016,0.993,0.012,0.008,0.000,-0.006,0.000,0.000,0.000,0.000,0,2,0,2,7,255,1440,200,0,0,-89.332,0.953,-31.500
EX0521-092111,27,C18,prep,1951,1951,0,1311139.092,0.686,-0.675,0.197,0.187,0,0,0,0,0,0,0,0,0,0.000,0,0,0.060,0.008,-0.040,-0.020,-0.040,0.015,0.993,0.011,0.008,0.000,0.000,0.000,0.000,0.000,0.000,0,2,0,2,7,255,1440,200,0,0,-89.332,0.953,-31.500
EX0521-092111,27,C18,prep,1951,1951,0,1311144.092,0.686,-0.675,0.197,0.187,0,0,0,0,0,0,0,0,0,0.000,0,0,0.049,0.004,-0.040,-0.020,0.020,0.014,0.992,0.012,0.004,0.000,0.000,0.000,0.000,0.000,0.000,0,2,0,2,7,255,1440,200,0,0,-89.332,0.953,-31.500
EX0521-092111,27,C18,prep,1973,1973,0,1311149.092,0.686,-0.675,0.197,0.187,0,0,0,0,0,0,0,0,0,0.000,0,0,0.060,0.000,-0.040,-0.020,-0.040,0.014,0.993,0.011,0.000,0.000,0.000,0.000,0.000,0.000,0.000,0,2,0,2,7,255,1440,200,0,0,-89.332,0.953,-31.500
EX0521-092111,27,C18,prep,1973,1973,0,1311154.091,0.686,-0.675,0.197,0.187,0,0,0,0,0,0,0,0,0,0.000,0,0,0.060,0.004,-0.040,0.040,0.020,0.014,0.993,0.012,-0.004,0.000,-0.006,0.000,0.000,0.000,0.000,0,2,0,2,7,255,1440,200,0,0,-89.332,0.953,-31.500
EX0521-092111,27,C18,prep,2014,2014,0,1311159.091,0.686,-0.675,0.197,0.187,0,0,0,0,0,0,0,0,0,0.000,0,0,0.098,0.004,-0.040,-0.080,-0.040,0.014,0.992,0.011,-0.004,0.002,-0.006,0.000,0.000,0.000,0.000,0,2,0,2,7,255,1440,200,0,0,-89.332,0.953,-31.500
EX0521-092111,27,C18,prep,2014,2014,0,1311164.093,0.686,-0.675,0.197,0.187,0,0,0,0,0,0,0,0,0,0.000,0,0,0.049,0.007,0.020,-0.020,-0.040,0.015,0.993,0.012,-0.004,-0.006,-0.006,0.000,0.000,0.000,0.000,0,2,0,2,7,255,1440,200,0,0,-89.332,0.953,-31.500
EX0521-092111,27,C18,prep,2014,2014,0,1311169.091,0.686,-0.675,0.197,0.187,0,0,0,0,0,0,0,0,0,0.000,0,0,0.049,0.008,-0.040,-0.020,0.020,0.015,0.994,0.012,0.006,-0.006,0.000,0.000,0.000,0.000,0.000,0,2,0,2,7,255,1440,200,0,0,-89.332,0.953,-31.500
EX0521-092111,27,C18,prep,2014,2014,0,1311174.093,0.686,-0.675,0.197,0.187,0,0,0,0,0,0,0,0,0,0.000,0,0,0.060,0.008,-0.040,-0.020,-0.040,0.014,0.994,0.012,0.006,-0.006,0.004,0.000,0.000,0.000,0.000,0,2,0,2,7,255,1440,200,0,0,-89.332,0.953,-31.500
EX0521-092111,27,C18,prep,2025,2025,0,1311179.092,0.686,-0.675,0.197,0.187,0,0,0,0,0,0,0,0,0,0.000,0,0,0.060,0.004,-0.040,-0.020,-0.040,0.014,0.993,0.011,0.004,-0.002,0.004,0.000,0.000,0.000,0.000,0,2,0,2,7,255,1440,200,0,0,-89.332,0.953,-31.500
EX0521-092111,27,C18,prep,2025,2025,0,1311184.092,0.686,-0.675,0.197,0.187,0,0,0,0,0,0,0,0,0,0.000,0,0,0.049,0.006,0.020,0.040,0.020,0.015,0.993,0.011,0.004,0.004,0.000,0.000,0.000,0.000,0.000,0,2,0,2,7,255,1440,200,0,0,-89.332,0.953,-31.500
EX0521-092111,27,C18,prep,2025,2025,0,1311189.092,0.686,-0.675,0.197,0.187,0,0,0,0,0,0,0,0,0,0.000,0,0,0.049,0.006,-0.040,-0.020,0.020,0.015,0.994,0.012,0.004,0.004,0.000,0.000,0.000,0.000,0.000,0,2,0,2,7,255,1440,200,0,0,-89.332,0.953,-31.500
EX0521-092111,27,C18,prep,2025,2025,0,1311194.092,0.686,-0.675,0.197,0.187,0,0,0,0,0,0,0,0,0,0.000,0,0,0.049,0.004,0.020,-0.020,-0.040,0.013,0.993,0.012,0.002,0.004,0.000,0.000,0.000,0.000,0.000,0,2,0,2,7,255,1440,200,0,0,-89.332,0.953,-31.500
EX0521-092111,27,C18,prep,2027,2027,0,1311199.092,0.686,-0.675,0.197,0.187,0,0,0,0,0,0,0,0,0,0.000,0,0,0.060,0.006,-0.040,-0.020,-0.040,0.014,0.993,0.012,-0.006,0.002,0.000,0.000,0.000,0.000,0.000,0,2,0,2,7,255,1440,200,0,0,-89.332,0.953,-31.500
EX0521-092111,27,C18,prep,2027,2027,0,1311204.091,0.686,-0.675,0.197,0.187,0,0,0,0,0,0,0,0,0,0.000,0,0,0.049,0.006,0.020,-0.020,-0.040,0.014,0.993,0.012,-0.006,0.002,0.000,0.000,0.000,0.000,0.000,0,2,0,2,7,255,1440,200,0,0,-89.332,0.953,-31.500
EX0521-092111,27,C18,prep,2028,2028,0,1311209.091,0.686,-0.675,0.197,0.187,0,0,0,0,0,0,0,0,0,0.000,0,0,0.060,0.003,0.020,0.040,-0.040,0.014,0.994,0.012,-0.002,-0.002,0.000,0.000,0.000,0.000,0.000,0,2,0,2,7,255,1440,200,0,0,-89.332,0.953,-31.500
EX0521-092111,27,C18,prep,2028,2028,0,1311214.092,0.686,-0.675,0.197,0.187,0,0,0,0,0,0,0,0,0,0.000,0,0,0.120,0.003,0.080,-0.080,-0.040,0.015,0.993,0.011,-0.002,-0.002,0.000,0.000,0.000,0.000,0.000,0,2,0,2,7,255,1440,200,0,0,-89.332,0.953,-31.500
EX0521-092111,27,C18,prep,2031,2031,0,1311219.091,0.686,-0.675,0.197,0.187,0,0,0,0,0,0,0,0,0,0.000,0,0,0.049,0.004,0.020,-0.020,-0.040,0.015,0.993,0.011,0.004,-0.002,0.000,0.000,0.000,0.000,0.000,0,2,0,2,7,255,1440,200,0,0,-89.332,0.953,-31.500
EX0521-092111,27,C18,prep,2031,2031,0,1311224.092,0.686,-0.675,0.197,0.187,0,0,0,0,0,0,0,0,0,0.000,0,0,0.049,0.004,-0.040,-0.020,0.020,0.014,0.993,0.012,0.004,0.000,0.000,0.000,0.000,0.000,0.000,0,2,0,2,7,255,1440,200,0,0,-89.332,0.953,-31.500
EX0521-092111,27,C18,prep,2047,2047,0,1311229.092,0.686,-0.675,0.197,0.187,0,0,0,0,0,0,0,0,0,0.000,0,0,0.060,0.002,0.020,0.040,-0.040,0.014,0.992,0.011,0.000,0.002,0.000,0.000,0.000,0.000,0.000,0,2,0,2,7,255,1440,200,0,0,-89.332,0.953,-31.500
EX0521-092111,27,C18,prep,2047,2047,0,1311234.092,0.686,-0.675,0.197,0.187,0,0,0,0,0,0,0,0,0,0.000,0,0,0.060,0.004,-0.040,-0.020,-0.040,0.014,0.993,0.012,-0.004,0.002,-0.006,0.000,0.000,0.000,0.000,0,2,0,2,7,255,1440,200,0,0,-89.332,0.953,-31.500
EX0521-092111,27,C18,prep,2047,2047,0,1311239.092,0.686,-0.675,0.197,0.187,0,0,0,0,0,0,0,0,0,0.000,0,0,0.035,0.010,0.020,-0.020,0.020,0.014,0.993,0.011,0.000,0.010,-0.006,0.000,0.000,0.000,0.000,0,2,0,2,7,255,1440,200,0,0,-89.332,0.953,-31.500
EX0521-092111,27,C18,prep,2047,2047,0,1311244.092,0.686,-0.675,0.197,0.187,0,0,0,0,0,0,0,0,0,0.000,0,0,0.035,0.007,0.020,-0.020,0.020,0.014,0.994,0.012,-0.004,-0.006,0.000,0.000,0.000,0.000,0.000,0,2,0,2,7,255,1440,200,0,0,-89.332,0.953,-31.500
EX0521-092111,27,C18,prep,2063,2063,0,1311249.092,0.686,-0.675,0.197,0.187,0,0,0,0,0,0,0,0,0,0.000,0,0,0.049,0.007,0.020,-0.020,-0.040,0.014,0.993,0.011,-0.004,0.006,0.000,0.000,0.000,0.000,0.000,0,2,0,2,7,255,1440,200,0,0,-89.332,0.953,-31.500
EX0521-092111,27,C18,prep,2063,2063,0,1311254.091,0.686,-0.675,0.197,0.187,0,0,0,0,0,0,0,0,0,0.000,0,0,0.049,0.004,-0.040,-0.020,0.020,0.014,0.995,0.012,-0.004,0.002,0.004,0.000,0.000,0.000,0.000,0,2,0,2,7,255,1440,200,0,0,-89.332,0.953,-31.500
EX0521-092111,27,C18,prep,2095,2095,0,1311259.091,0.686,-0.675,0.197,0.187,0,0,0,0,0,0,0,0,0,0.000,0,0,0.049,0.006,-0.040,-0.020,0.020,0.014,0.994,0.012,-0.006,0.002,0.004,0.000,0.000,0.000,0.000,0,2,0,2,7,255,1440,200,0,0,-89.332,0.953,-31.500
EX0521-092111,27,C18,prep,2095,2095,0,1311264.091,0.686,-0.675,0.197,0.187,0,0,0,0,0,0,0,0,0,0.000,0,0,0.060,0.006,-0.040,-0.020,-0.040,0.015,0.993,0.012,-0.006,0.002,0.004,0.000,0.000,0.000,0.000,0,2,0,2,7,255,1440,200,0,0,-89.332,0.953,-31.500
EX0521-092111,27,C18,prep,2095,2095,0,1311269.091,0.686,-0.675,0.197,0.187,0,0,0,0,0,0,0,0,0,0.000,0,0,0.035,0.002,0.020,-0.020,0.020,0.014,0.993,0.011,0.000,0.002,0.000,0.000,0.000,0.000,0.000,0,2,0,2,7,255,1440,200,0,0,-89.332,0.953,-31.500
EX0521-092111,27,C18,prep,2095,2095,0,1311274.093,0.686,-0.675,0.197,0.187,0,0,0,0,0,0,0,0,0,0.000,0,0,0.049,0.008,0.020,-0.020,-0.040,0.015,0.993,0.012,0.006,-0.006,-0.006,0.000,0.000,0.000,0.000,0,2,0,2,7,255,1440,200,0,0,-89.332,0.953,-31.500
EX0521-092111,27,C18,prep,2115,2115,0,1311279.092,0.686,-0.675,0.197,0.187,0,0,0,0,0,0,0,0,0,0.000,0,0,0.049,0.004,0.020,-0.020,-0.040,0.015,0.992,0.011,0.004,0.000,-0.006,0.000,0.000,0.000,0.000,0,2,0,2,7,255,1440,200,0,0,-89.332,0.953,-31.500
EX0521-092111,27,C18,prep,2115,2115,0,1311284.092,0.686,-0.675,0.197,0.187,0,0,0,0,0,0,0,0,0,0.000,0,0,0.035,0.004,0.020,-0.020,0.020,0.014,0.993,0.012,0.004,0.000,-0.006,0.000,0.000,0.000,0.000,0,2,0,2,7,255,1440,200,0,0,-89.332,0.953,-31.500
EX0521-092111,27,C18,prep,2116,2116,0,1311289.092,0.686,-0.675,0.197,0.187,0,0,0,0,0,0,0,0,0,0.000,0,0,0.069,0.006,-0.040,0.040,-0.040,0.013,0.993,0.012,-0.006,0.002,0.000,0.000,0.000,0.000,0.000,0,2,0,2,7,255,1440,200,0,0,-89.332,0.953,-31.500
EX0521-092111,27,C18,prep,2116,2116,0,1311294.092,0.686,-0.675,0.197,0.187,0,0,0,0,0,0,0,0,0,0.000,0,0,0.035,0.006,0.020,-0.020,0.020,0.014,0.993,0.012,-0.006,0.002,0.000,0.000,0.000,0.000,0.000,0,2,0,2,7,255,1440,200,0,0,-89.332,0.953,-31.500
EX0521-092111,27,C18,prep,2117,2117,0,1311299.092,0.686,-0.675,0.197,0.187,0,0,0,0,0,0,0,0,0,0.000,0,0,0.035,0.003,0.020,-0.020,0.020,0.014,0.994,0.012,-0.002,-0.002,0.000,0.000,0.000,0.000,0.000,0,2,0,2,7,255,1440,200,0,0,-89.332,0.953,-31.500
EX0521-092111,27,C18,prep,2117,2117,0,1311304.091,0.686,-0.675,0.197,0.187,0,0,0,0,0,0,0,0,0,0.000,0,0,0.035,0.003,0.020,-0.020,0.020,0.014,0.994,0.012,-0.002,-0.002,0.004,0.000,0.000,0.000,0.000,0,2,0,2,7,255,1440,200,0,0,-89.332,0.953,-31.500
EX0521-092111,27,C18,prep,2127,2127,0,1311309.091,0.686,-0.675,0.197,0.187,0,0,0,0,0,0,0,0,0,0.000,0,0,0.035,0.004,0.020,-0.020,0.020,0.013,0.993,0.012,-0.004,-0.002,0.004,0.000,0.000,0.000,0.000,0,2,0,2,7,255,1440,200,0,0,-89.332,0.953,-31.500
EX0521-092111,27,C18,prep,2127,2127,0,1311314.092,0.686,-0.675,0.197,0.187,0,0,0,0,0,0,0,0,0,0.000,0,0,0.035,0.004,0.020,-0.020,0.020,0.014,0.993,0.011,-0.004,0.002,0.000,0.000,0.000,0.000,0.000,0,2,0,2,7,255,1440,200,0,0,-89.332,0.953,-31.500
EX0521-092111,27,C18,prep,2127,2127,0,1311319.091,0.686,-0.675,0.197,0.187,0,0,0,0,0,0,0,0,0,0.000,0,0,0.085,0.004,0.020,-0.080,0.020,0.014,0.993,0.011,-0.002,0.004,-0.006,0.000,0.000,0.000,0.000,0,2,0,2,7,255,1440,200,0,0,-89.332,0.953,-31.500
EX0521-092111,27,C18,prep,2127,2127,0,1311324.092,0.686,-0.675,0.197,0.187,0,0,0,0,0,0,0,0,0,0.000,0,0,0.092,0.003,-0.040,-0.020,0.080,0.014,0.993,0.012,-0.002,0.002,-0.006,0.000,0.000,0.000,0.000,0,2,0,2,7,255,1440,200,0,0,-89.332,0.953,-31.500
EX0521-092111,27,C18,prep,2159,2159,0,1311329.092,0.686,-0.675,0.197,0.187,0,0,0,0,0,0,0,0,0,0.000,0,0,0.060,0.003,-0.040,-0.020,-0.040,0.014,0.993,0.012,-0.002,-0.002,-0.006,0.000,0.000,0.000,0.000,0,2,0,2,7,255,1440,200,0,0,-89.332,0.953,-31.500
EX0521-092111,27,C18,prep,2159,2159,0,1311334.092,0.686,-0.675,0.197,0.187,0,0,0,0,0,0,0,0,0,0.000,0,0,0.060,0.003,0.020,0.040,-0.040,0.014,0.993,0.011,-0.002,-0.002,0.000,0.000,0.000,0.000,0.000,0,2,0,2,7,255,1440,200,0,0,-89.332,0.953,-31.500
EX0521-092111,27,C18,prep,2159,2159,0,1311339.092,0.686,-0.675,0.197,0.187,0,0,0,0,0,0,0,0,0,0.000,0,0,0.060,0.000,-0.040,0.040,0.020,0.015,0.992,0.011,0.000,0.000,0.000,0.000,0.000,0.000,0.000,0,2,0,2,7,255,1440,200,0,0,-89.332,0.953,-31.500
EX0521-092111,27,C18,prep,2159,2159,0,1311344.092,0.686,-0.675,0.197,0.187,0,0,0,0,0,0,0,0,0,0.000,0,0,0.035,0.000,0.020,-0.020,0.020,0.014,0.993,0.012,0.000,0.000,-0.004,0.000,0.000,0.000,0.000,0,2,0,2,7,255,1440,200,0,0,-89.332,0.953,-31.500
EX0521-092111,27,C18,prep,2191,2191,0,1311349.092,0.686,-0.675,0.197,0.187,0,0,0,0,0,0,0,0,0,0.000,0,0,0.060,0.008,-0.040,0.040,0.020,0.013,0.993,0.012,-0.008,0.000,-0.004,0.000,0.000,0.000,0.000,0,2,0,2,7,255,1440,200,0,0,-89.332,0.953,-31.500
EX0521-092111,27,C18,prep,2191,2191,0,1311354.091,0.686,-0.675,0.197,0.187,0,0,0,0,0,0,0,0,0,0.000,0,0,0.035,0.008,0.020,-0.020,0.020,0.014,0.993,0.012,-0.008,-0.002,-0.004,0.000,0.000,0.000,0.000,0,2,0,2,7,255,1440,200,0,0,-89.332,0.953,-31.500
EX0521-092111,27,C18,prep,2191,2191,0,1311359.091,0.686,-0.675,0.197,0.187,0,0,0,0,0,0,0,0,0,0.000,0,0,0.120,0.004,0.080,-0.080,-0.040,0.014,0.994,0.012,-0.004,-0.002,0.000,0.000,0.000,0.000,0.000,0,2,0,2,7,255,1440,200,0,0,-89.332,0.953,-31.500
EX0521-092111,27,C18,prep,2191,2191,0,1311364.093,0.686,-0.675,0.197,0.187,0,0,0,0,0,0,0,0,0,0.000,0,0,0.049,0.003,0.020,-0.020,-0.040,0.014,0.993,0.011,-0.002,-0.002,0.000,0.000,0.000,0.000,0.000,0,2,0,2,7,255,1440,200,0,0,-89.332,0.953,-31.500
EX0521-092111,27,C18,prep,2191,2191,0,1311369.091,0.686,-0.675,0.197,0.187,0,0,0,0,0,0,0,0,0,0.000,0,0,0.049,0.006,0.020,-0.020,-0.040,0.015,0.992,0.012,0.000,-0.006,0.000,0.000,0.000,0.000,0.000,0,2,0,2,7,255,1440,200,0,0,-89.332,0.953,-31.500
EX0521-092111,27,C18,prep,2214,2214,0,1311374.093,0.686,-0.675,0.197,0.187,0,0,0,0,0,0,0,0,0,0.000,0,0,0.035,0.008,0.020,-0.020,0.020,0.015,0.993,0.012,0.000,-0.008,0.000,0.000,0.000,0.000,0.000,0,2,0,2,7,255,1440,200,0,0,-89.332,0.953,-31.500
EX0521-092111,27,C18,prep,2216,2216,0,1311379.092,0.686,-0.675,0.197,0.187,0,0,0,0,0,0,0,0,0,0.000,0,0,0.035,0.008,0.020,-0.020,0.020,0.014,0.993,0.012,0.000,-0.008,0.000,0.000,0.000,0.000,0.000,0,2,0,2,7,255,1440,200,0,0,-89.332,0.953,-31.500
EX0521-092111,27,C18,prep,2216,2216,0,1311384.092,0.686,-0.675,0.197,0.187,0,0,0,0,0,0,0,0,0,0.000,0,0,0.049,0.003,0.020,-0.020,-0.040,0.014,0.993,0.011,-0.002,-0.002,0.000,0.000,0.000,0.000,0.000,0,2,0,2,7,255,1440,200,0,0,-89.332,0.953,-31.500
EX0521-092111,27,C18,prep,2216,2216,0,1311389.092,0.686,-0.675,0.197,0.187,0,0,0,0,0,0,0,0,0,0.000,0,0,0.049,0.006,-0.040,-0.020,0.020,0.014,0.993,0.011,-0.002,0.006,0.000,0.000,0.000,0.000,0.000,0,2,0,2,7,255,1440,200,0,0,-89.332,0.953,-31.500
EX0521-092111,27,C18,prep,2216,2216,0,1311394.092,0.686,-0.675,0.197,0.187,0,0,0,0,0,0,0,0,0,0.000,0,0,0.035,0.006,0.020,-0.020,0.020,0.015,0.993,0.011,-0.002,0.006,0.000,0.000,0.000,0.000,0.000,0,2,0,2,7,255,1440,200,0,0,-89.332,0.953,-31.500
EX0521-092111,27,C18,prep,2223,2223,0,1311399.092,0.686,-0.675,0.197,0.187,0,0,0,0,0,0,0,0,0,0.000,0,0,0.049,0.006,-0.040,-0.020,0.020,0.013,0.993,0.011,-0.002,0.006,0.000,0.000,0.000,0.000,0.000,0,2,0,2,7,255,1440,200,0,0,-89.332,0.953,-31.500
EX0521-092111,27,C18,prep,2223,2223,0,1311404.091,0.686,-0.675,0.197,0.187,0,0,0,0,0,0,0,0,0,0.000,0,0,0.049,0.010,0.020,-0.020,-0.040,0.013,0.993,0.011,-0.006,0.008,0.000,0.000,0.000,0.000,0.000,0,2,0,2,7,255,1440,200,0,0,-89.332,0.953,-31.500
EX0521-092111,27,C18,prep,2239,2239,0,1311409.091,0.686,-0.675,0.197,0.187,0,0,0,0,0,0,0,0,0,0.000,0,0,0.049,0.010,0.020,-0.020,-0.040,0.014,0.995,0.012,-0.006,0.008,0.000,0.000,0.000,0.000,0.000,0,2,0,2,7,255,1440,200,0,0,-89.332,0.953,-31.500
EX0521-092111,27,C18,prep,2239,2239,0,1311414.092,0.686,-0.675,0.197,0.187,0,0,0,0,0,0,0,0,0,0.000,0,0,0.049,0.006,0.020,-0.020,-0.040,0.015,0.993,0.012,-0.006,-0.002,0.000,0.000,0.000,0.000,0.000,0,2,0,2,7,255,1440,200,0,0,-89.332,0.953,-31.500
EX0521-092111,27,C18,prep,2239,2239,0,1311419.091,0.686,-0.675,0.197,0.187,0,0,0,0,0,0,0,0,0,0.000,0,0,0.049,0.003,0.020,-0.020,-0.040,0.014,0.994,0.011,0.002,-0.002,0.004,0.000,0.000,0.000,0.000,0,2,0,2,7,255,1440,200,0,0,-89.332,0.953,-31.500
EX0521-092111,27,C18,prep,2239,2239,0,1311424.092,0.686,-0.675,0.197,0.187,0,0,0,0,0,0,0,0,0,0.000,0,0,0.060,0.006,-0.040,-0.020,-0.040,0.015,0.993,0.012,0.004,-0.004,-0.004,0.000,0.000,0.000,0.000,0,2,0,2,7,255,1440,200,0,0,-89.332,0.953,-31.500
EX0521-092111,27,C18,prep,2239,2239,0,1311429.092,0.686,-0.675,0.197,0.187,0,0,0,0,0,0,0,0,0,0.000,0,0,0.060,0.003,-0.040,-0.020,-0.040,0.014,0.994,0.011,0.002,0.002,0.004,0.000,0.000,0.000,0.000,0,2,0,2,7,255,1440,200,0,0,-89.332,0.953,-31.500
EX0521-092111,27,C18,prep,2239,2239,0,1311434.092,0.686,-0.675,0.197,0.187,0,0,0,0,0,0,0,0,0,0.000,0,0,0.049,0.004,0.020,-0.020,-0.040,0.015,0.992,0.011,0.004,0.000,-0.004,0.000,0.000,0.000,0.000,0,2,0,2,7,255,1440,200,0,0,-89.332,0.953,-31.500
EX0521-092111,27,C18,prep,2255,2255,0,1311439.092,0.686,-0.675,0.197,0.187,0,0,0,0,0,0,0,0,0,0.000,0,0,0.035,0.002,0.020,-0.020,0.020,0.014,0.992,0.012,0.002,0.000,-0.010,0.000,0.000,0.000,0.000,0,2,0,2,7,255,1440,200,0,0,-89.332,0.953,-31.500
EX0521-092111,27,C18,prep,2255,2255,0,1311444.092,0.686,-0.675,0.197,0.187,0,0,0,0,0,0,0,0,0,0.000,0,0,0.049,0.000,0.020,-0.020,-0.040,0.013,0.993,0.011,0.000,0.000,-0.010,0.000,0.000,0.000,0.000,0,2,0,2,7,255,1440,200,0,0,-89.332,0.953,-31.500
EX0521-092111,27,C18,prep,2255,2255,0,1311449.092,0.686,-0.675,0.197,0.187,0,0,0,0,0,0,0,0,0,0.000,0,0,0.060,0.002,-0.040,-0.020,-0.040,0.015,0.993,0.012,0.000,-0.002,-0.004,0.000,0.000,0.000,0.000,0,2,0,2,7,255,1440,200,0,0,-89.332,0.953,-31.500
EX0521-092111,27,C18,prep,2255,2255,0,1311454.091,0.686,-0.675,0.197,0.187,0,0,0,0,0,0,0,0,0,0.000,0,0,0.049,0.008,-0.040,-0.020,0.020,0.014,0.993,0.011,0.000,0.008,-0.004,0.000,0.000,0.000,0.000,0,2,0,2,7,255,1440,200,0,0,-89.332,0.953,-31.500
EX0521-092111,27,C18,prep,2303,2303,0,1311459.091,0.686,-0.675,0.197,0.187,0,0,0,0,0,0,0,0,0,0.000,0,0,0.049,0.004,0.020,-0.020,-0.040,0.015,0.993,0.012,0.000,-0.004,-0.004,0.000,0.000,0.000,0.000,0,2,0,2,7,255,1440,200,0,0,-89.332,0.953,-31.500
EX0521-092111,27,C18,prep,2303,2303,0,1311464.091,0.686,-0.675,0.197,0.187,0,0,0,0,0,0,0,0,0,0.000,0,0,0.035,0.008,0.020,-0.020,0.020,0.014,0.993,0.011,0.000,0.008,-0.004,0.000,0.000,0.000,0.000,0,2,0,2,7,255,1440,200,0,0,-89.332,0.953,-31.500
EX0521-092111,27,C18,prep,2319,2319,0,1311469.091,0.686,-0.675,0.197,0.187,0,0,0,0,0,0,0,0,0,0.000,0,0,0.049,0.000,0.020,-0.020,-0.040,0.013,0.993,0.012,0.000,0.000,-0.004,0.000,0.000,0.000,0.000,0,2,0,2,7,255,1440,200,0,0,-89.332,0.953,-31.500
EX0521-092111,27,C18,prep,2319,2319,0,1311474.093,0.686,-0.675,0.197,0.187,0,0,0,0,0,0,0,0,0,0.000,0,0,0.049,0.004,-0.040,-0.020,0.020,0.015,0.993,0.011,0.000,0.004,-0.004,0.000,0.000,0.000,0.000,0,2,0,2,7,255,1440,200,0,0,-89.332,0.953,-31.500
EX0521-092111,27,C18,prep,2319,2319,0,1311479.092,0.686,-0.675,0.197,0.187,0,0,0,0,0,0,0,0,0,0.000,0,0,0.035,0.003,0.020,-0.020,0.020,0.014,0.992,0.011,0.002,0.002,-0.004,0.000,0.000,0.000,0.000,0,2,0,2,7,255,1440,200,0,0,-89.332,0.953,-31.500
EX0521-092111,27,C18,prep,2319,2319,0,1311484.092,0.686,-0.675,0.197,0.187,0,0,0,0,0,0,0,0,0,0.000,0,0,0.049,0.008,-0.040,-0.020,0.020,0.016,0.993,0.012,0.008,0.002,-0.004,0.000,0.000,0.000,0.000,0,2,0,2,7,255,1440,200,0,0,-89.332,0.953,-31.500
EX0521-092111,27,C18,prep,2349,2349,0,1311489.092,0.686,-0.675,0.197,0.187,0,0,0,0,0,0,0,0,0,0.000,0,0,0.092,0.013,0.020,-0.080,-0.040,0.016,0.993,0.011,0.012,-0.004,-0.004,0.000,0.000,0.000,0.000,0,2,0,2,7,255,1440,200,0,0,-89.332,0.953,-31.500
EX0521-092111,27,C18,prep,2349,2349,0,1311494.092,0.686,-0.675,0.197,0.187,0,0,0,0,0,0,0,0,0,0.000,0,0,0.049,0.013,0.020,-0.020,-0.040,0.013,0.993,0.012,0.012,-0.004,-0.004,0.000,0.000,0.000,0.000,0,2,0,2,7,255,1440,200,0,0,-89.332,0.954,-31.500
EX0521-092111,27,C18,prep,2349,2349,0,1311499.091,0.686,-0.675,0.197,0.187,0,0,0,0,0,0,0,0,0,0.000,0,0,0.060,0.006,-0.040,-0.020,-0.040,0.015,0.993,0.011,0.006,0.000,-0.004,0.000,0.000,0.000,0.000,0,2,0,2,7,255,1440,200,0,0,-89.332,0.954,-31.500
EX0521-092111,27,C18,prep,2349,2349,0,1311504.091,0.686,-0.675,0.197,0.187,0,0,0,0,0,0,0,0,0,0.000,0,0,0.060,0.006,0.020,0.040,-0.040,0.014,0.994,0.012,-0.006,0.002,-0.004,0.000,0.000,0.000,0.000,0,2,0,2,7,255,1440,200,0,0,-89.332,0.954,-31.500
EX0521-092111,27,C18,prep,2350,2350,0,1311509.091,0.686,-0.675,0.197,0.187,0,0,0,0,0,0,0,0,0,0.000,0,0,0.035,0.004,0.020,-0.020,0.020,0.015,0.994,0.012,0.004,0.000,0.006,0.000,0.000,0.000,0.000,0,2,0,2,7,255,1440,200,0,0,-89.332,0.954,-31.500
EX0521-092111,27,C18,prep,2350,2350,0,1311514.092,0.686,-0.675,0.197,0.187,0,0,0,0,0,0,0,0,0,0.000,0,0,0.060,0.003,-0.040,-0.020,-0.040,0.014,0.993,0.011,0.002,0.002,0.006,0.000,0.000,0.000,0.000,0,2,0,2,7,255,1440,200,0,0,-89.332,0.954,-31.500
EX0521-092111,27,C18,prep,2351,2351,0,1311519.091,0.686,-0.675,0.197,0.187,0,0,0,0,0,0,0,0,0,0.000,0,0,0.035,0.004,0.020,-0.020,0.020,0.015,0.993,0.011,0.004,-0.002,0.000,0.000,0.000,0.000,0.000,0,2,0,2,7,255,1440,200,0,0,-89.332,0.954,-31.500
EX0521-092111,27,C18,prep,2351,2351,0,1311524.092,0.686,-0.675,0.197,0.187,0,0,0,0,0,0,0,0,0,0.000,0,0,0.049,0.006,0.020,-0.020,-0.040,0.015,0.993,0.012,0.006,-0.002,0.000,0.000,0.000,0.000,0.000,0,2,0,2,7,255,1440,200,0,0,-89.332,0.954,-31.500
EX0521-092111,27,C18,prep,2352,2352,0,1311529.092,0.686,-0.675,0.197,0.187,0,0,0,0,0,0,0,0,0,0.000,0,0,0.069,0.007,-0.040,0.040,-0.040,0.015,0.993,0.012,0.006,-0.004,-0.004,0.000,0.000,0.000,0.000,0,2,0,2,7,255,1440,200,0,0,-89.332,0.954,-31.500
EX0521-092111,27,C18,prep,2352,2352,0,1311534.092,0.686,-0.675,0.197,0.187,0,0,0,0,0,0,0,0,0,0.000,0,0,0.049,0.004,-0.040,-0.020,0.020,0.014,0.991,0.012,0.002,-0.004,-0.004,0.000,0.000,0.000,0.000,0,2,0,2,7,255,1440,200,0,0,-89.332,0.954,-31.500
EX0521-092111,27,C18,prep,2352,2352,0,1311539.092,0.686,-0.675,0.197,0.187,0,0,0,0,0,0,0,0,0,0.000,0,0,0.060,0.004,-0.040,-0.020,-0.040,0.015,0.993,0.012,0.002,-0.004,-0.004,0.000,0.000,0.000,0.000,0,2,0,2,7,255,1440,200,0,0,-89.332,0.954,-31.500
EX0521-092111,27,C18,prep,2353,2353,0,1311544.092,0.686,-0.675,0.197,0.187,0,0,0,0,0,0,0,0,0,0.000,0,0,0.035,0.004,0.020,-0.020,0.020,0.015,0.994,0.012,0.002,-0.004,-0.004,0.000,0.000,0.000,0.000,0,2,0,2,7,255,1440,200,0,0,-89.332,0.954,-31.500
EX0521-092111,27,C18,prep,2380,2380,0,1311549.092,0.686,-0.675,0.197,0.187,0,0,0,0,0,0,0,0,0,0.000,0,0,0.060,0.004,0.020,0.040,-0.040,0.013,0.992,0.011,0.002,-0.004,-0.004,0.000,0.000,0.000,0.000,0,2,0,2,7,255,1440,200,0,0,-89.332,0.954,-31.500
EX0521-092111,27,C18,prep,2380,2380,0,1311554.091,0.686,-0.675,0.197,0.187,0,0,0,0,0,0,0,0,0,0.000,0,0,0.069,0.004,-0.040,0.040,-0.040,0.015,0.993,0.011,0.002,0.004,-0.004,0.000,0.000,0.000,0.000,0,2,0,2,7,255,1440,200,0,0,-89.332,0.954,-31.500
EX0521-092111,27,C18,prep,2413,2413,0,1311559.091,0.686,-0.675,0.197,0.187,0,0,0,0,0,0,0,0,0,0.000,0,0,0.060,0.007,-0.040,-0.020,-0.040,0.015,0.993,0.011,0.006,0.004,-0.004,0.000,0.000,0.000,0.000,0,2,0,2,7,255,1440,200,0,0,-89.332,0.954,-31.500
EX0521-092111,27,C18,prep,2413,2413,0,1311564.093,0.686,-0.675,0.197,0.187,0,0,0,0,0,0,0,0,0,0.000,0,0,0.069,0.006,-0.040,0.040,-0.040,0.014,0.992,0.012,0.006,0.000,-0.004,0.000,0.000,0.000,0.000,0,2,0,2,7,255,1440,200,0,0,-89.332,0.954,-31.500
EX0521-092111,27,C18,prep,2414,2414,0,1311569.091,0.686,-0.675,0.197,0.187,0,0,0,0,0,0,0,0,0,0.000,0,0,0.069,0.002,-0.040,0.040,-0.040,0.014,0.994,0.011,-0.002,0.000,-0.004,0.000,0.000,0.000,0.000,0,2,0,2,7,255,1440,200,0,0,-89.332,0.954,-31.500
EX0521-092111,27,C18,prep,2414,2414,0,1311574.093,0.686,-0.675,0.197,0.187,0,0,0,0,0,0,0,0,0,0.000,0,0,0.049,0.002,-0.040,-0.020,0.020,0.015,0.992,0.013,-0.002,0.000,-0.008,0.000,0.000,0.000,0.000,0,2,0,2,7,255,1440,200,0,0,-89.332,0.954,-31.500
EX0521-092111,27,C18,prep,2415,2415,0,1311579.092,0.686,-0.675,0.197,0.187,0,0,0,0,0,0,0,0,0,0.000,0,0,0.060,0.004,0.020,0.040,-0.040,0.014,0.992,0.012,-0.002,-0.004,-0.008,0.000,0.000,0.000,0.000,0,2,0,2,7,255,1440,200,0,0,-89.332,0.954,-31.500
EX0521-092111,27,C18,prep,2415,2415,0,1311584.092,0.686,-0.675,0.197,0.187,0,0,0,0,0,0,0,0,0,0.000,0,0,0.035,0.006,0.020,-0.020,0.020,0.015,0.992,0.012,-0.002,-0.006,-0.008,0.000,0.000,0.000,0.000,0,2,0,2,7,255,1440,200,0,0,-89.332,0.954,-31.500
EX0521-092111,27,C18,prep,2416,2416,0,1311589.092,0.686,-0.675,0.197,0.187,0,0,0,0,0,0,0,0,0,0.000,0,0,0.049,0.007,0.020,-0.020,-0.040,0.015,0.993,0.011,0.006,-0.004,-0.008,0.000,0.000,0.000,0.000,0,2,0,2,7,255,1440,200,0,0,-89.332,0.954,-31.500
EX0521-092111,27,C18,prep,2416,2416,0,1311594.092,0.686,-0.675,0.197,0.187,0,0,0,0,0,0,0,0,0,0.000,0,0,0.049,0.006,0.020,-0.020,-0.040,0.013,0.993,0.011,0.006,0.000,-0.004,0.000,0.000,0.000,0.000,0,2,0,2,7,255,1440,200,0,0,-89.332,0.954,-31.500
EX0521-092111,27,C18,prep,2447,2447,0,1311599.091,0.686,-0.675,0.197,0.187,0,0,0,0,0,0,0,0,0,0.000,0,0,0.060,0.007,-0.040,-0.020,-0.040,0.014,0.993,0.011,0.004,0.006,-0.004,0.000,0.000,0.000,0.000,0,2,0,2,7,255,1440,200,0,0,-89.332,0.954,-31.500
EX0521-092111,27,C18,prep,2447,2447,0,1311604.091,0.686,-0.675,0.197,0.187,0,0,0,0,0,0,0,0,0,0.000,0,0,0.049,0.006,0.020,-0.020,-0.040,0.014,0.992,0.012,-0.002,0.006,-0.004,0.000,0.000,0.000,0.000,0,2,0,2,7,255,1440,200,0,0,-89.332,0.954,-31.500
EX0521-092111,27,C18,prep,2447,2447,0,1311609.091,0.686,-0.675,0.197,0.187,0,0,0,0,0,0,0,0,0,0.000,0,0,0.049,0.003,0.020,-0.020,-0.040,0.015,0.992,0.012,0.002,-0.002,-0.008,0.000,0.000,0.000,0.000,0,2,0,2,7,255,1440,200,0,0,-89.332,0.954,-31.500
EX0521-092111,27,C18,prep,2447,2447,0,1311614.092,0.686,-0.675,0.197,0.187,0,0,0,0,0,0,0,0,0,0.000,0,0,0.049,0.003,0.020,-0.020,-0.040,0.014,0.993,0.011,0.002,-0.002,-0.008,0.000,0.000,0.000,0.000,0,2,0,2,7,255,1440,200,0,0,-89.332,0.954,-31.500
EX0521-092111,27,C18,prep,2447,2447,0,1311619.091,0.686,-0.675,0.197,0.187,0,0,0,0,0,0,0,0,0,0.000,0,0,0.049,0.003,-0.040,-0.020,0.020,0.014,0.993,0.011,0.002,0.002,-0.004,0.000,0.000,0.000,0.000,0,2,0,2,7,255,1440,200,0,0,-89.332,0.954,-31.500
EX0521-092111,27,C18,prep,2447,2447,0,1311624.092,0.686,-0.675,0.197,0.187,0,0,0,0,0,0,0,0,0,0.000,0,0,0.049,0.003,0.020,-0.020,-0.040,0.014,0.994,0.012,0.002,0.002,-0.004,0.000,0.000,0.000,0.000,0,2,0,2,7,255,1440,200,0,0,-89.332,0.954,-31.500
