experiment_id,condition_order_index,condition_id,condition_phase,condition_phase_elapsed_ms,condition_elapsed_ms,is_stimulation_on,t_ms,R_q0,R_q1,R_q2,R_q3,R_heel1,R_mid1,R_fore1,R_heel2,R_fore3,R_mid2,R_fore4,R_fore2,R_cadence,R_speed,R_steps,R_zupt,R_gyroNorm,R_accH,R_gyro_x,R_gyro_y,R_gyro_z,R_acc_x,R_acc_y,R_acc_z,R_nav_ax,R_nav_ay,R_nav_az,R_stepVel,R_stepVelj,R_stepDispRaw,R_stepDispZUPT,R_gaitEvent,R_motorMode,R_motorActive,R_motorAlignment,R_motorRegionMask,R_motorAmplitude,R_motorIntervalMs,R_motorDurationMs,R_motorPhaseMs,R_motorCycleMs,R_roll,R_pitch,R_yaw
EX0521-092111,26,C02,rest,33200,33200,0,1277739.092,0.686,-0.675,0.197,0.187,0,0,0,0,0,0,0,0,0,0.000,0,0,0.110,0.006,-0.040,-0.020,-0.100,0.013,0.992,0.011,-0.004,0.004,0.000,0.000,0.000,0.000,0.000,0,2,0,1,7,255,1440,300,0,0,-89.357,0.964,-31.502
EX0521-092111,26,C02,rest,33200,33200,0,1277744.092,0.686,-0.675,0.197,0.187,0,0,0,0,0,0,0,0,0,0.000,0,0,0.085,0.006,0.020,-0.080,0.020,0.014,0.992,0.011,-0.004,0.004,-0.010,0.000,0.000,0.000,0.000,0,2,0,1,7,255,1440,300,0,0,-89.357,0.964,-31.502
EX0521-092111,26,C02,rest,33200,33200,0,1277749.092,0.686,-0.675,0.197,0.187,0,0,0,0,0,0,0,0,0,0.000,0,0,0.049,0.006,0.020,-0.020,-0.040,0.014,0.995,0.011,-0.004,0.004,-0.010,0.000,0.000,0.000,0.000,0,2,0,1,7,255,1440,300,0,0,-89.357,0.964,-31.502
EX0521-092111,26,C02,rest,33200,33200,0,1277754.093,0.686,-0.675,0.197,0.187,0,0,0,0,0,0,0,0,0,0.000,0,0,0.049,0.002,0.020,-0.020,-0.040,0.015,0.994,0.011,0.000,0.002,0.004,0.000,0.000,0.000,0.000,0,2,0,1,7,255,1440,300,0,0,-89.357,0.964,-31.502
EX0521-092111,26,C02,rest,33200,33200,0,1277759.092,0.686,-0.675,0.197,0.187,0,0,0,0,0,0,0,0,0,0.000,0,0,0.060,0.003,-0.040,-0.020,-0.040,0.015,0.994,0.012,0.002,-0.002,0.010,0.000,0.000,0.000,0.000,0,2,0,1,7,255,1440,300,0,0,-89.357,0.964,-31.502
EX0521-092111,26,C02,rest,33200,33200,0,1277764.093,0.686,-0.675,0.197,0.187,0,0,0,0,0,0,0,0,0,0.000,0,0,0.049,0.004,0.020,-0.020,-0.040,0.014,0.991,0.011,0.004,-0.002,0.004,0.000,0.000,0.000,0.000,0,2,0,1,7,255,1440,300,0,0,-89.357,0.965,-31.502
EX0521-092111,26,C02,rest,33220,33220,0,1277769.092,0.686,-0.675,0.197,0.187,0,0,0,0,0,0,0,0,0,0.000,0,0,0.049,0.002,0.020,-0.020,-0.040,0.014,0.992,0.012,0.002,0.000,-0.014,0.000,0.000,0.000,0.000,0,2,0,1,7,255,1440,300,0,0,-89.357,0.965,-31.502
EX0521-092111,26,C02,rest,33220,33220,0,1277774.092,0.686,-0.675,0.197,0.187,0,0,0,0,0,0,0,0,0,0.000,0,0,0.110,0.006,-0.100,-0.020,-0.040,0.014,0.995,0.012,-0.006,0.000,-0.014,0.000,0.000,0.000,0.000,0,2,0,1,7,255,1440,300,0,0,-89.357,0.965,-31.502
EX0521-092111,26,C02,rest,33220,33220,0,1277779.092,0.686,-0.675,0.197,0.187,0,0,0,0,0,0,0,0,0,0.000,0,0,0.035,0.006,0.020,-0.020,0.020,0.015,0.996,0.012,-0.006,0.000,0.018,0.000,0.000,0.000,0.000,0,2,0,1,7,255,1440,300,0,0,-89.357,0.965,-31.502
EX0521-092111,26,C02,rest,33220,33220,0,1277784.091,0.686,-0.675,0.197,0.187,0,0,0,0,0,0,0,0,0,0.000,0,0,0.060,0.000,-0.040,-0.020,-0.040,0.014,0.994,0.011,0.000,0.000,0.018,0.000,0.000,0.000,0.000,0,2,0,1,7,255,1440,300,0,0,-89.357,0.965,-31.502
EX0521-092111,26,C02,rest,33220,33220,0,1277789.092,0.686,-0.675,0.197,0.187,0,0,0,0,0,0,0,0,0,0.000,0,0,0.049,0.006,-0.040,-0.020,0.020,0.015,0.992,0.011,0.004,-0.004,0.008,0.000,0.000,0.000,0.000,0,2,0,1,7,255,1440,300,0,0,-89.357,0.965,-31.502
EX0521-092111,26,C02,rest,33220,33220,0,1277794.092,0.686,-0.675,0.197,0.187,0,0,0,0,0,0,0,0,0,0.000,0,0,0.049,0.006,0.020,-0.020,-0.040,0.014,0.993,0.010,0.006,0.002,-0.006,0.000,0.000,0.000,0.000,0,2,0,1,7,255,1440,300,0,0,-89.357,0.965,-31.502
EX0521-092111,26,C02,rest,33220,33220,0,1277799.093,0.686,-0.675,0.197,0.187,0,0,0,0,0,0,0,0,0,0.000,0,0,0.049,0.007,0.020,-0.020,-0.040,0.014,0.994,0.013,0.006,-0.004,-0.006,0.000,0.000,0.000,0.000,0,2,0,1,7,255,1440,300,0,0,-89.357,0.965,-31.502
EX0521-092111,26,C02,rest,33250,33250,0,1277804.092,0.686,-0.675,0.197,0.187,0,0,0,0,0,0,0,0,0,0.000,0,0,0.035,0.002,0.020,-0.020,0.020,0.014,0.994,0.011,0.000,0.002,0.008,0.000,0.000,0.000,0.000,0,2,0,1,7,255,1440,300,0,0,-89.357,0.965,-31.502
EX0521-092111,26,C02,rest,33250,33250,0,1277809.091,0.686,-0.675,0.197,0.187,0,0,0,0,0,0,0,0,0,0.000,0,0,0.035,0.006,0.020,-0.020,0.020,0.015,0.992,0.012,0.000,-0.006,0.008,0.000,0.000,0.000,0.000,0,2,0,1,7,255,1440,300,0,0,-89.357,0.965,-31.502
EX0521-092111,26,C02,rest,33250,33250,0,1277814.091,0.686,-0.675,0.197,0.187,0,0,0,0,0,0,0,0,0,0.000,0,0,0.035,0.002,0.020,-0.020,0.020,0.014,0.992,0.011,0.000,0.002,-0.010,0.000,0.000,0.000,0.000,0,2,0,1,7,255,1440,300,0,0,-89.357,0.965,-31.502
EX0521-092111,26,C02,rest,33250,33250,0,1277819.093,0.686,-0.675,0.197,0.187,0,0,0,0,0,0,0,0,0,0.000,0,0,0.035,0.002,0.020,-0.020,0.020,0.014,0.993,0.012,0.000,-0.002,-0.010,0.000,0.000,0.000,0.000,0,2,0,1,7,255,1440,300,0,0,-89.357,0.965,-31.502
EX0521-092111,26,C02,rest,33250,33250,0,1277824.092,0.686,-0.675,0.197,0.187,0,0,0,0,0,0,0,0,0,0.000,0,0,0.049,0.002,0.020,-0.020,-0.040,0.016,0.995,0.011,0.000,-0.002,0.000,0.000,0.000,0.000,0.000,0,2,0,1,7,255,1440,300,0,0,-89.357,0.965,-31.502
EX0521-092111,26,C02,rest,33294,33294,0,1277829.092,0.686,-0.675,0.197,0.187,0,0,0,0,0,0,0,0,0,0.000,0,0,0.060,0.003,-0.040,-0.020,-0.040,0.014,0.993,0.012,-0.002,-0.002,0.000,0.000,0.000,0.000,0.000,0,2,0,1,7,255,1440,300,0,0,-89.357,0.965,-31.502
EX0521-092111,26,C02,rest,33294,33294,0,1277834.092,0.686,-0.675,0.197,0.187,0,0,0,0,0,0,0,0,0,0.000,0,0,0.110,0.003,-0.040,-0.020,-0.100,0.015,0.993,0.012,0.002,-0.002,0.000,0.000,0.000,0.000,0.000,0,2,0,1,7,255,1440,300,0,0,-89.357,0.965,-31.502
EX0521-092111,26,C02,rest,33294,33294,0,1277839.091,0.686,-0.675,0.197,0.187,0,0,0,0,0,0,0,0,0,0.000,0,0,0.069,0.003,-0.040,0.040,-0.040,0.015,0.992,0.011,0.002,-0.002,-0.006,0.000,0.000,0.000,0.000,0,2,0,1,7,255,1440,300,0,0,-89.357,0.965,-31.502
EX0521-092111,26,C02,rest,33294,33294,0,1277844.091,0.686,-0.675,0.197,0.187,0,0,0,0,0,0,0,0,0,0.000,0,0,0.035,0.004,0.020,-0.020,0.020,0.015,0.993,0.011,0.004,-0.002,-0.006,0.000,0.000,0.000,0.000,0,2,0,1,7,255,1440,300,0,0,-89.357,0.965,-31.502
EX0521-092111,26,C02,rest,33294,33294,0,1277849.092,0.686,-0.675,0.197,0.187,0,0,0,0,0,0,0,0,0,0.000,0,0,0.049,0.004,0.020,-0.020,-0.040,0.014,0.992,0.012,0.004,-0.002,-0.010,0.000,0.000,0.000,0.000,0,2,0,1,7,255,1440,300,0,0,-89.357,0.965,-31.502
EX0521-092111,26,C02,rest,33294,33294,0,1277854.093,0.686,-0.675,0.197,0.187,0,0,0,0,0,0,0,0,0,0.000,0,0,0.049,0.003,-0.040,-0.020,0.020,0.014,0.992,0.011,0.002,-0.002,-0.010,0.000,0.000,0.000,0.000,0,2,0,1,7,255,1440,300,0,0,-89.357,0.965,-31.502
EX0521-092111,26,C02,rest,33310,33310,0,1277859.092,0.686,-0.675,0.197,0.187,0,0,0,0,0,0,0,0,0,0.000,0,0,0.069,0.002,-0.040,0.040,-0.040,0.014,0.993,0.011,0.000,0.002,-0.010,0.000,0.000,0.000,0.000,0,2,0,1,7,255,1440,300,0,1740,-89.357,0.965,-31.502
EX0521-092111,26,C02,rest,33310,33310,0,1277864.092,0.686,-0.675,0.197,0.187,0,0,0,0,0,0,0,0,0,0.000,0,0,0.098,0.002,-0.040,-0.080,-0.040,0.014,0.993,0.011,0.000,0.002,-0.004,0.000,0.000,0.000,0.000,0,2,0,1,7,255,1440,300,0,1740,-89.357,0.965,-31.502
EX0521-092111,26,C02,rest,33310,33310,0,1277869.091,0.686,-0.675,0.197,0.187,0,0,0,0,0,0,0,0,0,0.000,0,0,0.060,0.002,-0.040,-0.020,-0.040,0.014,0.993,0.012,0.000,0.002,0.000,0.000,0.000,0.000,0.000,0,2,0,1,7,255,1440,300,0,1740,-89.357,0.965,-31.502
EX0521-092111,26,C02,rest,33310,33310,0,1277874.093,0.686,-0.675,0.197,0.187,0,0,0,0,0,0,0,0,0,0.000,0,0,0.049,0.000,-0.040,-0.020,0.020,0.015,0.993,0.011,0.000,0.000,0.000,0.000,0.000,0.000,0.000,0,2,0,1,7,255,1440,300,4,1740,-89.357,0.965,-31.502
EX0521-092111,26,C02,rest,33310,33310,0,1277879.091,0.686,-0.675,0.197,0.187,0,0,0,0,0,0,0,0,0,0.000,0,0,0.049,0.000,0.020,-0.020,-0.040,0.014,0.992,0.011,0.000,0.000,0.000,0.000,0.000,0.000,0.000,0,2,0,1,7,255,1440,300,9,1740,-89.357,0.965,-31.502
EX0521-092111,26,C02,rest,33310,33310,0,1277884.092,0.686,-0.675,0.197,0.187,0,0,0,0,0,0,0,0,0,0.000,0,0,0.092,0.002,-0.040,-0.080,0.020,0.014,0.992,0.011,0.000,0.002,-0.014,0.000,0.000,0.000,0.000,0,2,0,1,7,255,1440,300,14,1740,-89.357,0.965,-31.502
EX0521-092111,26,C02,rest,33326,33326,0,1277889.092,0.686,-0.675,0.197,0.187,0,0,0,0,0,0,0,0,0,0.000,0,0,0.049,0.002,0.020,-0.020,-0.040,0.015,0.992,0.011,0.000,0.002,-0.014,0.000,0.000,0.000,0.000,0,2,0,1,7,255,1440,300,19,1740,-89.357,0.965,-31.502
EX0521-092111,26,C02,rest,33326,33326,0,1277894.092,0.686,-0.675,0.197,0.187,0,0,0,0,0,0,0,0,0,0.000,0,0,0.035,0.000,0.020,-0.020,0.020,0.014,0.991,0.011,0.000,0.000,-0.014,0.000,0.000,0.000,0.000,0,2,0,1,7,255,1440,300,24,1740,-89.357,0.965,-31.502
EX0521-092111,26,C02,rest,33342,33342,0,1277899.091,0.686,-0.675,0.197,0.187,0,0,0,0,0,0,0,0,0,0.000,0,0,0.060,0.002,-0.040,-0.020,-0.040,0.014,0.992,0.012,0.000,-0.002,-0.010,0.000,0.000,0.000,0.000,0,2,0,1,7,255,1440,300,29,1740,-89.357,0.965,-31.502
EX0521-092111,26,C02,rest,33342,33342,0,1277904.091,0.686,-0.675,0.197,0.187,0,0,0,0,0,0,0,0,0,0.000,0,0,0.049,0.000,0.020,0.040,0.020,0.014,0.991,0.011,0.000,0.000,-0.018,0.000,0.000,0.000,0.000,0,2,0,1,7,255,1440,300,34,1740,-89.357,0.965,-31.502
EX0521-092111,26,C02,rest,33342,33342,0,1277909.091,0.686,-0.675,0.197,0.187,0,0,0,0,0,0,0,0,0,0.000,0,0,0.049,0.004,-0.040,-0.020,0.020,0.014,0.992,0.011,-0.004,0.000,-0.014,0.000,0.000,0.000,0.000,0,2,0,1,7,255,1440,300,39,1740,-89.357,0.965,-31.502
EX0521-092111,26,C02,rest,33342,33342,0,1277914.092,0.686,-0.675,0.197,0.187,0,0,0,0,0,0,0,0,0,0.000,0,0,0.060,0.004,-0.040,-0.020,-0.040,0.014,0.992,0.012,-0.004,0.000,-0.014,0.000,0.000,0.000,0.000,0,2,0,1,7,255,1440,300,44,1740,-89.357,0.965,-31.502
EX0521-092111,26,C02,rest,33358,33358,0,1277919.092,0.686,-0.675,0.197,0.187,0,0,0,0,0,0,0,0,0,0.000,0,0,0.049,0.007,0.020,-0.020,-0.040,0.016,0.993,0.011,-0.004,-0.006,-0.008,0.000,0.000,0.000,0.000,0,2,0,1,7,255,1440,300,49,1740,-89.357,0.965,-31.502
EX0521-092111,26,C02,rest,33358,33358,0,1277924.092,0.686,-0.675,0.197,0.187,0,0,0,0,0,0,0,0,0,0.000,0,0,0.110,0.007,-0.100,0.040,0.020,0.015,0.992,0.011,0.004,-0.006,-0.008,0.000,0.000,0.000,0.000,0,2,0,1,7,255,1440,300,54,1740,-89.357,0.965,-31.502
EX0521-092111,26,C02,rest,33358,33358,0,1277929.091,0.686,-0.675,0.197,0.187,0,0,0,0,0,0,0,0,0,0.000,0,0,0.235,0.004,-0.220,-0.080,0.020,0.014,0.991,0.011,0.004,-0.002,-0.014,0.000,0.000,0.000,0.000,0,2,0,1,7,255,1440,300,59,1740,-89.357,0.965,-31.502
EX0521-092111,26,C02,rest,33358,33358,0,1277934.091,0.686,-0.675,0.197,0.187,0,0,0,0,0,0,0,0,0,0.000,0,0,0.115,0.002,0.080,-0.080,0.020,0.014,0.993,0.011,0.000,0.002,-0.014,0.000,0.000,0.000,0.000,0,2,0,1,7,255,1440,300,64,1740,-89.357,0.965,-31.502
EX0521-092111,26,C02,rest,33391,33391,0,1277939.092,0.686,-0.675,0.197,0.187,0,0,0,0,0,0,0,0,0,0.000,0,0,0.513,0.004,0.460,0.160,-0.160,0.014,0.991,0.011,0.000,0.004,-0.018,0.000,0.000,0.000,0.000,0,2,0,1,7,255,1440,300,69,1740,-89.357,0.965,-31.502
EX0521-092111,26,C02,rest,33391,33391,0,1277944.092,0.686,-0.675,0.197,0.187,0,0,0,0,0,0,0,0,0,0.000,0,0,0.773,0.004,-0.760,-0.020,0.140,0.015,0.994,0.010,0.002,0.004,0.002,0.000,0.000,0.000,0.000,0,2,0,1,7,255,1440,300,74,1740,-89.353,0.965,-31.502
EX0521-092111,26,C02,rest,33406,33406,0,1277949.092,0.686,-0.675,0.197,0.187,0,0,0,0,0,0,0,0,0,0.000,0,0,0.308,0.004,-0.220,-0.200,0.080,0.016,0.989,0.017,0.002,0.004,-0.022,0.000,0.000,0.000,0.000,0,2,0,1,7,255,1440,300,79,1740,-89.348,0.965,-31.502
EX0521-092111,26,C02,rest,33406,33406,0,1277954.093,0.686,-0.675,0.197,0.187,0,0,0,0,0,0,0,0,0,0.000,0,0,3.812,0.013,3.560,0.340,-1.320,0.012,0.989,0.007,0.004,0.012,-0.036,0.000,0.000,0.000,0.000,0,2,0,1,7,255,1440,300,84,1740,-89.366,0.958,-31.502
EX0521-092111,26,C02,rest,33406,33406,0,1277959.092,0.686,-0.675,0.197,0.187,0,0,0,0,0,0,0,0,0,0.000,0,0,4.301,0.009,-4.000,-0.260,1.560,0.015,1.002,0.010,0.004,0.008,-0.036,0.000,0.000,0.000,0.000,0,2,0,1,7,255,1440,300,89,1740,-89.346,0.966,-31.502
EX0521-092111,26,C02,rest,33406,33406,0,1277964.093,0.686,-0.675,0.197,0.187,0,0,0,0,0,0,0,0,0,0.000,0,0,3.133,0.009,2.840,0.100,-1.320,0.013,0.987,0.018,0.004,0.008,-0.038,0.000,0.000,0.000,0.000,0,2,0,1,7,255,1440,300,94,1740,-89.358,0.959,-31.502
EX0521-092111,26,C02,rest,33406,33406,0,1277969.092,0.686,-0.675,0.197,0.187,0,0,0,0,0,0,0,0,0,0.000,0,0,2.319,0.016,-1.920,-0.020,1.300,0.016,0.984,0.007,0.014,0.008,-0.056,0.000,0.000,0.000,0.000,0,2,0,1,7,255,1440,300,99,1740,-89.348,0.966,-31.502
EX0521-092111,26,C02,rest,33406,33406,0,1277974.092,0.686,-0.675,0.197,0.187,0,0,0,0,0,0,0,0,0,0.000,0,0,3.018,0.040,2.580,-0.140,-1.560,0.011,1.018,0.013,-0.040,0.006,-0.056,0.000,0.000,0.000,0.000,0,2,0,1,7,255,1440,300,104,1740,-89.361,0.957,-31.502
EX0521-092111,26,C02,rest,33406,33406,0,1277979.092,0.686,-0.675,0.197,0.187,0,0,0,0,0,0,0,0,0,0.000,0,0,1.328,0.049,-1.020,-0.380,0.760,0.024,0.934,-0.005,0.040,0.028,-0.090,0.000,0.000,0.000,0.000,0,2,0,1,7,255,1440,300,109,1740,-89.360,0.962,-31.502
EX0521-092111,26,C02,rest,33406,33406,0,1277984.091,0.686,-0.675,0.197,0.187,0,0,0,0,0,0,0,0,0,0.000,0,0,1.289,0.040,-0.460,1.200,-0.100,-0.007,1.058,0.073,-0.040,0.006,0.246,0.000,0.000,0.000,0.000,0,2,0,1,7,255,1440,300,114,1740,-89.346,0.960,-31.496
EX0521-092111,26,C02,rest,33422,33422,0,1277989.092,0.686,-0.675,0.197,0.187,0,0,0,0,0,0,0,0,0,0.000,0,0,3.740,0.192,3.440,0.280,-1.440,0.035,0.960,-0.087,0.176,0.076,-0.330,0.000,0.000,0.000,0.000,0,2,0,1,7,255,1440,300,119,1740,-89.391,0.955,-31.496
EX0521-092111,26,C02,rest,33422,33422,0,1277994.091,0.686,-0.675,0.197,0.187,0,0,0,0,0,0,0,0,0,0.000,0,0,6.602,0.594,-5.840,-1.480,2.700,0.006,0.982,0.085,-0.446,-0.392,-0.096,0.000,0.000,0.000,0.000,0,2,0,1,7,255,1440,300,124,1740,-89.340,0.967,-31.504
EX0521-092111,26,C02,rest,33439,33439,0,1277999.092,0.686,-0.675,0.197,0.187,0,0,0,0,0,0,0,0,0,0.000,0,0,5.105,0.204,4.300,1.680,-2.180,0.014,1.023,-0.009,0.104,0.176,-0.096,0.000,0.000,0.000,0.000,0,2,0,1,7,255,1440,300,129,1740,-89.367,0.956,-31.495
EX0521-092111,26,C02,rest,33439,33439,0,1278004.092,0.686,-0.675,0.197,0.187,0,0,0,0,0,0,0,0,0,0.000,0,0,2.033,0.160,-1.320,-1.180,1.000,0.019,0.957,-0.007,0.104,0.122,-0.096,0.000,0.000,0.000,0.000,0,2,0,1,7,255,1440,300,134,1740,-89.365,0.961,-31.501
EX0521-092111,26,C02,rest,33456,33456,0,1278009.092,0.686,-0.675,0.197,0.187,0,0,0,0,0,0,0,0,0,0.000,0,0,2.565,0.160,-2.360,0.720,0.700,0.012,1.014,0.036,0.104,0.122,0.210,0.000,0.000,0.000,0.000,0,2,0,1,7,255,1440,300,139,1740,-89.346,0.965,-31.498
EX0521-092111,26,C02,rest,33456,33456,0,1278014.091,0.686,-0.675,0.197,0.187,0,0,0,0,0,0,0,0,0,0.000,0,0,5.011,0.102,4.540,0.580,-2.040,0.022,0.973,0.005,0.102,0.002,-0.194,0.000,0.000,0.000,0.000,0,2,0,1,7,255,1440,300,144,1740,-89.371,0.955,-31.495
EX0521-092111,26,C02,rest,33456,33456,0,1278019.091,0.686,-0.675,0.196,0.187,0,0,0,0,0,0,0,0,0,0.000,0,0,4.508,0.146,-3.520,2.060,1.920,0.000,0.993,0.023,-0.144,-0.022,0.000,0.000,0.000,0.000,0.000,0,2,0,1,7,255,1440,300,149,1740,-89.349,0.963,-31.484
EX0521-092111,26,C02,rest,33456,33456,0,1278024.092,0.686,-0.675,0.196,0.187,0,0,0,0,0,0,0,0,0,0.000,0,0,1.780,0.102,1.180,0.780,-1.080,0.020,1.016,-0.002,0.102,0.002,0.000,0.000,0.000,0.000,0.000,0,2,0,1,7,255,1440,300,154,1740,-89.359,0.958,-31.481
EX0521-092111,26,C02,rest,33471,33471,0,1278029.092,0.686,-0.675,0.196,0.187,0,0,0,0,0,0,0,0,0,0.000,0,0,0.848,0.096,0.640,-0.440,0.340,0.016,0.961,0.001,0.070,0.066,0.000,0.000,0.000,0.000,0.000,0,2,0,1,7,255,1440,300,159,1740,-89.365,0.958,-31.481
EX0521-092111,26,C02,rest,33471,33471,0,1278034.092,0.686,-0.675,0.196,0.187,0,0,0,0,0,0,0,0,0,0.000,0,0,3.549,0.096,-0.220,3.520,-0.400,0.008,1.024,0.042,0.070,0.066,0.222,0.000,0.000,0.000,0.000,0,2,0,1,7,255,1440,300,164,1740,-89.356,0.957,-31.463
EX0521-092111,26,C02,rest,33489,33489,0,1278039.092,0.686,-0.675,0.196,0.187,0,0,0,0,0,0,0,0,0,0.000,0,0,1.689,0.096,1.620,-0.260,-0.400,0.015,0.980,-0.030,0.070,0.066,-0.128,0.000,0.000,0.000,0.000,0,2,0,1,7,255,1440,300,169,1740,-89.376,0.957,-31.463
EX0521-092111,26,C02,rest,33489,33489,0,1278044.091,0.686,-0.675,0.196,0.187,0,0,0,0,0,0,0,0,0,0.000,0,0,2.557,0.264,-2.040,-1.120,1.060,0.014,0.981,0.040,-0.146,-0.220,-0.110,0.000,0.000,0.000,0.000,0,2,0,1,7,255,1440,300,174,1740,-89.357,0.962,-31.469
EX0521-092111,26,C02,rest,33502,33502,0,1278049.092,0.686,-0.675,0.196,0.187,0,0,0,0,0,0,0,0,0,0.000,0,0,2.135,0.121,1.740,0.780,-0.960,0.016,1.005,-0.001,0.074,0.096,-0.110,0.000,0.000,0.000,0.000,0,2,0,1,7,255,1440,300,179,1740,-89.370,0.957,-31.465
EX0521-092111,26,C02,rest,33502,33502,0,1278054.093,0.686,-0.675,0.196,0.187,0,0,0,0,0,0,0,0,0,0.000,0,0,3.070,0.078,-1.800,-2.220,1.120,0.016,0.974,0.003,0.054,0.056,-0.110,0.000,0.000,0.000,0.000,0,2,0,1,7,255,1440,300,184,1740,-89.363,0.963,-31.476
EX0521-092111,26,C02,rest,33502,33502,0,1278059.092,0.686,-0.675,0.196,0.187,0,0,0,0,0,0,0,0,0,0.000,0,0,1.816,0.078,-1.620,0.580,0.580,0.016,0.998,0.029,0.054,0.056,0.052,0.000,0.000,0.000,0.000,0,2,0,1,7,255,1440,300,189,1740,-89.349,0.963,-31.473
EX0521-092111,26,C02,rest,33502,33502,0,1278064.092,0.686,-0.675,0.196,0.187,0,0,0,0,0,0,0,0,0,0.000,0,0,2.158,0.078,1.860,-0.700,-0.840,0.016,0.984,-0.004,0.054,0.056,-0.086,0.000,0.000,0.000,0.000,0,2,0,1,7,255,1440,300,194,1740,-89.363,0.959,-31.476
EX0521-092111,26,C02,rest,33502,33502,0,1278069.092,0.686,-0.675,0.196,0.187,0,0,0,0,0,0,0,0,0,0.000,0,0,1.241,0.066,-1.080,-0.320,0.520,0.013,0.991,0.018,-0.046,-0.048,-0.022,0.000,0.000,0.000,0.000,0,2,0,1,7,255,1440,300,199,1740,-89.356,0.959,-31.476
EX0521-092111,26,C02,rest,33502,33502,0,1278074.093,0.686,-0.675,0.196,0.187,0,0,0,0,0,0,0,0,0,0.000,0,0,0.511,0.032,-0.340,-0.380,-0.040,0.014,1.002,0.008,0.012,0.030,-0.022,0.000,0.000,0.000,0.000,0,2,0,1,7,255,1440,300,204,1740,-89.356,0.959,-31.476
EX0521-092111,26,C02,rest,33520,33520,0,1278079.092,0.686,-0.675,0.196,0.187,0,0,0,0,0,0,0,0,0,0.000,0,0,0.396,0.020,0.200,0.340,-0.040,0.018,0.982,0.011,0.012,-0.016,-0.022,0.000,0.000,0.000,0.000,0,2,0,1,7,255,1440,300,209,1740,-89.356,0.959,-31.476
EX0521-092111,26,C02,rest,33520,33520,0,1278084.092,0.686,-0.675,0.196,0.187,0,0,0,0,0,0,0,0,0,0.000,0,0,0.583,0.020,-0.400,0.400,0.140,0.012,0.997,0.018,0.012,-0.016,0.040,0.000,0.000,0.000,0.000,0,2,0,1,7,255,1440,300,214,1740,-89.350,0.959,-31.476
EX0521-092111,26,C02,rest,33520,33520,0,1278089.092,0.686,-0.675,0.196,0.187,0,0,0,0,0,0,0,0,0,0.000,0,0,1.050,0.041,0.940,-0.080,-0.460,0.017,0.990,-0.002,0.038,-0.016,-0.032,0.000,0.000,0.000,0.000,0,2,0,1,7,255,1440,300,219,1740,-89.359,0.959,-31.476
EX0521-092111,26,C02,rest,33520,33520,0,1278094.092,0.686,-0.675,0.196,0.187,0,0,0,0,0,0,0,0,0,0.000,0,0,1.036,0.015,0.260,-1.000,0.080,0.015,0.987,0.012,0.004,-0.014,-0.032,0.000,0.000,0.000,0.000,0,2,0,1,7,255,1440,300,224,1740,-89.359,0.959,-31.481
EX0521-092111,26,C02,rest,33534,33534,0,1278099.091,0.686,-0.675,0.196,0.187,0,0,0,0,0,0,0,0,0,0.000,0,0,1.304,0.015,1.000,-0.460,-0.700,0.016,1.004,0.020,0.004,-0.014,-0.032,0.000,0.000,0.000,0.000,0,2,0,1,7,255,1440,300,229,1740,-89.361,0.955,-31.481
EX0521-092111,26,C02,rest,33534,33534,0,1278104.091,0.686,-0.675,0.197,0.187,0,0,0,0,0,0,0,0,0,0.000,0,0,2.806,0.015,-0.900,-2.580,0.640,0.016,0.980,-0.004,0.004,-0.014,-0.060,0.000,0.000,0.000,0.000,0,2,0,1,7,255,1440,300,234,1740,-89.361,0.959,-31.494
EX0521-092111,26,C02,rest,33553,33553,0,1278109.092,0.686,-0.675,0.197,0.187,0,0,0,0,0,0,0,0,0,0.000,0,0,0.903,0.080,-0.880,0.040,0.200,0.010,0.999,0.041,-0.030,-0.074,0.062,0.000,0.000,0.000,0.000,0,2,0,1,7,255,1440,300,239,1740,-89.348,0.958,-31.494
EX0521-092111,26,C02,rest,33553,33553,0,1278114.092,0.686,-0.675,0.197,0.187,0,0,0,0,0,0,0,0,0,0.000,0,0,0.806,0.150,0.200,0.780,-0.040,0.015,0.988,-0.008,0.092,0.118,-0.054,0.000,0.000,0.000,0.000,0,2,0,1,7,255,1440,300,244,1740,-89.354,0.958,-31.491
EX0521-092111,26,C02,rest,33553,33553,0,1278119.092,0.686,-0.675,0.196,0.187,0,0,0,0,0,0,0,0,0,0.000,0,0,0.877,0.079,-0.460,0.720,0.200,0.015,0.989,0.020,-0.032,-0.072,-0.036,0.000,0.000,0.000,0.000,0,2,0,1,7,255,1440,300,249,1740,-89.351,0.958,-31.487
EX0521-092111,26,C02,rest,33553,33553,0,1278124.091,0.686,-0.675,0.196,0.187,0,0,0,0,0,0,0,0,0,0.000,0,0,0.363,0.022,0.340,-0.080,-0.100,0.012,0.994,0.013,-0.022,0.002,-0.036,0.000,0.000,0.000,0.000,0,2,0,1,7,255,1440,300,254,1740,-89.351,0.958,-31.487
EX0521-092111,26,C02,rest,33587,33587,0,1278129.091,0.686,-0.675,0.197,0.187,0,0,0,0,0,0,0,0,0,0.000,0,0,1.187,0.022,-0.100,-1.180,0.080,0.014,0.985,0.000,-0.022,0.002,-0.036,0.000,0.000,0.000,0.000,0,2,0,1,7,255,1440,300,259,1740,-89.355,0.958,-31.493
EX0521-092111,26,C02,rest,33587,33587,0,1278134.092,0.686,-0.675,0.197,0.187,0,0,0,0,0,0,0,0,0,0.000,0,0,1.372,0.026,0.080,-1.360,-0.160,0.020,0.996,0.016,0.026,0.002,0.012,0.000,0.000,0.000,0.000,0,2,0,1,7,255,1440,300,264,1740,-89.355,0.958,-31.500
EX0521-092111,26,C02,rest,33588,33588,0,1278139.092,0.686,-0.675,0.197,0.187,0,0,0,0,0,0,0,0,0,0.000,0,0,0.549,0.081,0.400,0.160,-0.340,0.016,0.990,0.003,0.058,0.056,-0.026,0.000,0.000,0.000,0.000,0,2,0,1,7,255,1440,300,269,1740,-89.362,0.958,-31.500
EX0521-092111,26,C02,rest,33588,33588,0,1278144.092,0.686,-0.675,0.197,0.187,0,0,0,0,0,0,0,0,0,0.000,0,0,0.732,0.027,-0.400,0.580,0.200,0.010,0.991,0.015,0.026,-0.008,-0.022,0.000,0.000,0.000,0.000,0,2,0,1,7,255,1440,300,274,1740,-89.362,0.956,-31.497
EX0521-092111,26,C02,rest,33588,33588,0,1278149.092,0.686,-0.675,0.197,0.187,0,0,0,0,0,0,0,0,0,0.000,0,0,0.469,0.018,0.080,0.460,-0.040,0.015,0.991,0.016,-0.016,-0.008,-0.022,0.000,0.000,0.000,0.000,0,2,0,1,7,255,1440,300,279,1740,-89.362,0.956,-31.497
EX0521-092111,26,C02,rest,33588,33588,0,1278154.093,0.686,-0.675,0.197,0.187,0,0,0,0,0,0,0,0,0,0.000,0,0,0.616,0.018,0.400,-0.440,-0.160,0.016,0.987,0.007,-0.016,-0.008,-0.022,0.000,0.000,0.000,0.000,0,2,0,1,7,255,1440,300,284,1740,-89.362,0.956,-31.497
EX0521-092111,26,C02,rest,33618,33618,0,1278159.093,0.686,-0.675,0.197,0.187,0,0,0,0,0,0,0,0,0,0.000,0,0,0.298,0.041,0.140,-0.260,-0.040,0.014,0.991,0.021,-0.016,-0.038,-0.016,0.000,0.000,0.000,0.000,0,2,0,1,7,255,1440,300,289,1740,-89.352,0.956,-31.497
EX0521-092111,26,C02,rest,33618,33618,0,1278164.093,0.686,-0.675,0.197,0.187,0,0,0,0,0,0,0,0,0,0.000,0,0,0.605,0.015,0.140,-0.580,-0.100,0.014,0.994,0.010,0.004,0.014,-0.014,0.000,0.000,0.000,0.000,0,2,0,1,7,255,1440,300,294,1740,-89.352,0.956,-31.497
EX0521-092111,26,C02,rest,33618,33618,0,1278169.092,0.686,-0.675,0.197,0.187,0,0,0,0,0,0,0,0,0,0.000,0,0,0.330,0.032,0.020,-0.320,0.080,0.011,0.989,0.013,-0.032,0.002,-0.014,0.000,0.000,0.000,0.000,0,2,0,1,7,255,1440,300,299,1740,-89.352,0.955,-31.497
EX0521-092111,26,C02,rest,33618,33618,0,1278174.092,0.686,-0.675,0.197,0.187,0,0,0,0,0,0,0,0,0,0.000,0,0,0.687,0.015,-0.340,0.580,0.140,0.015,0.990,0.009,0.004,0.014,-0.024,0.000,0.000,0.000,0.000,0,2,0,1,7,255,1440,300,304,1740,-89.352,0.955,-31.494
EX0521-092111,26,C02,rest,33618,33618,0,1278179.091,0.686,-0.675,0.196,0.187,0,0,0,0,0,0,0,0,0,0.000,0,0,0.900,0.026,0.020,0.900,0.020,0.017,0.988,0.008,0.022,0.014,-0.034,0.000,0.000,0.000,0.000,0,2,0,1,7,255,1440,300,309,1740,-89.352,0.955,-31.489
EX0521-092111,26,C02,rest,33618,33618,0,1278184.091,0.686,-0.675,0.196,0.187,0,0,0,0,0,0,0,0,0,0.000,0,0,0.637,0.026,-0.520,-0.260,0.260,0.013,0.987,0.015,0.022,0.014,-0.048,0.000,0.000,0.000,0.000,0,2,0,1,7,255,1440,300,314,1740,-89.352,0.955,-31.489
EX0521-092111,26,C02,rest,33630,33630,0,1278189.092,0.686,-0.675,0.196,0.187,0,0,0,0,0,0,0,0,0,0.000,0,0,0.642,0.028,0.340,-0.520,-0.160,0.017,0.991,0.013,0.018,-0.022,-0.048,0.000,0.000,0.000,0.000,0,2,0,1,7,255,1440,300,319,1740,-89.352,0.955,-31.489
EX0521-092111,26,C02,rest,33630,33630,0,1278194.092,0.686,-0.675,0.196,0.187,0,0,0,0,0,0,0,0,0,0.000,0,0,0.321,0.026,0.260,0.160,-0.100,0.013,0.989,0.007,0.014,-0.022,-0.034,0.000,0.000,0.000,0.000,0,2,0,1,7,255,1440,300,324,1740,-89.352,0.955,-31.489
EX0521-092111,26,C02,rest,33630,33630,0,1278199.092,0.686,-0.675,0.197,0.187,0,0,0,0,0,0,0,0,0,0.000,0,0,0.645,0.021,0.080,-0.640,0.020,0.014,0.993,0.010,0.014,0.016,-0.014,0.000,0.000,0.000,0.000,0,2,0,1,7,255,1440,300,329,1740,-89.352,0.955,-31.493
EX0521-092111,26,C02,rest,33630,33630,0,1278204.091,0.686,-0.675,0.197,0.187,0,0,0,0,0,0,0,0,0,0.000,0,0,0.190,0.019,0.140,-0.080,-0.100,0.015,0.991,0.012,0.010,0.016,-0.018,0.000,0.000,0.000,0.000,0,2,0,1,7,255,1440,300,334,1740,-89.352,0.955,-31.493
EX0521-092111,26,C02,rest,33656,33656,0,1278209.091,0.686,-0.675,0.196,0.187,0,0,0,0,0,0,0,0,0,0.000,0,0,0.143,0.006,0.020,-0.140,0.020,0.011,0.991,0.014,0.006,-0.002,-0.018,0.000,0.000,0.000,0.000,0,2,0,1,7,255,1440,300,339,1740,-89.352,0.953,-31.493
EX0521-092111,26,C02,rest,33656,33656,0,1278214.092,0.686,-0.675,0.196,0.187,0,0,0,0,0,0,0,0,0,0.000,0,0,0.235,0.004,-0.220,-0.020,0.080,0.014,0.992,0.010,0.004,-0.002,-0.018,0.000,0.000,0.000,0.000,0,2,0,1,7,255,1440,300,344,1740,-89.352,0.953,-31.493
EX0521-092111,26,C02,rest,33656,33656,0,1278219.092,0.686,-0.675,0.196,0.187,0,0,0,0,0,0,0,0,0,0.000,0,0,0.180,0.015,-0.160,-0.020,0.080,0.015,0.988,0.007,0.004,0.014,-0.018,0.000,0.000,0.000,0.000,0,2,0,1,7,255,1440,300,349,1740,-89.352,0.953,-31.493
EX0521-092111,26,C02,rest,33656,33656,0,1278224.092,0.686,-0.675,0.196,0.187,0,0,0,0,0,0,0,0,0,0.000,0,0,0.162,0.015,-0.160,-0.020,0.020,0.015,0.990,0.012,0.006,0.014,-0.026,0.000,0.000,0.000,0.000,0,2,0,1,7,255,1440,300,354,1740,-89.352,0.953,-31.493
EX0521-092111,26,C02,rest,33662,33662,0,1278229.091,0.686,-0.675,0.196,0.187,0,0,0,0,0,0,0,0,0,0.000,0,0,0.110,0.023,0.020,0.100,-0.040,0.016,0.989,0.010,0.022,0.006,-0.036,0.000,0.000,0.000,0.000,0,2,0,1,7,255,1440,300,359,1740,-89.352,0.953,-31.493
EX0521-092111,26,C02,rest,33662,33662,0,1278234.091,0.686,-0.675,0.196,0.187,0,0,0,0,0,0,0,0,0,0.000,0,0,0.247,0.013,-0.220,-0.080,0.080,0.015,0.988,0.014,0.006,-0.012,-0.036,0.000,0.000,0.000,0.000,0,2,0,1,7,255,1440,300,364,1740,-89.352,0.953,-31.493
EX0521-092111,26,C02,rest,33694,33694,0,1278239.092,0.686,-0.675,0.196,0.187,0,0,0,0,0,0,0,0,0,0.000,0,0,0.237,0.021,0.080,0.220,-0.040,0.014,0.991,0.019,-0.006,-0.020,-0.036,0.000,0.000,0.000,0.000,0,2,0,1,7,255,1440,300,369,1740,-89.346,0.953,-31.493
EX0521-092111,26,C02,rest,33694,33694,0,1278244.092,0.686,-0.675,0.196,0.187,0,0,0,0,0,0,0,0,0,0.000,0,0,0.284,0.024,-0.040,0.280,0.020,0.013,0.991,0.012,-0.014,-0.020,-0.012,0.000,0.000,0.000,0.000,0,2,0,1,7,255,1440,300,374,1740,-89.346,0.953,-31.493
EX0521-092111,26,C02,rest,33694,33694,0,1278249.092,0.686,-0.675,0.196,0.187,0,0,0,0,0,0,0,0,0,0.000,0,0,0.306,0.015,-0.160,0.220,0.140,0.014,0.992,0.009,-0.014,0.004,-0.010,0.000,0.000,0.000,0.000,0,2,0,1,7,255,1440,300,379,1740,-89.346,0.953,-31.493
EX0521-092111,26,C02,rest,33694,33694,0,1278254.093,0.686,-0.675,0.196,0.187,0,0,0,0,0,0,0,0,0,0.000,0,0,0.162,0.014,-0.160,-0.020,0.020,0.015,0.991,0.010,0.010,0.010,-0.012,0.000,0.000,0.000,0.000,0,2,0,1,7,255,1440,300,384,1740,-89.346,0.954,-31.493
EX0521-092111,26,C02,rest,33694,33694,0,1278259.091,0.686,-0.675,0.196,0.187,0,0,0,0,0,0,0,0,0,0.000,0,0,0.130,0.014,-0.100,-0.080,0.020,0.014,0.990,0.011,0.010,0.010,-0.016,0.000,0.000,0.000,0.000,0,2,0,1,7,255,1440,300,389,1740,-89.346,0.954,-31.493
EX0521-092111,26,C02,rest,33694,33694,0,1278264.092,0.686,-0.675,0.196,0.187,0,0,0,0,0,0,0,0,0,0.000,0,0,0.264,0.020,-0.040,-0.260,0.020,0.016,0.990,0.010,0.018,0.008,-0.020,0.000,0.000,0.000,0.000,0,2,0,1,7,255,1440,300,394,1740,-89.346,0.954,-31.493
EX0521-092111,26,C02,rest,33710,33710,0,1278269.092,0.686,-0.675,0.196,0.187,0,0,0,0,0,0,0,0,0,0.000,0,0,0.190,0.023,0.080,-0.140,-0.100,0.016,0.990,0.008,0.022,0.008,-0.024,0.000,0.000,0.000,0.000,0,2,0,1,7,255,1440,300,399,1740,-89.346,0.954,-31.493
EX0521-092111,26,C02,rest,33710,33710,0,1278274.092,0.686,-0.675,0.196,0.187,0,0,0,0,0,0,0,0,0,0.000,0,0,0.130,0.023,-0.100,-0.080,0.020,0.015,0.991,0.011,0.022,0.008,-0.020,0.000,0.000,0.000,0.000,0,2,0,1,7,255,1440,300,404,1740,-89.346,0.954,-31.493
EX0521-092111,26,C02,rest,33726,33726,0,1278279.091,0.686,-0.675,0.196,0.187,0,1,0,0,0,0,0,0,0,0.000,0,0,0.245,0.012,-0.040,0.220,-0.100,0.015,0.991,0.012,0.012,0.002,-0.016,0.000,0.000,0.000,0.000,0,2,0,1,7,255,1440,300,409,1740,-89.346,0.954,-31.493
EX0521-092111,26,C02,rest,33726,33726,0,1278284.091,0.686,-0.675,0.196,0.187,0,0,0,0,0,0,0,0,0,0.000,0,0,0.130,0.010,0.080,0.100,0.020,0.015,0.990,0.013,0.008,-0.006,-0.016,0.000,0.000,0.000,0.000,0,2,0,1,7,255,1440,300,414,1740,-89.346,0.954,-31.493
EX0521-092111,26,C02,rest,33726,33726,0,1278289.093,0.686,-0.675,0.196,0.187,0,0,0,0,0,0,0,0,0,0.000,0,0,0.183,0.012,0.080,0.160,-0.040,0.015,0.992,0.015,-0.002,-0.012,-0.014,0.000,0.000,0.000,0.000,0,2,0,1,7,255,1440,300,419,1740,-89.346,0.954,-31.493
EX0521-092111,26,C02,rest,33726,33726,0,1278294.092,0.686,-0.675,0.196,0.187,0,0,0,0,0,0,0,0,0,0.000,0,0,0.120,0.016,0.080,-0.080,-0.040,0.013,0.992,0.012,-0.010,-0.012,-0.004,0.000,0.000,0.000,0.000,0,2,0,1,7,255,1440,300,424,1740,-89.346,0.954,-31.493
EX0521-092111,26,C02,rest,33726,33726,0,1278299.092,0.686,-0.675,0.196,0.187,0,0,0,0,0,0,0,0,0,0.000,0,0,0.162,0.012,0.080,-0.140,0.020,0.012,0.993,0.012,-0.012,0.000,0.000,0.000,0.000,0.000,0.000,0,2,0,1,7,255,1440,300,429,1740,-89.346,0.954,-31.493
EX0521-092111,26,C02,rest,33726,33726,0,1278304.091,0.686,-0.675,0.196,0.187,0,0,0,0,0,0,0,0,0,0.000,0,0,0.143,0.014,0.020,-0.140,0.020,0.015,0.993,0.009,-0.010,0.010,0.004,0.000,0.000,0.000,0.000,0,2,0,1,7,255,1440,300,434,1740,-89.346,0.954,-31.493
EX0521-092111,26,C02,rest,33742,33742,0,1278309.091,0.686,-0.675,0.196,0.187,0,0,0,0,0,0,0,0,0,0.000,0,0,0.190,0.028,-0.100,-0.140,0.080,0.015,0.991,0.008,0.018,0.022,0.004,0.000,0.000,0.000,0.000,0,2,0,1,7,255,1440,300,439,1740,-89.346,0.954,-31.493
EX0521-092111,26,C02,rest,33742,33742,0,1278314.091,0.686,-0.675,0.196,0.187,0,0,0,0,0,0,0,0,0,0.000,0,0,0.292,0.030,-0.280,-0.020,0.080,0.016,0.991,0.010,0.020,0.022,-0.014,0.000,0.000,0.000,0.000,0,2,0,1,7,255,1440,300,444,1740,-89.346,0.954,-31.493
EX0521-092111,26,C02,rest,33758,33758,0,1278319.092,0.686,-0.675,0.196,0.187,0,0,0,0,0,0,0,0,0,0.000,0,0,0.230,0.020,-0.160,0.160,-0.040,0.016,0.991,0.012,0.020,0.004,-0.014,0.000,0.000,0.000,0.000,0,2,0,1,7,255,1440,300,449,1740,-89.346,0.954,-31.493
EX0521-092111,26,C02,rest,33758,33758,0,1278324.092,0.686,-0.675,0.196,0.187,0,0,0,0,0,0,0,0,0,0.000,0,0,0.110,0.020,-0.040,0.100,0.020,0.015,0.991,0.013,0.014,-0.014,-0.014,0.000,0.000,0.000,0.000,0,2,0,1,7,255,1440,300,454,1740,-89.346,0.954,-31.493
EX0521-092111,26,C02,rest,33758,33758,0,1278329.092,0.686,-0.675,0.196,0.187,0,0,0,0,0,0,0,0,0,0.000,0,0,0.049,0.015,0.020,-0.020,-0.040,0.014,0.992,0.012,-0.004,-0.014,-0.010,0.000,0.000,0.000,0.000,0,2,0,1,7,255,1440,300,459,1740,-89.346,0.954,-31.493
EX0521-092111,26,C02,rest,33758,33758,0,1278334.091,0.686,-0.675,0.196,0.187,0,0,0,0,0,0,0,0,0,0.000,0,0,0.162,0.004,0.140,-0.080,0.020,0.014,0.993,0.012,-0.004,-0.002,-0.004,0.000,0.000,0.000,0.000,0,2,0,1,7,255,1440,300,464,1740,-89.346,0.954,-31.493
EX0521-092111,26,C02,rest,33790,33790,0,1278339.091,0.686,-0.675,0.196,0.187,0,0,0,0,0,0,0,0,0,0.000,0,0,0.104,0.008,0.020,-0.020,-0.100,0.012,0.992,0.012,-0.008,0.000,0.000,0.000,0.000,0.000,0.000,0,2,0,1,7,255,1440,300,469,1740,-89.346,0.954,-31.493
EX0521-092111,26,C02,rest,33790,33790,0,1278344.092,0.686,-0.675,0.196,0.187,0,0,0,0,0,0,0,0,0,0.000,0,0,0.049,0.008,0.020,-0.020,-0.040,0.013,0.992,0.010,-0.006,0.006,0.000,0.000,0.000,0.000,0.000,0,2,0,1,7,255,1440,300,474,1740,-89.346,0.954,-31.493
EX0521-092111,26,C02,rest,33790,33790,0,1278349.092,0.686,-0.675,0.196,0.187,0,0,0,0,0,0,0,0,0,0.000,0,0,0.085,0.017,0.020,-0.020,0.080,0.014,0.992,0.010,-0.006,0.016,-0.004,0.000,0.000,0.000,0.000,0,2,0,1,7,255,1440,300,479,1740,-89.346,0.954,-31.493
EX0521-092111,26,C02,rest,33790,33790,0,1278354.093,0.686,-0.675,0.196,0.187,0,0,0,0,0,0,0,0,0,0.000,0,0,0.104,0.019,-0.100,-0.020,0.020,0.015,0.990,0.010,0.010,0.016,-0.006,0.000,0.000,0.000,0.000,0,2,0,1,7,255,1440,300,484,1740,-89.346,0.954,-31.493
EX0521-092111,26,C02,rest,33806,33806,0,1278359.092,0.686,-0.675,0.196,0.187,0,0,0,0,0,0,0,0,0,0.000,0,0,0.092,0.020,-0.040,-0.020,0.080,0.014,0.990,0.009,0.012,0.016,-0.018,0.000,0.000,0.000,0.000,0,2,0,1,7,255,1440,300,489,1740,-89.346,0.954,-31.493
EX0521-092111,26,C02,rest,33806,33806,0,1278364.093,0.686,-0.675,0.196,0.187,0,0,0,0,0,0,0,0,0,0.000,0,0,0.104,0.016,-0.100,-0.020,0.020,0.015,0.990,0.010,0.014,0.008,-0.018,0.000,0.000,0.000,0.000,0,2,0,1,7,255,1440,300,494,1740,-89.346,0.954,-31.493
EX0521-092111,26,C02,rest,33806,33806,0,1278369.092,0.686,-0.675,0.196,0.187,0,0,0,0,0,0,0,0,0,0.000,0,0,0.110,0.015,-0.100,0.040,0.020,0.014,0.989,0.011,0.014,0.006,-0.024,0.000,0.000,0.000,0.000,0,2,0,1,7,255,1440,300,499,1740,-89.346,0.954,-31.493
EX0521-092111,26,C02,rest,33806,33806,0,1278374.092,0.686,-0.675,0.196,0.187,0,0,0,0,0,0,0,0,0,0.000,0,0,0.110,0.003,-0.100,0.040,0.020,0.014,0.992,0.013,0.002,0.002,-0.018,0.000,0.000,0.000,0.000,0,2,0,1,7,255,1440,300,504,1740,-89.346,0.954,-31.493
EX0521-092111,26,C02,rest,33822,33822,0,1278379.092,0.686,-0.675,0.196,0.187,0,0,0,0,0,0,0,0,0,0.000,0,0,0.049,0.008,0.020,0.040,0.020,0.014,0.993,0.013,-0.006,-0.006,-0.004,0.000,0.000,0.000,0.000,0,2,0,1,7,255,1440,300,509,1740,-89.346,0.954,-31.492
EX0521-092111,26,C02,rest,33822,33822,0,1278384.091,0.686,-0.675,0.196,0.187,0,0,0,0,0,0,0,0,0,0.000,0,0,0.060,0.012,0.020,0.040,-0.040,0.015,0.992,0.013,-0.006,-0.010,0.002,0.000,0.000,0.000,0.000,0,2,0,1,7,255,1440,300,514,1740,-89.346,0.954,-31.492
EX0521-092111,26,C02,rest,33822,33822,0,1278389.092,0.686,-0.675,0.196,0.187,0,0,0,0,0,0,0,0,0,0.000,0,0,0.035,0.008,0.020,-0.020,0.020,0.013,0.992,0.011,-0.006,-0.006,0.002,0.000,0.000,0.000,0.000,0,2,0,1,7,255,1440,300,519,1740,-89.346,0.954,-31.492
EX0521-092111,26,C02,rest,33822,33822,0,1278394.092,0.686,-0.675,0.196,0.187,0,0,0,0,0,0,0,0,0,0.000,0,0,0.085,0.009,0.020,-0.080,0.020,0.014,0.992,0.011,-0.004,0.008,0.000,0.000,0.000,0.000,0.000,0,2,0,1,7,255,1440,300,524,1740,-89.346,0.954,-31.492
EX0521-092111,26,C02,rest,33838,33838,0,1278399.092,0.686,-0.675,0.196,0.187,0,0,0,0,0,0,0,0,0,0.000,0,0,0.085,0.010,0.020,-0.080,0.020,0.014,0.993,0.010,0.000,0.010,0.000,0.000,0.000,0.000,0.000,0,2,0,1,7,255,1440,300,529,1740,-89.346,0.954,-31.492
EX0521-092111,26,C02,rest,33838,33838,0,1278404.092,0.686,-0.675,0.196,0.187,0,0,0,0,0,0,0,0,0,0.000,0,0,0.162,0.015,0.080,-0.140,0.020,0.014,0.992,0.010,0.006,0.014,0.000,0.000,0.000,0.000,0.000,0,2,0,1,7,255,1440,300,534,1740,-89.346,0.954,-31.492
EX0521-092111,26,C02,rest,33839,33839,0,1278409.091,0.686,-0.675,0.196,0.187,0,0,0,0,0,0,0,0,0,0.000,0,0,0.092,0.015,-0.040,-0.080,0.020,0.014,0.991,0.010,0.006,0.014,0.000,0.000,0.000,0.000,0.000,0,2,0,1,7,255,1440,300,539,1740,-89.346,0.954,-31.492
EX0521-092111,26,C02,rest,33839,33839,0,1278414.091,0.686,-0.675,0.196,0.187,0,0,0,0,0,0,0,0,0,0.000,0,0,0.060,0.012,-0.040,0.040,0.020,0.014,0.990,0.011,0.006,0.010,-0.014,0.000,0.000,0.000,0.000,0,2,0,1,7,255,1440,300,544,1740,-89.346,0.954,-31.492
EX0521-092111,26,C02,rest,33855,33855,0,1278419.092,0.686,-0.675,0.196,0.187,0,0,0,0,0,0,0,0,0,0.000,0,0,0.060,0.008,-0.040,0.040,0.020,0.015,0.990,0.013,0.002,0.008,-0.018,0.000,0.000,0.000,0.000,0,2,0,1,7,255,1440,300,549,1740,-89.346,0.954,-31.492
EX0521-092111,26,C02,rest,33855,33855,0,1278424.092,0.686,-0.675,0.196,0.187,0,0,0,0,0,0,0,0,0,0.000,0,0,0.104,0.008,0.020,0.100,0.020,0.013,0.990,0.013,0.000,-0.008,-0.018,0.000,0.000,0.000,0.000,0,2,0,1,7,255,1440,300,554,1740,-89.346,0.954,-31.492
EX0521-092111,26,C02,rest,33902,33902,0,1278429.092,0.686,-0.675,0.196,0.187,0,0,0,0,0,0,0,0,0,0.000,0,0,0.098,0.020,0.080,0.040,-0.040,0.013,0.992,0.014,-0.016,-0.012,-0.018,0.000,0.000,0.000,0.000,0,2,0,1,7,255,1440,300,559,1740,-89.346,0.954,-31.492
EX0521-092111,26,C02,rest,33902,33902,0,1278434.091,0.686,-0.675,0.196,0.187,0,0,0,0,0,0,0,0,0,0.000,0,0,0.190,0.018,0.140,-0.080,-0.100,0.014,0.992,0.013,-0.016,-0.008,-0.004,0.000,0.000,0.000,0.000,0,2,0,1,7,255,1440,300,564,1740,-89.346,0.954,-31.492
EX0521-092111,26,C02,rest,33902,33902,0,1278439.091,0.686,-0.675,0.196,0.187,0,0,0,0,0,0,0,0,0,0.000,0,0,0.115,0.012,0.080,-0.080,0.020,0.013,0.991,0.012,-0.010,-0.006,-0.004,0.000,0.000,0.000,0.000,0,2,0,1,7,255,1440,300,569,1740,-89.346,0.954,-31.492
EX0521-092111,26,C02,rest,33902,33902,0,1278444.092,0.686,-0.675,0.196,0.187,0,0,0,0,0,0,0,0,0,0.000,0,0,0.115,0.010,0.080,-0.080,0.020,0.015,0.990,0.009,-0.010,0.000,-0.008,0.000,0.000,0.000,0.000,0,2,0,1,7,255,1440,300,574,1740,-89.346,0.954,-31.492
EX0521-092111,26,C02,rest,33902,33902,0,1278449.092,0.686,-0.675,0.196,0.187,0,0,0,0,0,0,0,0,0,0.000,0,0,0.130,0.019,-0.100,-0.080,0.020,0.015,0.992,0.010,0.016,0.010,-0.008,0.000,0.000,0.000,0.000,0,2,0,1,7,255,1440,300,579,1740,-89.346,0.954,-31.492
EX0521-092111,26,C02,rest,33902,33902,0,1278454.093,0.686,-0.675,0.196,0.187,0,0,0,0,0,0,0,0,0,0.000,0,0,0.130,0.019,-0.100,-0.020,0.080,0.015,0.990,0.010,0.016,0.010,-0.018,0.000,0.000,0.000,0.000,0,2,0,1,7,255,1440,300,584,1740,-89.346,0.954,-31.492
EX0521-092111,26,C02,rest,33919,33919,0,1278459.092,0.686,-0.675,0.196,0.187,0,0,0,0,0,0,0,0,0,0.000,0,0,0.134,0.015,-0.100,0.040,0.080,0.015,0.991,0.012,0.014,0.006,-0.012,0.000,0.000,0.000,0.000,0,2,0,1,7,255,1440,300,0,0,-89.346,0.954,-31.492
EX0521-092111,26,C02,rest,33919,33919,0,1278464.091,0.686,-0.675,0.196,0.187,0,0,0,0,0,0,0,0,0,0.000,0,0,0.110,0.006,-0.100,0.040,0.020,0.015,0.990,0.012,0.004,-0.004,-0.018,0.000,0.000,0.000,0.000,0,2,0,1,7,255,1440,300,0,0,-89.346,0.954,-31.492
EX0521-092111,26,C02,rest,33919,33919,0,1278469.092,0.686,-0.675,0.196,0.187,0,0,0,0,0,0,0,0,0,0.000,0,0,0.110,0.008,0.020,0.040,-0.100,0.015,0.991,0.012,0.000,-0.008,-0.012,0.000,0.000,0.000,0.000,0,2,0,1,7,255,1440,300,0,0,-89.346,0.954,-31.492
EX0521-092111,26,C02,rest,33919,33919,0,1278474.093,0.686,-0.675,0.196,0.187,0,0,0,0,0,0,0,0,0,0.000,0,0,0.049,0.008,0.020,-0.020,-0.040,0.013,0.992,0.013,0.000,-0.008,-0.012,0.000,0.000,0.000,0.000,0,2,0,1,7,255,1440,300,0,0,-89.346,0.954,-31.492
EX0521-092111,26,C02,rest,33919,33919,0,1278479.092,0.686,-0.675,0.196,0.187,0,0,0,0,0,0,0,0,0,0.000,0,0,0.134,0.015,0.080,0.040,-0.100,0.013,0.991,0.012,-0.014,-0.004,-0.008,0.000,0.000,0.000,0.000,0,2,0,1,7,255,1440,300,0,0,-89.346,0.954,-31.492
EX0521-092111,26,C02,rest,33919,33919,0,1278484.091,0.686,-0.675,0.196,0.187,0,0,0,0,0,0,0,0,0,0.000,0,0,0.092,0.014,0.080,-0.020,-0.040,0.013,0.992,0.011,-0.014,0.002,-0.002,0.000,0.000,0.000,0.000,0,2,0,1,7,255,1440,300,0,0,-89.346,0.954,-31.492
EX0521-092111,26,C02,rest,33920,33920,0,1278489.092,0.686,-0.675,0.196,0.187,0,0,0,0,0,0,0,0,0,0.000,0,0,0.092,0.010,-0.040,-0.080,0.020,0.014,0.992,0.012,-0.010,0.002,-0.002,0.000,0.000,0.000,0.000,0,2,0,1,7,255,1440,300,0,0,-89.346,0.954,-31.492
EX0521-092111,26,C02,rest,33920,33920,0,1278494.092,0.686,-0.675,0.196,0.187,0,0,0,0,0,0,0,0,0,0.000,0,0,0.180,0.011,-0.160,-0.080,0.020,0.015,0.991,0.009,-0.004,0.010,-0.002,0.000,0.000,0.000,0.000,0,2,0,1,7,255,1440,300,0,0,-89.346,0.954,-31.492
EX0521-092111,26,C02,rest,33934,33934,0,1278499.092,0.686,-0.675,0.196,0.187,0,0,0,0,0,0,0,0,0,0.000,0,0,0.255,0.017,-0.220,0.100,0.080,0.016,0.990,0.010,0.016,0.006,-0.008,0.000,0.000,0.000,0.000,0,2,0,1,7,255,1440,300,0,0,-89.346,0.954,-31.492
EX0521-092111,26,C02,rest,33934,33934,0,1278504.092,0.686,-0.675,0.196,0.187,0,0,0,0,0,0,0,0,0,0.000,0,0,0.060,0.017,0.020,0.040,-0.040,0.014,0.991,0.012,0.016,0.006,-0.012,0.000,0.000,0.000,0.000,0,2,0,1,7,255,1440,300,0,0,-89.346,0.954,-31.492
EX0521-092111,26,C02,rest,33954,33954,0,1278509.091,0.686,-0.675,0.196,0.187,0,0,0,0,0,0,0,0,0,0.000,0,0,0.115,0.012,-0.040,0.040,-0.100,0.014,0.992,0.010,0.010,0.006,-0.012,0.000,0.000,0.000,0.000,0,2,0,1,7,255,1440,300,0,0,-89.346,0.954,-31.492
EX0521-092111,26,C02,rest,33954,33954,0,1278514.091,0.686,-0.675,0.196,0.187,0,0,0,0,0,0,0,0,0,0.000,0,0,0.069,0.012,-0.040,0.040,-0.040,0.014,0.991,0.010,0.002,0.012,-0.012,0.000,0.000,0.000,0.000,0,2,0,1,7,255,1440,300,0,0,-89.346,0.954,-31.492
EX0521-092111,26,C02,rest,33966,33966,0,1278519.093,0.686,-0.675,0.196,0.187,0,0,0,0,0,0,0,0,0,0.000,0,0,0.177,0.012,0.140,0.040,-0.100,0.014,0.992,0.012,0.002,0.012,-0.002,0.000,0.000,0.000,0.000,0,2,0,1,7,255,1440,300,0,0,-89.346,0.954,-31.492
EX0521-092111,26,C02,rest,33966,33966,0,1278524.092,0.686,-0.675,0.196,0.187,0,0,0,0,0,0,0,0,0,0.000,0,0,0.092,0.002,0.020,-0.080,-0.040,0.014,0.990,0.012,0.000,-0.002,-0.012,0.000,0.000,0.000,0.000,0,2,0,1,7,255,1440,300,0,0,-89.346,0.954,-31.492
EX0521-092111,26,C02,rest,33966,33966,0,1278529.092,0.686,-0.675,0.196,0.187,0,0,0,0,0,0,0,0,0,0.000,0,0,0.183,0.002,-0.160,-0.080,-0.040,0.014,0.989,0.011,0.000,-0.002,-0.016,0.000,0.000,0.000,0.000,0,2,0,1,7,255,1440,300,0,0,-89.346,0.954,-31.492
EX0521-092111,26,C02,rest,33966,33966,0,1278534.093,0.686,-0.675,0.196,0.187,0,0,0,0,0,0,0,0,0,0.000,0,0,0.143,0.000,-0.100,-0.020,-0.100,0.013,0.993,0.012,0.000,0.000,-0.016,0.000,0.000,0.000,0.000,0,2,0,1,7,255,1440,300,0,0,-89.346,0.954,-31.492
EX0521-092111,26,C02,prep,31,31,0,1278539.091,0.686,-0.675,0.196,0.187,0,0,0,0,0,0,0,0,0,0.000,0,0,0.224,0.003,0.200,-0.020,-0.100,0.014,0.993,0.009,0.002,0.002,0.008,0.000,0.000,0.000,0.000,0,2,0,1,7,255,1440,300,0,0,-89.346,0.954,-31.492
EX0521-092111,26,C02,prep,31,31,0,1278544.092,0.686,-0.675,0.196,0.187,0,0,0,0,0,0,0,0,0,0.000,0,0,0.214,0.000,0.140,-0.020,-0.160,0.014,0.991,0.012,0.000,0.000,0.008,0.000,0.000,0.000,0.000,0,2,0,1,7,255,1440,300,0,0,-89.346,0.954,-31.492
EX0521-092111,26,C02,prep,31,31,0,1278549.092,0.686,-0.675,0.196,0.187,0,0,0,0,0,0,0,0,0,0.000,0,0,0.281,0.012,-0.280,-0.020,0.020,0.016,0.985,0.012,0.012,-0.002,-0.010,0.000,0.000,0.000,0.000,0,2,0,1,7,255,1440,300,0,0,-89.346,0.954,-31.492
EX0521-092111,26,C02,prep,31,31,0,1278554.093,0.686,-0.675,0.196,0.187,0,0,0,0,0,0,0,0,0,0.000,0,0,0.110,0.002,-0.100,-0.020,-0.040,0.012,1.007,0.012,0.000,-0.002,-0.010,0.000,0.000,0.000,0.000,0,2,0,1,7,255,1440,300,0,0,-89.346,0.952,-31.492
EX0521-092111,26,C02,prep,31,31,0,1278559.092,0.686,-0.675,0.196,0.187,0,0,0,0,0,0,0,0,0,0.000,0,0,0.414,0.011,0.400,0.040,-0.100,0.013,1.010,0.009,0.004,0.010,0.150,0.000,0.000,0.000,0.000,0,2,0,1,7,255,1440,300,0,0,-89.346,0.952,-31.492
EX0521-092111,26,C02,prep,31,31,0,1278564.093,0.686,-0.675,0.196,0.187,0,0,0,0,0,0,0,0,0,0.000,0,0,0.404,0.011,-0.280,-0.080,0.280,0.015,0.981,0.012,0.004,0.010,0.150,0.000,0.000,0.000,0.000,0,2,0,1,7,255,1440,300,0,0,-89.346,0.952,-31.492
EX0521-092111,26,C02,prep,47,47,0,1278569.092,0.686,-0.675,0.196,0.187,0,0,0,0,0,0,0,0,0,0.000,0,0,0.110,0.004,-0.100,0.040,0.020,0.012,0.997,0.013,0.004,0.000,0.044,0.000,0.000,0.000,0.000,0,2,0,1,7,255,1440,300,0,0,-89.346,0.952,-31.492
EX0521-092111,26,C02,prep,47,47,0,1278574.092,0.686,-0.675,0.196,0.187,0,0,0,0,0,0,0,0,0,0.000,0,0,0.565,0.009,0.520,-0.020,-0.220,0.016,0.978,0.011,0.008,-0.004,-0.108,0.000,0.000,0.000,0.000,0,2,0,1,7,255,1440,300,0,0,-89.346,0.952,-31.492
EX0521-092111,26,C02,prep,47,47,0,1278579.092,0.686,-0.675,0.196,0.187,0,0,0,0,0,0,0,0,0,0.000,0,0,0.831,0.008,-0.700,-0.200,0.400,0.013,0.995,0.012,-0.008,0.000,0.032,0.000,0.000,0.000,0.000,0,2,0,1,7,255,1440,300,0,0,-89.342,0.952,-31.492
EX0521-092111,26,C02,prep,47,47,0,1278584.091,0.686,-0.675,0.196,0.187,0,0,0,0,0,0,0,0,0,0.000,0,0,0.822,0.006,0.700,0.160,-0.400,0.014,0.995,0.011,0.004,0.004,0.026,0.000,0.000,0.000,0.000,0,2,0,1,7,255,1440,300,0,0,-89.346,0.952,-31.492
EX0521-092111,26,C02,prep,64,64,0,1278589.092,0.686,-0.675,0.196,0.187,0,0,0,0,0,0,0,0,0,0.000,0,0,0.521,0.006,-0.460,-0.140,0.200,0.015,0.988,0.013,-0.004,0.004,0.026,0.000,0.000,0.000,0.000,0,2,0,1,7,255,1440,300,0,0,-89.346,0.952,-31.492
EX0521-092111,26,C02,prep,64,64,0,1278594.092,0.686,-0.675,0.196,0.187,0,0,0,0,0,0,0,0,0,0.000,0,0,0.183,0.007,0.080,0.040,-0.160,0.015,0.995,0.010,0.004,0.006,0.026,0.000,0.000,0.000,0.000,0,2,0,1,7,255,1440,300,0,0,-89.346,0.952,-31.492
EX0521-092111,26,C02,prep,64,64,0,1278599.092,0.686,-0.675,0.196,0.187,0,0,0,0,0,0,0,0,0,0.000,0,0,0.166,0.006,0.140,-0.080,-0.040,0.014,0.985,0.012,-0.004,-0.004,-0.040,0.000,0.000,0.000,0.000,0,2,0,1,7,255,1440,300,0,0,-89.346,0.953,-31.492
EX0521-092111,26,C02,prep,64,64,0,1278604.092,0.686,-0.675,0.196,0.187,0,0,0,0,0,0,0,0,0,0.000,0,0,0.426,0.013,-0.400,0.040,0.140,0.014,0.992,0.009,0.010,0.008,0.002,0.000,0.000,0.000,0.000,0,2,0,1,7,255,1440,300,0,0,-89.346,0.953,-31.492
EX0521-092111,26,C02,prep,81,81,0,1278609.091,0.686,-0.675,0.196,0.187,0,0,0,0,0,0,0,0,0,0.000,0,0,0.120,0.007,0.080,-0.080,-0.040,0.014,0.995,0.013,-0.006,-0.004,0.002,0.000,0.000,0.000,0.000,0,2,0,1,7,255,1440,300,0,0,-89.346,0.953,-31.492
EX0521-092111,26,C02,prep,81,81,0,1278614.091,0.686,-0.675,0.196,0.187,0,0,0,0,0,0,0,0,0,0.000,0,0,0.281,0.016,0.260,0.040,-0.100,0.015,0.981,0.010,0.014,0.008,0.002,0.000,0.000,0.000,0.000,0,2,0,1,7,255,1440,300,0,0,-89.346,0.953,-31.492
EX0521-092111,26,C02,prep,81,81,0,1278619.092,0.686,-0.675,0.196,0.187,0,0,0,0,0,0,0,0,0,0.000,0,0,0.487,0.008,-0.460,-0.080,0.140,0.012,1.000,0.013,-0.008,0.000,0.026,0.000,0.000,0.000,0.000,0,2,0,1,7,255,1440,300,0,0,-89.346,0.953,-31.492
EX0521-092111,26,C02,prep,81,81,0,1278624.092,0.686,-0.675,0.196,0.187,0,0,0,0,0,0,0,0,0,0.000,0,0,0.867,0.002,0.820,-0.020,-0.280,0.015,0.982,0.013,0.002,0.000,-0.092,0.000,0.000,0.000,0.000,0,2,0,1,7,255,1440,300,0,0,-89.350,0.953,-31.492
EX0521-092111,26,C02,prep,97,97,0,1278629.092,0.686,-0.675,0.196,0.187,0,0,0,0,0,0,0,0,0,0.000,0,0,0.804,0.002,-0.760,0.040,0.260,0.013,0.999,0.008,0.002,0.000,0.064,0.000,0.000,0.000,0.000,0,2,0,1,7,255,1440,300,0,0,-89.346,0.953,-31.492
EX0521-092111,26,C02,prep,97,97,0,1278634.091,0.686,-0.675,0.196,0.187,0,0,0,0,0,0,0,0,0,0.000,0,0,0.237,0.018,0.200,-0.080,-0.100,0.014,0.986,0.015,0.002,-0.018,-0.058,0.000,0.000,0.000,0.000,0,2,0,1,7,255,1440,300,0,0,-89.346,0.953,-31.492
EX0521-092111,26,C02,prep,127,127,0,1278639.091,0.686,-0.675,0.196,0.187,0,0,0,0,0,0,0,0,0,0.000,0,0,0.497,0.026,0.460,0.100,-0.160,0.015,0.989,0.008,0.010,0.024,-0.030,0.000,0.000,0.000,0.000,0,2,0,1,7,255,1440,300,0,0,-89.346,0.953,-31.492
EX0521-092111,26,C02,prep,127,127,0,1278644.092,0.686,-0.675,0.196,0.187,0,0,0,0,0,0,0,0,0,0.000,0,0,0.925,0.008,-0.900,-0.080,0.200,0.015,0.997,0.012,0.000,-0.008,-0.030,0.000,0.000,0.000,0.000,0,2,0,1,7,255,1440,300,0,0,-89.342,0.953,-31.492
EX0521-092111,26,C02,prep,127,127,0,1278649.092,0.686,-0.675,0.196,0.187,0,0,0,0,0,0,0,0,0,0.000,0,0,0.867,0.008,0.820,-0.020,-0.280,0.015,0.989,0.017,0.000,-0.008,-0.028,0.000,0.000,0.000,0.000,0,2,0,1,7,255,1440,300,0,0,-89.344,0.953,-31.492
EX0521-092111,26,C02,prep,127,127,0,1278654.093,0.686,-0.675,0.196,0.187,0,0,0,0,0,0,0,0,0,0.000,0,0,0.110,0.008,-0.100,0.040,0.020,0.014,0.997,0.006,0.000,-0.008,0.046,0.000,0.000,0.000,0.000,0,2,0,1,7,255,1440,300,0,0,-89.349,0.953,-31.492
EX0521-092111,26,C02,prep,127,127,0,1278659.091,0.686,-0.675,0.196,0.187,0,0,0,0,0,0,0,0,0,0.000,0,0,0.980,0.019,-0.960,-0.140,0.140,0.013,0.989,0.013,-0.016,-0.010,-0.024,0.000,0.000,0.000,0.000,0,2,0,1,7,255,1440,300,0,0,-89.344,0.953,-31.492
EX0521-092111,26,C02,prep,127,127,0,1278664.091,0.686,-0.675,0.196,0.187,0,0,0,0,0,0,0,0,0,0.000,0,0,1.025,0.016,1.000,0.040,-0.220,0.015,0.986,0.016,-0.012,-0.010,-0.024,0.000,0.000,0.000,0.000,0,2,0,1,7,255,1440,300,0,0,-89.349,0.953,-31.492
EX0521-092111,26,C02,prep,144,144,0,1278669.092,0.686,-0.675,0.196,0.187,0,0,0,0,0,0,0,0,0,0.000,0,0,0.893,0.016,0.820,0.100,-0.340,0.013,1.002,0.003,-0.012,-0.010,-0.024,0.000,0.000,0.000,0.000,0,2,0,1,7,255,1440,300,0,0,-89.356,0.953,-31.492
EX0521-092111,26,C02,prep,144,144,0,1278674.092,0.686,-0.675,0.196,0.187,0,0,0,0,0,0,0,0,0,0.000,0,0,2.183,0.028,-2.100,-0.140,0.580,0.015,0.986,0.014,-0.010,-0.026,-0.054,0.000,0.000,0.000,0.000,0,2,0,1,7,255,1440,300,0,0,-89.346,0.955,-31.492
EX0521-092111,26,C02,prep,144,144,0,1278679.092,0.686,-0.675,0.196,0.187,0,0,0,0,0,0,0,0,0,0.000,0,0,0.981,0.028,0.940,-0.020,-0.280,0.014,0.990,0.017,-0.010,-0.026,-0.020,0.000,0.000,0.000,0.000,0,2,0,1,7,255,1440,300,0,0,-89.349,0.955,-31.492
EX0521-092111,26,C02,prep,144,144,0,1278684.091,0.686,-0.675,0.196,0.187,0,0,0,0,0,0,0,0,0,0.000,0,0,2.292,0.028,2.160,0.100,-0.760,0.012,0.997,0.004,-0.010,-0.026,-0.020,0.000,0.000,0.000,0.000,0,2,0,1,7,255,1440,300,0,0,-89.362,0.952,-31.492
EX0521-092111,26,C02,prep,159,159,0,1278689.092,0.686,-0.675,0.197,0.187,0,0,0,0,0,0,0,0,0,0.000,0,0,3.507,0.006,-3.340,-0.140,1.060,0.014,0.989,0.012,-0.006,0.000,-0.020,0.000,0.000,0.000,0.000,0,2,0,1,7,255,1440,300,0,0,-89.345,0.957,-31.492
EX0521-092111,26,C02,prep,159,159,0,1278694.092,0.686,-0.675,0.197,0.187,0,0,0,0,0,0,0,0,0,0.000,0,0,0.888,0.006,0.820,-0.020,-0.340,0.014,0.992,0.016,-0.006,0.000,0.000,0.000,0.000,0.000,0.000,0,2,0,1,7,255,1440,300,0,0,-89.349,0.957,-31.492
EX0521-092111,26,C02,prep,183,183,0,1278699.092,0.686,-0.675,0.197,0.187,0,0,0,0,0,0,0,0,0,0.000,0,0,2.313,0.006,2.220,0.100,-0.640,0.014,0.989,0.009,-0.006,0.000,-0.030,0.000,0.000,0.000,0.000,0,2,0,1,7,255,1440,300,0,0,-89.360,0.954,-31.492
EX0521-092111,26,C02,prep,183,183,0,1278704.092,0.686,-0.675,0.197,0.187,0,0,0,0,0,0,0,0,0,0.000,0,0,2.197,0.019,-2.100,-0.080,0.640,0.012,1.003,0.006,0.006,0.018,0.000,0.000,0.000,0.000,0.000,0,2,0,1,7,255,1440,300,0,0,-89.350,0.957,-31.492
EX0521-092111,26,C02,prep,183,183,0,1278709.091,0.686,-0.675,0.196,0.187,0,0,0,0,0,0,0,0,0,0.000,0,0,0.292,0.019,-0.280,-0.080,0.020,0.015,0.984,0.018,0.006,0.018,-0.030,0.000,0.000,0.000,0.000,0,2,0,1,7,255,1440,300,0,0,-89.344,0.957,-31.492
EX0521-092111,26,C02,prep,183,183,0,1278714.091,0.686,-0.675,0.197,0.187,0,0,0,0,0,0,0,0,0,0.000,0,0,1.006,0.006,1.000,0.040,-0.100,0.015,0.989,0.012,0.004,-0.004,-0.024,0.000,0.000,0.000,0.000,0,2,0,1,7,255,1440,300,0,0,-89.349,0.957,-31.492
EX0521-092111,26,C02,prep,184,184,0,1278719.092,0.686,-0.675,0.197,0.187,0,0,0,0,0,0,0,0,0,0.000,0,0,0.495,0.006,0.400,-0.080,-0.280,0.013,1.000,0.005,0.004,-0.004,-0.024,0.000,0.000,0.000,0.000,0,2,0,1,7,255,1440,300,0,0,-89.355,0.957,-31.492
EX0521-092111,26,C02,prep,184,184,0,1278724.092,0.686,-0.675,0.197,0.187,0,0,0,0,0,0,0,0,0,0.000,0,0,1.726,0.006,-1.620,-0.140,0.580,0.016,0.981,0.016,0.004,-0.004,-0.024,0.000,0.000,0.000,0.000,0,2,0,1,7,255,1440,300,0,0,-89.345,0.960,-31.492
EX0521-092111,26,C02,prep,239,239,0,1278729.092,0.686,-0.675,0.197,0.187,0,0,0,0,0,0,0,0,0,0.000,0,0,1.025,0.008,1.000,0.040,-0.220,0.014,0.996,0.012,-0.008,-0.002,0.036,0.000,0.000,0.000,0.000,0,2,0,1,7,255,1440,300,0,0,-89.350,0.960,-31.492
EX0521-092111,26,C02,prep,240,240,0,1278734.091,0.686,-0.675,0.197,0.187,0,0,0,0,0,0,0,0,0,0.000,0,0,0.949,0.008,0.880,0.100,-0.340,0.014,0.995,0.007,-0.008,-0.002,0.026,0.000,0.000,0.000,0.000,0,2,0,1,7,255,1440,300,0,0,-89.354,0.960,-31.492
EX0521-092111,26,C02,prep,240,240,0,1278739.091,0.686,-0.675,0.197,0.187,0,0,0,0,0,0,0,0,0,0.000,0,0,2.110,0.003,-1.980,-0.200,0.700,0.015,0.989,0.013,0.002,-0.002,0.026,0.000,0.000,0.000,0.000,0,2,0,1,7,255,1440,300,0,0,-89.344,0.963,-31.492
EX0521-092111,26,C02,prep,240,240,0,1278744.092,0.686,-0.675,0.197,0.187,0,0,0,0,0,0,0,0,0,0.000,0,0,1.000,0.012,0.940,0.040,-0.340,0.014,0.992,0.013,0.002,-0.012,0.004,0.000,0.000,0.000,0.000,0,2,0,1,7,255,1440,300,0,0,-89.349,0.963,-31.492
EX0521-092111,26,C02,prep,240,240,0,1278749.092,0.686,-0.675,0.197,0.187,0,0,0,0,0,0,0,0,0,0.000,0,0,0.649,0.012,0.640,0.040,-0.100,0.014,0.988,0.008,0.002,-0.012,-0.026,0.000,0.000,0.000,0.000,0,2,0,1,7,255,1440,300,0,0,-89.352,0.963,-31.492
EX0521-092111,26,C02,prep,240,240,0,1278754.093,0.686,-0.675,0.197,0.187,0,0,0,0,0,0,0,0,0,0.000,0,0,1.177,0.015,-1.140,-0.080,0.280,0.013,0.997,0.012,-0.014,0.006,0.004,0.000,0.000,0.000,0.000,0,2,0,1,7,255,1440,300,0,0,-89.347,0.963,-31.492
EX0521-092111,26,C02,prep,240,240,0,1278759.093,0.686,-0.675,0.197,0.187,0,0,0,0,0,0,0,0,0,0.000,0,0,0.565,0.013,0.520,-0.020,-0.220,0.015,0.987,0.015,-0.012,0.006,-0.040,0.000,0.000,0.000,0.000,0,2,0,1,7,255,1440,300,0,0,-89.347,0.963,-31.492
EX0521-092111,26,C02,prep,240,240,0,1278764.093,0.686,-0.675,0.197,0.187,0,0,0,0,0,0,0,0,0,0.000,0,0,0.355,0.013,0.340,0.100,0.020,0.015,0.989,0.009,-0.012,0.006,-0.026,0.000,0.000,0.000,0.000,0,2,0,1,7,255,1440,300,0,0,-89.347,0.963,-31.492
EX0521-092111,26,C02,prep,240,240,0,1278769.092,0.686,-0.675,0.197,0.187,0,0,0,0,0,0,0,0,0,0.000,0,0,0.522,0.017,-0.520,-0.020,-0.040,0.013,0.995,0.011,-0.010,0.014,-0.026,0.000,0.000,0.000,0.000,0,2,0,1,7,255,1440,300,0,0,-89.347,0.963,-31.492
EX0521-092111,26,C02,prep,240,240,0,1278774.092,0.686,-0.675,0.197,0.187,0,0,0,0,0,0,0,0,0,0.000,0,0,0.180,0.014,-0.160,-0.020,0.080,0.016,0.985,0.014,-0.002,0.014,-0.026,0.000,0.000,0.000,0.000,0,2,0,1,7,255,1440,300,0,0,-89.347,0.963,-31.492
EX0521-092111,26,C02,prep,240,240,0,1278779.092,0.686,-0.675,0.197,0.187,0,0,0,0,0,0,0,0,0,0.000,0,0,0.590,0.010,0.580,0.040,-0.100,0.014,0.995,0.010,-0.002,0.010,0.028,0.000,0.000,0.000,0.000,0,2,0,1,7,255,1440,300,0,0,-89.350,0.963,-31.492
EX0521-092111,26,C02,prep,240,240,0,1278784.091,0.686,-0.675,0.197,0.187,0,0,0,0,0,0,0,0,0,0.000,0,0,0.170,0.012,-0.160,0.040,-0.040,0.014,0.993,0.009,0.006,0.010,0.008,0.000,0.000,0.000,0.000,0,2,0,1,7,255,1440,300,0,0,-89.350,0.963,-31.492
EX0521-092111,26,C02,prep,259,259,0,1278789.092,0.686,-0.675,0.197,0.187,0,0,0,0,0,0,0,0,0,0.000,0,0,0.602,0.012,-0.580,-0.080,0.140,0.015,0.987,0.013,0.006,0.010,0.008,0.000,0.000,0.000,0.000,0,2,0,1,7,255,1440,300,0,0,-89.347,0.963,-31.492
EX0521-092111,26,C02,prep,259,259,0,1278794.092,0.686,-0.675,0.197,0.187,0,0,0,0,0,0,0,0,0,0.000,0,0,0.855,0.017,0.820,0.100,-0.220,0.015,0.993,0.013,-0.006,-0.016,0.008,0.000,0.000,0.000,0.000,0,2,0,1,7,255,1440,300,0,0,-89.351,0.963,-31.492
EX0521-092111,26,C02,prep,271,271,0,1278799.092,0.686,-0.675,0.197,0.187,0,0,0,0,0,0,0,0,0,0.000,0,0,0.104,0.017,-0.100,-0.020,0.020,0.014,0.990,0.008,-0.006,-0.016,-0.016,0.000,0.000,0.000,0.000,0,2,0,1,7,255,1440,300,0,0,-89.351,0.963,-31.492
EX0521-092111,26,C02,prep,271,271,0,1278804.092,0.686,-0.675,0.197,0.187,0,0,0,0,0,0,0,0,0,0.000,0,0,0.727,0.015,-0.700,-0.140,0.140,0.014,0.990,0.013,-0.006,-0.014,-0.016,0.000,0.000,0.000,0.000,0,2,0,1,7,255,1440,300,0,0,-89.347,0.963,-31.492
EX0521-092111,26,C02,prep,271,271,0,1278809.092,0.686,-0.675,0.197,0.187,0,0,0,0,0,0,0,0,0,0.000,0,0,0.661,0.003,0.640,0.040,-0.160,0.014,0.992,0.012,-0.002,-0.002,-0.016,0.000,0.000,0.000,0.000,0,2,0,1,7,255,1440,300,0,0,-89.350,0.963,-31.492
EX0521-092111,26,C02,prep,271,271,0,1278814.091,0.686,-0.675,0.197,0.187,0,0,0,0,0,0,0,0,0,0.000,0,0,0.060,0.003,-0.040,0.040,0.020,0.014,0.991,0.007,-0.002,-0.002,-0.006,0.000,0.000,0.000,0.000,0,2,0,1,7,255,1440,300,0,0,-89.350,0.963,-31.492
EX0521-092111,26,C02,prep,287,287,0,1278819.092,0.686,-0.675,0.197,0.187,0,0,0,0,0,0,0,0,0,0.000,0,0,0.467,0.003,-0.460,-0.080,0.020,0.014,0.992,0.013,-0.002,-0.002,0.000,0.000,0.000,0.000,0.000,0,2,0,1,7,255,1440,300,0,0,-89.350,0.963,-31.492
EX0521-092111,26,C02,prep,287,287,0,1278824.092,0.686,-0.675,0.197,0.187,0,0,0,0,0,0,0,0,0,0.000,0,0,0.395,0.013,0.380,0.040,-0.100,0.014,0.989,0.013,-0.008,-0.010,-0.006,0.000,0.000,0.000,0.000,0,2,0,1,7,255,1440,300,0,0,-89.350,0.963,-31.492
EX0521-092111,26,C02,prep,305,305,0,1278829.092,0.686,-0.675,0.197,0.187,0,0,0,0,0,0,0,0,0,0.000,0,0,0.264,0.013,0.260,0.040,0.020,0.014,0.993,0.010,-0.008,-0.010,0.004,0.000,0.000,0.000,0.000,0,2,0,1,7,255,1440,300,0,0,-89.350,0.963,-31.492
EX0521-092111,26,C02,prep,305,305,0,1278834.091,0.686,-0.675,0.197,0.187,0,0,0,0,0,0,0,0,0,0.000,0,0,0.462,0.006,-0.460,0.040,0.020,0.014,0.992,0.011,-0.004,0.004,0.000,0.000,0.000,0.000,0.000,0,2,0,1,7,255,1440,300,0,0,-89.350,0.963,-31.492
EX0521-092111,26,C02,prep,335,335,0,1278839.091,0.686,-0.675,0.197,0.187,0,0,0,0,0,0,0,0,0,0.000,0,0,0.049,0.006,-0.040,-0.020,0.020,0.015,0.989,0.013,-0.004,0.004,0.000,0.000,0.000,0.000,0.000,0,2,0,1,7,255,1440,300,0,0,-89.350,0.963,-31.492
EX0521-092111,26,C02,prep,335,335,0,1278844.092,0.686,-0.675,0.197,0.187,0,0,0,0,0,0,0,0,0,0.000,0,0,0.395,0.006,0.380,0.040,-0.100,0.014,0.994,0.011,-0.004,0.004,0.000,0.000,0.000,0.000,0.000,0,2,0,1,7,255,1440,300,0,0,-89.350,0.963,-31.492
EX0521-092111,26,C02,prep,335,335,0,1278849.092,0.686,-0.675,0.197,0.187,0,0,0,0,0,0,0,0,0,0.000,0,0,0.284,0.008,-0.280,-0.020,-0.040,0.013,0.991,0.010,-0.002,0.008,-0.006,0.000,0.000,0.000,0.000,0,2,0,1,7,255,1440,300,0,0,-89.350,0.963,-31.492
EX0521-092111,26,C02,prep,335,335,0,1278854.093,0.686,-0.675,0.197,0.187,0,0,0,0,0,0,0,0,0,0.000,0,0,0.180,0.008,-0.160,-0.080,0.020,0.015,0.992,0.012,-0.002,0.008,0.000,0.000,0.000,0.000,0.000,0,2,0,1,7,255,1440,300,0,0,-89.350,0.963,-31.492
EX0521-092111,26,C02,prep,335,335,0,1278859.092,0.686,-0.675,0.197,0.187,0,0,0,0,0,0,0,0,0,0.000,0,0,0.531,0.008,0.520,0.040,-0.100,0.014,0.993,0.011,-0.002,0.008,0.000,0.000,0.000,0.000,0.000,0,2,0,1,7,255,1440,300,0,0,-89.350,0.963,-31.492
EX0521-092111,26,C02,prep,335,335,0,1278864.091,0.686,-0.675,0.197,0.187,0,0,0,0,0,0,0,0,0,0.000,0,0,0.281,0.009,-0.280,-0.020,0.020,0.014,0.991,0.009,0.004,0.008,0.000,0.000,0.000,0.000,0.000,0,2,0,1,7,255,1440,300,0,0,-89.350,0.963,-31.492
EX0521-092111,26,C02,prep,354,354,0,1278869.092,0.686,-0.675,0.197,0.187,0,0,0,0,0,0,0,0,0,0.000,0,0,0.358,0.009,-0.340,-0.080,0.080,0.015,0.991,0.012,0.004,0.008,-0.006,0.000,0.000,0.000,0.000,0,2,0,1,7,255,1440,300,0,0,-89.350,0.963,-31.492
EX0521-092111,26,C02,prep,354,354,0,1278874.092,0.686,-0.675,0.197,0.187,0,0,0,0,0,0,0,0,0,0.000,0,0,0.413,0.011,0.400,-0.020,-0.100,0.013,0.991,0.011,0.004,0.010,-0.006,0.000,0.000,0.000,0.000,0,2,0,1,7,255,1440,300,0,0,-89.350,0.964,-31.492
EX0521-092111,26,C02,prep,354,354,0,1278879.092,0.686,-0.675,0.197,0.187,0,0,0,0,0,0,0,0,0,0.000,0,0,0.060,0.011,-0.040,-0.020,-0.040,0.014,0.991,0.010,0.004,0.010,-0.006,0.000,0.000,0.000,0.000,0,2,0,1,7,255,1440,300,0,0,-89.350,0.964,-31.492
EX0521-092111,26,C02,prep,354,354,0,1278884.091,0.686,-0.675,0.197,0.187,0,0,0,0,0,0,0,0,0,0.000,0,0,0.401,0.011,-0.400,-0.020,0.020,0.014,0.990,0.012,-0.004,0.010,-0.006,0.000,0.000,0.000,0.000,0,2,0,1,7,255,1440,300,0,0,-89.350,0.964,-31.492
EX0521-092111,26,C02,prep,355,355,0,1278889.092,0.686,-0.675,0.197,0.187,0,0,0,0,0,0,0,0,0,0.000,0,0,0.264,0.008,0.260,-0.020,-0.040,0.015,0.992,0.013,0.000,-0.008,-0.004,0.000,0.000,0.000,0.000,0,2,0,1,7,255,1440,300,0,0,-89.350,0.964,-31.492
EX0521-092111,26,C02,prep,355,355,0,1278894.092,0.686,-0.675,0.197,0.187,0,0,0,0,0,0,0,0,0,0.000,0,0,0.147,0.008,0.140,0.040,0.020,0.014,0.993,0.010,0.000,-0.008,0.000,0.000,0.000,0.000,0.000,0,2,0,1,7,255,1440,300,0,0,-89.350,0.964,-31.492
EX0521-092111,26,C02,prep,367,367,0,1278899.092,0.686,-0.675,0.197,0.187,0,0,0,0,0,0,0,0,0,0.000,0,0,0.341,0.002,-0.340,-0.020,0.020,0.014,0.991,0.011,0.000,0.002,0.000,0.000,0.000,0.000,0.000,0,2,0,1,7,255,1440,300,0,0,-89.350,0.964,-31.492
EX0521-092111,26,C02,prep,367,367,0,1278904.092,0.686,-0.675,0.197,0.187,0,0,0,0,0,0,0,0,0,0.000,0,0,0.147,0.002,0.140,-0.020,-0.040,0.015,0.989,0.013,0.000,0.002,-0.004,0.000,0.000,0.000,0.000,0,2,0,1,7,255,1440,300,0,0,-89.350,0.964,-31.492
EX0521-092111,26,C02,prep,388,388,0,1278909.091,0.686,-0.675,0.197,0.187,0,0,0,0,0,0,0,0,0,0.000,0,0,0.323,0.002,0.320,-0.020,-0.040,0.014,0.991,0.010,0.000,0.002,-0.004,0.000,0.000,0.000,0.000,0,2,0,1,7,255,1440,300,0,0,-89.350,0.964,-31.492
EX0521-092111,26,C02,prep,388,388,0,1278914.091,0.686,-0.675,0.197,0.187,0,0,0,0,0,0,0,0,0,0.000,0,0,0.292,0.012,-0.280,-0.020,0.080,0.014,0.991,0.010,0.002,0.012,-0.004,0.000,0.000,0.000,0.000,0,2,0,1,7,255,1440,300,0,0,-89.350,0.964,-31.492
EX0521-092111,26,C02,prep,388,388,0,1278919.092,0.686,-0.675,0.197,0.187,0,0,0,0,0,0,0,0,0,0.000,0,0,0.143,0.012,-0.100,-0.020,-0.100,0.014,0.990,0.013,0.002,0.012,-0.004,0.000,0.000,0.000,0.000,0,2,0,1,7,255,1440,300,0,0,-89.350,0.964,-31.492
EX0521-092111,26,C02,prep,388,388,0,1278924.092,0.686,-0.675,0.197,0.187,0,0,0,0,0,0,0,0,0,0.000,0,0,0.279,0.002,0.260,-0.020,-0.100,0.014,0.993,0.011,0.000,0.002,-0.004,0.000,0.000,0.000,0.000,0,2,0,1,7,255,1440,300,0,0,-89.350,0.964,-31.492
EX0521-092111,26,C02,prep,399,399,0,1278929.092,0.686,-0.675,0.197,0.187,0,0,0,0,0,0,0,0,0,0.000,0,0,0.222,0.002,-0.220,-0.020,0.020,0.015,0.991,0.010,0.000,0.002,-0.010,0.000,0.000,0.000,0.000,0,2,0,1,7,255,1440,300,0,0,-89.350,0.964,-31.492
EX0521-092111,26,C02,prep,399,399,0,1278934.091,0.686,-0.675,0.197,0.187,0,0,0,0,0,0,0,0,0,0.000,0,0,0.162,0.002,-0.160,-0.020,0.020,0.015,0.984,0.013,0.000,0.002,-0.010,0.000,0.000,0.000,0.000,0,2,0,1,7,255,1440,300,0,0,-89.350,0.964,-31.492
EX0521-092111,26,C02,prep,420,420,0,1278939.091,0.686,-0.675,0.197,0.187,0,0,0,0,0,0,0,0,0,0.000,0,0,0.338,0.002,0.320,0.040,-0.100,0.014,0.998,0.011,0.000,0.002,-0.010,0.000,0.000,0.000,0.000,0,2,0,1,7,255,1440,300,0,0,-89.350,0.964,-31.492
EX0521-092111,26,C02,prep,420,420,0,1278944.092,0.686,-0.675,0.197,0.187,0,0,0,0,0,0,0,0,0,0.000,0,0,0.104,0.003,-0.100,-0.020,0.020,0.013,0.996,0.010,-0.002,0.002,0.038,0.000,0.000,0.000,0.000,0,2,0,1,7,255,1440,300,0,0,-89.350,0.964,-31.492
EX0521-092111,26,C02,prep,420,420,0,1278949.092,0.686,-0.675,0.197,0.187,0,0,0,0,0,0,0,0,0,0.000,0,0,0.180,0.003,-0.160,-0.080,0.020,0.015,0.988,0.013,-0.002,0.002,0.038,0.000,0.000,0.000,0.000,0,2,0,1,7,255,1440,300,0,0,-89.350,0.964,-31.492
EX0521-092111,26,C02,prep,420,420,0,1278954.093,0.686,-0.675,0.197,0.187,0,0,0,0,0,0,0,0,0,0.000,0,0,0.205,0.010,0.200,-0.020,-0.040,0.015,0.986,0.012,-0.002,-0.010,-0.038,0.000,0.000,0.000,0.000,0,2,0,1,7,255,1440,300,0,0,-89.350,0.964,-31.492
EX0521-092111,26,C02,prep,431,431,0,1278959.092,0.686,-0.675,0.197,0.187,0,0,0,0,0,0,0,0,0,0.000,0,0,0.049,0.010,0.020,-0.020,-0.040,0.014,0.998,0.010,0.000,-0.010,-0.038,0.000,0.000,0.000,0.000,0,2,0,1,7,255,1440,300,0,0,-89.350,0.964,-31.492
EX0521-092111,26,C02,prep,431,431,0,1278964.093,0.686,-0.675,0.197,0.187,0,0,0,0,0,0,0,0,0,0.000,0,0,0.341,0.010,-0.340,-0.020,0.020,0.015,0.991,0.012,0.000,-0.010,-0.004,0.000,0.000,0.000,0.000,0,2,0,1,7,255,1440,300,0,0,-89.350,0.964,-31.492
EX0521-092111,26,C02,prep,453,453,0,1278969.092,0.686,-0.675,0.197,0.187,0,0,0,0,0,0,0,0,0,0.000,0,0,0.092,0.010,0.080,-0.020,-0.040,0.014,0.986,0.013,0.000,-0.010,-0.004,0.000,0.000,0.000,0.000,0,2,0,1,7,255,1440,300,0,0,-89.350,0.964,-31.492
EX0521-092111,26,C02,prep,453,453,0,1278974.092,0.686,-0.675,0.197,0.187,0,0,0,0,0,0,0,0,0,0.000,0,0,0.098,0.010,0.080,0.040,-0.040,0.014,0.997,0.011,0.000,-0.010,-0.004,0.000,0.000,0.000,0.000,0,2,0,1,7,255,1440,300,0,0,-89.350,0.964,-31.492
EX0521-092111,26,C02,prep,453,453,0,1278979.092,0.686,-0.675,0.197,0.187,0,0,0,0,0,0,0,0,0,0.000,0,0,0.247,0.015,-0.220,-0.080,0.080,0.015,0.990,0.013,-0.004,-0.014,-0.018,0.000,0.000,0.000,0.000,0,2,0,1,7,255,1440,300,0,0,-89.350,0.964,-31.492
EX0521-092111,26,C02,prep,453,453,0,1278984.091,0.686,-0.675,0.197,0.187,0,0,0,0,0,0,0,0,0,0.000,0,0,0.143,0.012,0.140,-0.020,0.020,0.015,0.992,0.012,0.000,-0.012,0.006,0.000,0.000,0.000,0.000,0,2,0,1,7,255,1440,300,0,0,-89.350,0.964,-31.492
EX0521-092111,26,C02,prep,453,453,0,1278989.092,0.686,-0.675,0.197,0.187,0,0,0,0,0,0,0,0,0,0.000,0,0,0.147,0.013,0.140,-0.020,-0.040,0.014,0.992,0.011,-0.004,-0.012,0.000,0.000,0.000,0.000,0.000,0,2,0,1,7,255,1440,300,0,0,-89.350,0.964,-31.492
EX0521-092111,26,C02,prep,453,453,0,1278994.092,0.686,-0.675,0.197,0.187,0,0,0,0,0,0,0,0,0,0.000,0,0,0.166,0.009,-0.160,-0.020,-0.040,0.015,0.991,0.012,0.004,-0.008,0.000,0.000,0.000,0.000,0.000,0,2,0,1,7,255,1440,300,0,0,-89.350,0.964,-31.492
EX0521-092111,26,C02,prep,463,463,0,1278999.092,0.686,-0.675,0.197,0.187,0,0,0,0,0,0,0,0,0,0.000,0,0,0.049,0.010,-0.040,-0.020,0.020,0.016,0.993,0.012,0.006,-0.008,0.000,0.000,0.000,0.000,0.000,0,2,0,1,7,255,1440,300,0,0,-89.350,0.964,-31.492
EX0521-092111,26,C02,prep,463,463,0,1279004.091,0.686,-0.675,0.197,0.187,0,0,0,0,0,0,0,0,0,0.000,0,0,0.208,0.010,0.200,0.040,-0.040,0.014,0.991,0.011,0.006,-0.008,-0.004,0.000,0.000,0.000,0.000,0,2,0,1,7,255,1440,300,0,0,-89.350,0.964,-31.492
EX0521-092111,26,C02,prep,487,487,0,1279009.092,0.686,-0.675,0.197,0.187,0,0,0,0,0,0,0,0,0,0.000,0,0,0.110,0.006,-0.100,0.040,0.020,0.014,0.995,0.011,0.002,0.006,0.016,0.000,0.000,0.000,0.000,0,2,0,1,7,255,1440,300,0,0,-89.350,0.964,-31.492
EX0521-092111,26,C02,prep,487,487,0,1279014.091,0.686,-0.675,0.197,0.187,0,0,0,0,0,0,0,0,0,0.000,0,0,0.104,0.006,-0.100,-0.020,0.020,0.014,0.988,0.011,0.002,0.006,-0.004,0.000,0.000,0.000,0.000,0,2,0,1,7,255,1440,300,0,0,-89.350,0.964,-31.492
EX0521-092111,26,C02,prep,487,487,0,1279019.092,0.686,-0.675,0.197,0.187,0,0,0,0,0,0,0,0,0,0.000,0,0,0.147,0.002,0.140,-0.020,-0.040,0.014,0.993,0.011,0.000,0.002,0.014,0.000,0.000,0.000,0.000,0,2,0,1,7,255,1440,300,0,0,-89.350,0.964,-31.492
EX0521-092111,26,C02,prep,487,487,0,1279024.092,0.686,-0.675,0.197,0.187,0,0,0,0,0,0,0,0,0,0.000,0,0,0.110,0.002,-0.100,-0.020,-0.040,0.015,0.992,0.010,0.000,0.002,0.000,0.000,0.000,0.000,0.000,0,2,0,1,7,255,1440,300,0,0,-89.350,0.964,-31.492
EX0521-092111,26,C02,prep,528,528,0,1279029.091,0.686,-0.675,0.197,0.187,0,0,0,0,0,0,0,0,0,0.000,0,0,0.222,0.002,-0.220,-0.020,0.020,0.014,0.993,0.012,0.000,0.002,0.010,0.000,0.000,0.000,0.000,0,2,0,1,7,255,1440,300,0,0,-89.350,0.964,-31.492
EX0521-092111,26,C02,prep,528,528,0,1279034.091,0.686,-0.675,0.197,0.187,0,0,0,0,0,0,0,0,0,0.000,0,0,0.151,0.007,0.140,0.040,-0.040,0.015,0.991,0.011,0.006,0.004,0.000,0.000,0.000,0.000,0.000,0,2,0,1,7,255,1440,300,0,0,-89.350,0.964,-31.492
EX0521-092111,26,C02,prep,528,528,0,1279039.091,0.686,-0.675,0.197,0.187,0,0,0,0,0,0,0,0,0,0.000,0,0,0.035,0.004,0.020,-0.020,0.020,0.015,0.990,0.011,0.004,0.000,-0.004,0.000,0.000,0.000,0.000,0,2,0,1,7,255,1440,300,0,0,-89.350,0.964,-31.492
EX0521-092111,26,C02,prep,528,528,0,1279044.092,0.686,-0.675,0.197,0.187,0,0,0,0,0,0,0,0,0,0.000,0,0,0.180,0.006,-0.160,-0.080,0.020,0.014,0.992,0.011,0.004,0.004,-0.004,0.000,0.000,0.000,0.000,0,2,0,1,7,255,1440,300,0,0,-89.350,0.964,-31.492
EX0521-092111,26,C02,prep,528,528,0,1279049.092,0.686,-0.675,0.197,0.187,0,0,0,0,0,0,0,0,0,0.000,0,0,0.092,0.002,0.080,-0.020,-0.040,0.015,0.992,0.012,-0.002,0.000,0.000,0.000,0.000,0.000,0.000,0,2,0,1,7,255,1440,300,0,0,-89.350,0.964,-31.492
EX0521-092111,26,C02,prep,528,528,0,1279054.093,0.686,-0.675,0.197,0.187,0,0,0,0,0,0,0,0,0,0.000,0,0,0.092,0.006,0.080,0.040,0.020,0.014,0.992,0.011,-0.002,0.006,0.006,0.000,0.000,0.000,0.000,0,2,0,1,7,255,1440,300,0,0,-89.350,0.964,-31.492
EX0521-092111,26,C02,prep,543,543,0,1279059.091,0.686,-0.675,0.197,0.187,0,0,0,0,0,0,0,0,0,0.000,0,0,0.222,0.003,-0.220,-0.020,0.020,0.014,0.991,0.012,-0.002,-0.002,0.000,0.000,0.000,0.000,0.000,0,2,0,1,7,255,1440,300,0,0,-89.350,0.964,-31.492
EX0521-092111,26,C02,prep,543,543,0,1279064.092,0.686,-0.675,0.197,0.187,0,0,0,0,0,0,0,0,0,0.000,0,0,0.060,0.003,-0.040,-0.020,-0.040,0.014,0.991,0.012,-0.002,-0.002,-0.004,0.000,0.000,0.000,0.000,0,2,0,1,7,255,1440,300,0,0,-89.350,0.964,-31.492
EX0521-092111,26,C02,prep,543,543,0,1279069.092,0.686,-0.675,0.197,0.187,0,0,0,0,0,0,0,0,0,0.000,0,0,0.049,0.003,0.020,-0.020,-0.040,0.014,0.991,0.011,-0.002,-0.002,-0.004,0.000,0.000,0.000,0.000,0,2,0,1,7,255,1440,300,0,0,-89.350,0.964,-31.492
EX0521-092111,26,C02,prep,543,543,0,1279074.093,0.686,-0.675,0.197,0.187,0,0,0,0,0,0,0,0,0,0.000,0,0,0.110,0.003,-0.100,-0.020,-0.040,0.014,0.998,0.011,-0.002,0.002,-0.004,0.000,0.000,0.000,0.000,0,2,0,1,7,255,1440,300,0,0,-89.350,0.964,-31.492
EX0521-092111,26,C02,prep,543,543,0,1279079.091,0.686,-0.675,0.197,0.187,0,0,0,0,0,0,0,0,0,0.000,0,0,0.092,0.002,-0.040,-0.080,0.020,0.016,0.982,0.012,0.000,0.002,-0.004,0.000,0.000,0.000,0.000,0,2,0,1,7,255,1440,300,0,0,-89.350,0.964,-31.492
EX0521-092111,26,C02,prep,543,543,0,1279084.091,0.686,-0.675,0.197,0.187,0,0,0,0,0,0,0,0,0,0.000,0,0,0.224,0.000,0.200,-0.020,-0.100,0.013,0.997,0.012,0.000,0.000,0.048,0.000,0.000,0.000,0.000,0,2,0,1,7,255,1440,300,0,0,-89.350,0.964,-31.492
EX0521-092111,26,C02,prep,559,559,0,1279089.092,0.686,-0.675,0.197,0.187,0,0,0,0,0,0,0,0,0,0.000,0,0,0.120,0.004,-0.040,-0.080,0.080,0.015,0.991,0.011,0.004,0.000,-0.004,0.000,0.000,0.000,0.000,0,2,0,1,7,255,1440,300,0,0,-89.350,0.964,-31.492
EX0521-092111,26,C02,prep,559,559,0,1279094.092,0.686,-0.675,0.197,0.187,0,0,0,0,0,0,0,0,0,0.000,0,0,0.110,0.010,-0.100,-0.020,-0.040,0.013,0.995,0.012,-0.010,0.000,0.034,0.000,0.000,0.000,0.000,0,2,0,1,7,255,1440,300,0,0,-89.350,0.964,-31.492
EX0521-092111,26,C02,prep,575,575,0,1279099.092,0.686,-0.675,0.197,0.187,0,0,0,0,0,0,0,0,0,0.000,0,0,0.035,0.000,0.020,-0.020,0.020,0.015,0.984,0.012,0.000,0.000,-0.004,0.000,0.000,0.000,0.000,0,2,0,1,7,255,1440,300,0,0,-89.350,0.964,-31.492
EX0521-092111,26,C02,prep,575,575,0,1279104.091,0.686,-0.675,0.197,0.187,0,0,0,0,0,0,0,0,0,0.000,0,0,0.049,0.011,0.020,-0.020,-0.040,0.013,0.995,0.011,-0.010,0.004,0.034,0.000,0.000,0.000,0.000,0,2,0,1,7,255,1440,300,0,0,-89.350,0.964,-31.492
EX0521-092111,26,C02,prep,575,575,0,1279109.091,0.686,-0.675,0.197,0.187,0,0,0,0,0,0,0,0,0,0.000,0,0,0.180,0.011,-0.160,-0.080,0.020,0.014,0.994,0.012,-0.010,-0.004,0.024,0.000,0.000,0.000,0.000,0,2,0,1,7,255,1440,300,0,0,-89.350,0.964,-31.492
EX0521-092111,26,C02,prep,575,575,0,1279114.092,0.686,-0.675,0.197,0.187,0,0,0,0,0,0,0,0,0,0.000,0,0,0.147,0.012,0.140,-0.020,-0.040,0.014,0.988,0.011,-0.010,0.006,0.024,0.000,0.000,0.000,0.000,0,2,0,1,7,255,1440,300,0,0,-89.350,0.964,-31.492
EX0521-092111,26,C02,prep,591,591,0,1279119.092,0.686,-0.675,0.197,0.187,0,0,0,0,0,0,0,0,0,0.000,0,0,0.035,0.006,0.020,-0.020,0.020,0.014,0.997,0.011,0.002,0.006,0.024,0.000,0.000,0.000,0.000,0,2,0,1,7,255,1440,300,0,0,-89.350,0.964,-31.492
EX0521-092111,26,C02,prep,591,591,0,1279124.092,0.686,-0.675,0.197,0.187,0,0,0,0,0,0,0,0,0,0.000,0,0,0.162,0.006,-0.160,-0.020,0.020,0.014,0.987,0.012,0.002,0.006,-0.032,0.000,0.000,0.000,0.000,0,2,0,1,7,255,1440,300,0,0,-89.350,0.964,-31.492
EX0521-092111,26,C02,prep,591,591,0,1279129.091,0.686,-0.675,0.197,0.187,0,0,0,0,0,0,0,0,0,0.000,0,0,0.098,0.002,0.080,0.040,-0.040,0.014,0.993,0.011,0.000,0.002,0.010,0.000,0.000,0.000,0.000,0,2,0,1,7,255,1440,300,0,0,-89.350,0.964,-31.492
EX0521-092111,26,C02,prep,591,591,0,1279134.091,0.686,-0.675,0.197,0.187,0,0,0,0,0,0,0,0,0,0.000,0,0,0.085,0.002,0.080,-0.020,0.020,0.014,0.992,0.011,0.000,0.002,0.006,0.000,0.000,0.000,0.000,0,2,0,1,7,255,1440,300,0,0,-89.350,0.964,-31.492
EX0521-092111,26,C02,prep,623,623,0,1279139.092,0.686,-0.675,0.197,0.187,0,0,0,0,0,0,0,0,0,0.000,0,0,0.049,0.006,-0.040,-0.020,0.020,0.013,0.990,0.011,0.000,0.006,0.006,0.000,0.000,0.000,0.000,0,2,0,1,7,255,1440,300,0,0,-89.350,0.964,-31.492
EX0521-092111,26,C02,prep,623,623,0,1279144.092,0.686,-0.675,0.197,0.187,0,0,0,0,0,0,0,0,0,0.000,0,0,0.049,0.008,-0.040,-0.020,0.020,0.013,0.992,0.012,-0.006,0.006,0.000,0.000,0.000,0.000,0.000,0,2,0,1,7,255,1440,300,0,0,-89.350,0.964,-31.492
EX0521-092111,26,C02,prep,623,623,0,1279149.093,0.686,-0.675,0.197,0.187,0,1,0,0,0,0,0,0,0,0.000,0,0,0.092,0.006,0.080,-0.020,-0.040,0.014,0.989,0.011,-0.006,0.002,-0.014,0.000,0.000,0.000,0.000,0,2,0,1,7,255,1440,300,0,0,-89.350,0.964,-31.492
EX0521-092111,26,C02,prep,623,623,0,1279154.093,0.686,-0.675,0.197,0.187,0,0,0,0,0,0,0,0,0,0.000,0,0,0.060,0.003,-0.040,0.040,0.020,0.014,0.994,0.011,-0.002,0.002,0.000,0.000,0.000,0.000,0.000,0,2,0,1,7,255,1440,300,0,0,-89.350,0.964,-31.492
EX0521-092111,26,C02,prep,623,623,0,1279159.093,0.686,-0.675,0.197,0.187,0,0,0,0,0,0,0,0,0,0.000,0,0,0.110,0.003,-0.100,-0.020,-0.040,0.014,0.990,0.012,-0.002,0.002,-0.018,0.000,0.000,0.000,0.000,0,2,0,1,7,255,1440,300,0,0,-89.350,0.964,-31.492
EX0521-092111,26,C02,prep,623,623,0,1279164.093,0.686,-0.675,0.197,0.187,0,0,0,0,0,0,0,0,0,0.000,0,0,0.085,0.003,0.080,-0.020,0.020,0.013,0.993,0.012,-0.002,0.002,0.010,0.000,0.000,0.000,0.000,0,2,0,1,7,255,1440,300,0,0,-89.350,0.964,-31.492
EX0521-092111,26,C02,prep,639,639,0,1279169.092,0.686,-0.675,0.197,0.187,0,0,0,0,0,0,0,0,0,0.000,0,0,0.049,0.004,-0.040,-0.020,0.020,0.014,0.990,0.011,-0.004,0.002,-0.014,0.000,0.000,0.000,0.000,0,2,0,1,7,255,1440,300,0,0,-89.350,0.964,-31.492
EX0521-092111,26,C02,prep,639,639,0,1279174.092,0.686,-0.675,0.197,0.187,0,0,0,0,0,0,0,0,0,0.000,0,0,0.110,0.004,-0.100,-0.020,-0.040,0.015,0.993,0.012,-0.004,0.002,0.010,0.000,0.000,0.000,0.000,0,2,0,1,7,255,1440,300,0,0,-89.350,0.964,-31.492
EX0521-092111,26,C02,prep,655,655,0,1279179.091,0.686,-0.675,0.197,0.187,0,0,0,0,0,0,0,0,0,0.000,0,0,0.092,0.004,0.080,-0.020,-0.040,0.014,0.993,0.012,-0.004,0.000,0.010,0.000,0.000,0.000,0.000,0,2,0,1,7,255,1440,300,0,0,-89.350,0.964,-31.492
EX0521-092111,26,C02,prep,655,655,0,1279184.091,0.686,-0.675,0.197,0.187,0,0,0,0,0,0,0,0,0,0.000,0,0,0.035,0.006,0.020,-0.020,0.020,0.014,0.991,0.012,-0.006,0.000,0.010,0.000,0.000,0.000,0.000,0,2,0,1,7,255,1440,300,0,0,-89.350,0.964,-31.492
EX0521-092111,26,C02,prep,655,655,0,1279189.092,0.686,-0.675,0.197,0.187,0,0,0,0,0,0,0,0,0,0.000,0,0,0.130,0.006,-0.100,-0.080,0.020,0.013,0.991,0.012,-0.006,0.000,-0.004,0.000,0.000,0.000,0.000,0,2,0,1,7,255,1440,300,0,0,-89.350,0.964,-31.492
EX0521-092111,26,C02,prep,655,655,0,1279194.092,0.686,-0.675,0.197,0.187,0,0,0,0,0,0,0,0,0,0.000,0,0,0.060,0.006,0.020,0.040,-0.040,0.015,0.992,0.012,-0.006,-0.002,-0.004,0.000,0.000,0.000,0.000,0,2,0,1,7,255,1440,300,0,0,-89.351,0.964,-31.492
EX0521-092111,26,C02,prep,671,671,0,1279199.092,0.686,-0.675,0.197,0.187,0,0,0,0,0,0,0,0,0,0.000,0,0,0.049,0.010,0.020,-0.020,-0.040,0.013,0.994,0.012,-0.010,-0.002,0.000,0.000,0.000,0.000,0.000,0,2,0,1,7,255,1440,300,0,0,-89.351,0.964,-31.492
EX0521-092111,26,C02,prep,671,671,0,1279204.091,0.686,-0.675,0.197,0.187,0,0,0,0,0,0,0,0,0,0.000,0,0,0.049,0.002,-0.040,-0.020,0.020,0.014,0.991,0.011,0.000,0.002,0.000,0.000,0.000,0.000,0.000,0,2,0,1,7,255,1440,300,0,0,-89.351,0.964,-31.492
EX0521-092111,26,C02,prep,687,687,0,1279209.092,0.686,-0.675,0.197,0.187,0,0,0,0,0,0,0,0,0,0.000,0,0,0.035,0.002,0.020,-0.020,0.020,0.014,0.991,0.011,0.000,0.002,-0.004,0.000,0.000,0.000,0.000,0,2,0,1,7,255,1440,300,0,0,-89.351,0.964,-31.492
EX0521-092111,26,C02,prep,687,687,0,1279214.092,0.686,-0.675,0.197,0.187,0,0,0,0,0,0,0,0,0,0.000,0,0,0.104,0.002,0.020,-0.020,-0.100,0.015,0.990,0.012,0.000,0.002,-0.004,0.000,0.000,0.000,0.000,0,2,0,1,7,255,1440,300,0,0,-89.351,0.964,-31.492
EX0521-092111,26,C02,prep,687,687,0,1279219.092,0.686,-0.675,0.197,0.187,0,0,0,0,0,0,0,0,0,0.000,0,0,0.104,0.006,-0.100,-0.020,0.020,0.015,0.992,0.011,0.006,0.000,-0.004,0.000,0.000,0.000,0.000,0,2,0,1,7,255,1440,300,0,0,-89.351,0.964,-31.492
EX0521-092111,26,C02,prep,687,687,0,1279224.091,0.686,-0.675,0.197,0.187,0,0,0,0,0,0,0,0,0,0.000,0,0,0.130,0.006,-0.100,-0.080,0.020,0.014,0.991,0.011,0.006,0.000,-0.008,0.000,0.000,0.000,0.000,0,2,0,1,7,255,1440,300,0,0,-89.351,0.964,-31.492
EX0521-092111,26,C02,prep,703,703,0,1279229.091,0.686,-0.675,0.197,0.187,0,0,0,0,0,0,0,0,0,0.000,0,0,0.049,0.004,0.020,-0.020,-0.040,0.015,0.990,0.012,0.004,0.000,-0.008,0.000,0.000,0.000,0.000,0,2,0,1,7,255,1440,300,0,0,-89.351,0.964,-31.492
EX0521-092111,26,C02,prep,703,703,0,1279234.091,0.686,-0.675,0.197,0.187,0,0,0,0,0,0,0,0,0,0.000,0,0,0.104,0.007,-0.100,-0.020,0.020,0.014,0.991,0.011,0.004,0.006,-0.008,0.000,0.000,0.000,0.000,0,2,0,1,7,255,1440,300,0,0,-89.351,0.964,-31.492
EX0521-092111,26,C02,prep,721,721,0,1279239.092,0.686,-0.675,0.197,0.187,0,0,0,0,0,0,0,0,0,0.000,0,0,0.060,0.006,-0.040,-0.020,-0.040,0.015,0.991,0.013,0.002,-0.006,-0.008,0.000,0.000,0.000,0.000,0,2,0,1,7,255,1440,300,0,0,-89.351,0.964,-31.492
EX0521-092111,26,C02,prep,721,721,0,1279244.092,0.686,-0.675,0.197,0.187,0,0,0,0,0,0,0,0,0,0.000,0,0,0.060,0.004,0.020,0.040,-0.040,0.014,0.992,0.011,0.002,0.004,-0.008,0.000,0.000,0.000,0.000,0,2,0,1,7,255,1440,300,0,0,-89.351,0.964,-31.492
EX0521-092111,26,C02,prep,736,736,0,1279249.092,0.686,-0.675,0.197,0.187,0,0,0,0,0,0,0,0,0,0.000,0,0,0.069,0.006,-0.040,0.040,-0.040,0.013,0.993,0.011,-0.004,0.004,0.006,0.000,0.000,0.000,0.000,0,2,0,1,7,255,1440,300,0,0,-89.351,0.964,-31.492
EX0521-092111,26,C02,prep,736,736,0,1279254.093,0.686,-0.675,0.197,0.187,0,0,0,0,0,0,0,0,0,0.000,0,0,0.060,0.009,-0.040,-0.020,-0.040,0.013,0.993,0.012,-0.008,0.004,0.010,0.000,0.000,0.000,0.000,0,2,0,1,7,255,1440,300,0,0,-89.351,0.964,-31.492
EX0521-092111,26,C02,prep,736,736,0,1279259.091,0.686,-0.675,0.197,0.187,0,0,0,0,0,0,0,0,0,0.000,0,0,0.134,0.008,0.080,0.040,-0.100,0.015,0.992,0.012,-0.008,0.002,0.010,0.000,0.000,0.000,0.000,0,2,0,1,7,255,1440,300,0,0,-89.351,0.964,-31.492
EX0521-092111,26,C02,prep,736,736,0,1279264.092,0.686,-0.675,0.197,0.187,0,0,0,0,0,0,0,0,0,0.000,0,0,0.035,0.002,0.020,-0.020,0.020,0.014,0.991,0.011,0.000,0.002,0.002,0.000,0.000,0.000,0.000,0,2,0,1,7,255,1440,300,0,0,-89.351,0.964,-31.492
EX0521-092111,26,C02,prep,753,753,0,1279269.092,0.686,-0.675,0.197,0.187,0,0,0,0,0,0,0,0,0,0.000,0,0,0.049,0.003,-0.040,-0.020,0.020,0.015,0.991,0.010,0.002,0.002,-0.004,0.000,0.000,0.000,0.000,0,2,0,1,7,255,1440,300,0,0,-89.351,0.964,-31.492
EX0521-092111,26,C02,prep,753,753,0,1279274.091,0.686,-0.675,0.197,0.187,0,0,0,0,0,0,0,0,0,0.000,0,0,0.060,0.009,0.020,0.040,-0.040,0.015,0.992,0.011,0.008,0.004,-0.004,0.000,0.000,0.000,0.000,0,2,0,1,7,255,1440,300,0,0,-89.351,0.964,-31.492
EX0521-092111,26,C02,prep,753,753,0,1279279.091,0.686,-0.675,0.197,0.187,0,0,0,0,0,0,0,0,0,0.000,0,0,0.092,0.010,0.020,-0.080,-0.040,0.013,0.991,0.011,0.008,0.006,-0.008,0.000,0.000,0.000,0.000,0,2,0,1,7,255,1440,300,0,0,-89.351,0.964,-31.492
EX0521-092111,26,C02,prep,753,753,0,1279284.091,0.686,-0.675,0.197,0.187,0,0,0,0,0,0,0,0,0,0.000,0,0,0.035,0.009,0.020,-0.020,0.020,0.013,0.992,0.012,-0.008,0.004,0.002,0.000,0.000,0.000,0.000,0,2,0,1,7,255,1440,300,0,0,-89.351,0.964,-31.492
EX0521-092111,26,C02,prep,753,753,0,1279289.093,0.686,-0.675,0.197,0.187,0,0,0,0,0,0,0,0,0,0.000,0,0,0.049,0.008,-0.040,-0.020,0.020,0.016,0.991,0.011,-0.008,0.002,-0.004,0.000,0.000,0.000,0.000,0,2,0,1,7,255,1440,300,0,0,-89.351,0.964,-31.492
EX0521-092111,26,C02,prep,753,753,0,1279294.092,0.686,-0.675,0.197,0.187,0,0,0,0,0,0,0,0,0,0.000,0,0,0.035,0.002,0.020,-0.020,0.020,0.014,0.992,0.011,0.000,0.002,0.002,0.000,0.000,0.000,0.000,0,2,0,1,7,255,1440,300,0,0,-89.351,0.964,-31.492
EX0521-092111,26,C02,prep,767,767,0,1279299.091,0.686,-0.675,0.197,0.187,0,0,0,0,0,0,0,0,0,0.000,0,0,0.049,0.004,-0.040,-0.020,0.020,0.014,0.992,0.010,0.004,0.002,0.000,0.000,0.000,0.000,0.000,0,2,0,1,7,255,1440,300,0,0,-89.351,0.964,-31.492
EX0521-092111,26,C02,prep,767,767,0,1279304.091,0.686,-0.675,0.197,0.187,0,0,0,0,0,0,0,0,0,0.000,0,0,0.035,0.002,0.020,-0.020,0.020,0.014,0.991,0.012,0.000,0.002,0.000,0.000,0.000,0.000,0.000,0,2,0,1,7,255,1440,300,0,0,-89.351,0.964,-31.492
EX0521-092111,26,C02,prep,786,786,0,1279309.092,0.686,-0.675,0.197,0.187,0,0,0,0,0,0,0,0,0,0.000,0,0,0.049,0.003,0.020,-0.020,-0.040,0.015,0.991,0.013,-0.002,-0.002,-0.004,0.000,0.000,0.000,0.000,0,2,0,1,7,255,1440,300,0,0,-89.351,0.964,-31.492
EX0521-092111,26,C02,prep,786,786,0,1279314.092,0.686,-0.675,0.197,0.187,0,0,0,0,0,0,0,0,0,0.000,0,0,0.049,0.003,-0.040,-0.020,0.020,0.013,0.990,0.011,-0.002,-0.002,-0.008,0.000,0.000,0.000,0.000,0,2,0,1,7,255,1440,300,0,0,-89.351,0.964,-31.492
EX0521-092111,26,C02,prep,786,786,0,1279319.092,0.686,-0.675,0.197,0.187,0,0,0,0,0,0,0,0,0,0.000,0,0,0.092,0.003,-0.040,-0.080,0.020,0.014,0.992,0.011,-0.002,0.002,-0.004,0.000,0.000,0.000,0.000,0,2,0,1,7,255,1440,300,0,0,-89.351,0.964,-31.492
EX0521-092111,26,C02,prep,786,786,0,1279324.091,0.686,-0.675,0.197,0.187,0,0,0,0,0,0,0,0,0,0.000,0,0,0.060,0.002,0.020,0.040,-0.040,0.015,0.991,0.011,0.000,0.002,-0.008,0.000,0.000,0.000,0.000,0,2,0,1,7,255,1440,300,0,0,-89.351,0.964,-31.492
EX0521-092111,26,C02,prep,831,831,0,1279329.091,0.686,-0.675,0.197,0.187,0,0,0,0,0,0,0,0,0,0.000,0,0,0.060,0.002,-0.040,-0.020,-0.040,0.013,0.993,0.011,0.000,0.002,0.002,0.000,0.000,0.000,0.000,0,2,0,1,7,255,1440,300,0,0,-89.351,0.964,-31.492
EX0521-092111,26,C02,prep,831,831,0,1279334.092,0.686,-0.675,0.197,0.187,0,0,0,0,0,0,0,0,0,0.000,0,0,0.049,0.009,-0.040,-0.020,0.020,0.016,0.990,0.011,0.008,-0.004,-0.008,0.000,0.000,0.000,0.000,0,2,0,1,7,255,1440,300,0,0,-89.351,0.964,-31.492
EX0521-092111,26,C02,prep,831,831,0,1279339.092,0.686,-0.675,0.197,0.187,0,0,0,0,0,0,0,0,0,0.000,0,0,0.035,0.006,0.020,-0.020,0.020,0.015,0.991,0.012,0.000,-0.006,-0.004,0.000,0.000,0.000,0.000,0,2,0,1,7,255,1440,300,0,0,-89.351,0.964,-31.492
EX0521-092111,26,C02,prep,831,831,0,1279344.092,0.686,-0.675,0.197,0.187,0,0,0,0,0,0,0,0,0,0.000,0,0,0.035,0.014,0.020,-0.020,0.020,0.016,0.991,0.011,0.012,-0.008,-0.004,0.000,0.000,0.000,0.000,0,2,0,1,7,255,1440,300,0,0,-89.351,0.964,-31.492
EX0521-092111,26,C02,prep,831,831,0,1279349.092,0.686,-0.675,0.197,0.187,0,0,0,0,0,0,0,0,0,0.000,0,0,0.049,0.008,0.020,-0.020,-0.040,0.014,0.992,0.012,0.000,-0.008,-0.004,0.000,0.000,0.000,0.000,0,2,0,1,7,255,1440,300,0,0,-89.351,0.964,-31.492
EX0521-092111,26,C02,prep,831,831,0,1279354.093,0.686,-0.675,0.197,0.187,0,0,0,0,0,0,0,0,0,0.000,0,0,0.060,0.007,0.020,0.040,-0.040,0.014,0.991,0.012,-0.006,-0.004,-0.004,0.000,0.000,0.000,0.000,0,2,0,1,7,255,1440,300,0,0,-89.351,0.964,-31.492
EX0521-092111,26,C02,prep,849,849,0,1279359.093,0.686,-0.675,0.197,0.187,0,0,0,0,0,0,0,0,0,0.000,0,0,0.049,0.006,0.020,-0.020,-0.040,0.014,0.992,0.010,-0.006,0.000,0.002,0.000,0.000,0.000,0.000,0,2,0,1,7,255,1440,300,0,0,-89.351,0.964,-31.492
EX0521-092111,26,C02,prep,849,849,0,1279364.093,0.686,-0.675,0.197,0.187,0,0,0,0,0,0,0,0,0,0.000,0,0,0.060,0.006,-0.040,-0.020,-0.040,0.014,0.992,0.012,-0.006,0.000,0.002,0.000,0.000,0.000,0.000,0,2,0,1,7,255,1440,300,0,0,-89.351,0.964,-31.492
EX0521-092111,26,C02,prep,849,849,0,1279369.092,0.686,-0.675,0.197,0.187,0,0,0,0,0,0,0,0,0,0.000,0,0,0.098,0.006,-0.040,-0.080,-0.040,0.014,0.991,0.013,-0.006,0.000,0.002,0.000,0.000,0.000,0.000,0,2,0,1,7,255,1440,300,0,0,-89.351,0.964,-31.492
EX0521-092111,26,C02,prep,849,849,0,1279374.091,0.686,-0.675,0.197,0.187,0,0,0,0,0,0,0,0,0,0.000,0,0,0.049,0.006,0.020,-0.020,-0.040,0.014,0.991,0.011,-0.006,0.000,-0.004,0.000,0.000,0.000,0.000,0,2,0,1,7,255,1440,300,0,0,-89.351,0.964,-31.492
EX0521-092111,26,C02,prep,849,849,0,1279379.091,0.686,-0.675,0.197,0.187,0,0,0,0,0,0,0,0,0,0.000,0,0,0.060,0.002,-0.040,-0.020,-0.040,0.014,0.992,0.010,0.000,0.002,-0.004,0.000,0.000,0.000,0.000,0,2,0,1,7,255,1440,300,0,0,-89.351,0.964,-31.492
EX0521-092111,26,C02,prep,849,849,0,1279384.092,0.686,-0.675,0.197,0.187,0,0,0,0,0,0,0,0,0,0.000,0,0,0.069,0.002,-0.040,0.040,-0.040,0.014,0.993,0.011,0.000,0.002,0.002,0.000,0.000,0.000,0.000,0,2,0,1,7,255,1440,300,0,0,-89.351,0.964,-31.492
EX0521-092111,26,C02,prep,863,863,0,1279389.092,0.686,-0.675,0.197,0.187,0,0,0,0,0,0,0,0,0,0.000,0,0,0.092,0.002,0.080,-0.020,-0.040,0.014,0.991,0.012,0.000,0.002,0.002,0.000,0.000,0.000,0.000,0,2,0,1,7,255,1440,300,0,0,-89.351,0.964,-31.492
EX0521-092111,26,C02,prep,863,863,0,1279394.092,0.686,-0.675,0.197,0.187,0,0,0,0,0,0,0,0,0,0.000,0,0,0.049,0.002,-0.040,-0.020,0.020,0.015,0.991,0.012,0.000,-0.002,-0.004,0.000,0.000,0.000,0.000,0,2,0,1,7,255,1440,300,0,0,-89.351,0.964,-31.492
EX0521-092111,26,C02,prep,863,863,0,1279399.092,0.686,-0.675,0.197,0.187,0,0,0,0,0,0,0,0,0,0.000,0,0,0.060,0.003,-0.040,-0.020,-0.040,0.014,0.991,0.012,-0.002,-0.002,-0.008,0.000,0.000,0.000,0.000,0,2,0,1,7,255,1440,300,0,0,-89.351,0.964,-31.492
EX0521-092111,26,C02,prep,863,863,0,1279404.091,0.686,-0.675,0.197,0.187,0,0,0,0,0,0,0,0,0,0.000,0,0,0.092,0.004,0.020,0.040,0.080,0.014,0.990,0.012,-0.002,-0.004,-0.008,0.000,0.000,0.000,0.000,0,2,0,1,7,255,1440,300,0,0,-89.351,0.964,-31.492
EX0521-092111,26,C02,prep,887,887,0,1279409.092,0.686,-0.675,0.197,0.187,0,0,0,0,0,0,0,0,0,0.000,0,0,0.035,0.004,0.020,-0.020,0.020,0.015,0.992,0.012,-0.002,-0.004,-0.008,0.000,0.000,0.000,0.000,0,2,0,1,7,255,1440,300,0,0,-89.351,0.964,-31.492
EX0521-092111,26,C02,prep,887,887,0,1279414.092,0.686,-0.675,0.197,0.187,0,0,0,0,0,0,0,0,0,0.000,0,0,0.060,0.004,-0.040,-0.020,-0.040,0.014,0.991,0.011,0.000,-0.004,-0.008,0.000,0.000,0.000,0.000,0,2,0,1,7,255,1440,300,0,0,-89.351,0.964,-31.492
EX0521-092111,26,C02,prep,887,887,0,1279419.092,0.686,-0.675,0.197,0.187,0,0,0,0,0,0,0,0,0,0.000,0,0,0.049,0.008,0.020,-0.020,-0.040,0.014,0.991,0.013,0.000,-0.008,-0.002,0.000,0.000,0.000,0.000,0,2,0,1,7,255,1440,300,0,0,-89.351,0.964,-31.492
EX0521-092111,26,C02,prep,887,887,0,1279424.091,0.686,-0.675,0.197,0.187,0,0,0,0,0,0,0,0,0,0.000,0,0,0.049,0.004,-0.040,-0.020,0.020,0.014,0.993,0.011,-0.004,0.002,-0.002,0.000,0.000,0.000,0.000,0,2,0,1,7,255,1440,300,0,0,-89.351,0.964,-31.492
EX0521-092111,26,C02,prep,895,895,0,1279429.091,0.686,-0.675,0.197,0.187,0,0,0,0,0,0,0,0,0,0.000,0,0,0.060,0.009,-0.040,-0.020,-0.040,0.016,0.992,0.012,-0.004,-0.008,0.006,0.000,0.000,0.000,0.000,0,2,0,1,7,255,1440,300,0,0,-89.351,0.964,-31.492
EX0521-092111,26,C02,prep,895,895,0,1279434.092,0.686,-0.675,0.197,0.187,0,0,0,0,0,0,0,0,0,0.000,0,0,0.060,0.007,-0.040,-0.020,-0.040,0.014,0.991,0.012,-0.004,-0.006,0.006,0.000,0.000,0.000,0.000,0,2,0,1,7,255,1440,300,0,0,-89.351,0.964,-31.492
EX0521-092111,26,C02,prep,922,922,0,1279439.092,0.686,-0.675,0.197,0.187,0,0,0,0,0,0,0,0,0,0.000,0,0,0.035,0.006,0.020,-0.020,0.020,0.014,0.992,0.011,0.000,-0.006,0.006,0.000,0.000,0.000,0.000,0,2,0,1,7,255,1440,300,0,0,-89.351,0.964,-31.492
EX0521-092111,26,C02,prep,922,922,0,1279444.092,0.686,-0.675,0.197,0.187,0,0,0,0,0,0,0,0,0,0.000,0,0,0.104,0.000,-0.100,-0.020,0.020,0.015,0.991,0.011,0.000,0.000,-0.004,0.000,0.000,0.000,0.000,0,2,0,1,7,255,1440,300,0,0,-89.351,0.964,-31.492
EX0521-092111,26,C02,prep,927,927,0,1279449.092,0.686,-0.675,0.197,0.187,0,0,0,0,0,0,0,0,0,0.000,0,0,0.060,0.000,-0.040,-0.020,-0.040,0.014,0.991,0.012,0.000,0.000,-0.004,0.000,0.000,0.000,0.000,0,2,0,1,7,255,1440,300,0,0,-89.351,0.964,-31.492
EX0521-092111,26,C02,prep,927,927,0,1279454.093,0.686,-0.675,0.197,0.187,0,0,0,0,0,0,0,0,0,0.000,0,0,0.049,0.004,0.020,-0.020,-0.040,0.014,0.991,0.011,0.004,0.000,-0.008,0.000,0.000,0.000,0.000,0,2,0,1,7,255,1440,300,0,0,-89.351,0.964,-31.492
EX0521-092111,26,C02,prep,927,927,0,1279459.092,0.686,-0.675,0.197,0.187,0,0,0,0,0,0,0,0,0,0.000,0,0,0.035,0.010,0.020,-0.020,0.020,0.013,0.992,0.012,-0.008,0.006,-0.004,0.000,0.000,0.000,0.000,0,2,0,1,7,255,1440,300,0,0,-89.351,0.964,-31.492
EX0521-092111,26,C02,prep,927,927,0,1279464.092,0.686,-0.675,0.197,0.187,0,0,0,0,0,0,0,0,0,0.000,0,0,0.035,0.010,0.020,-0.020,0.020,0.013,0.990,0.011,-0.008,0.006,-0.008,0.000,0.000,0.000,0.000,0,2,0,1,7,255,1440,300,0,0,-89.351,0.964,-31.492
EX0521-092111,26,C02,prep,953,953,0,1279469.092,0.686,-0.675,0.197,0.187,0,0,0,0,0,0,0,0,0,0.000,0,0,0.049,0.010,0.020,-0.020,-0.040,0.014,0.991,0.011,-0.008,0.006,-0.002,0.000,0.000,0.000,0.000,0,2,0,1,7,255,1440,300,0,0,-89.351,0.964,-31.492
EX0521-092111,26,C02,prep,953,953,0,1279474.091,0.686,-0.675,0.197,0.187,0,0,0,0,0,0,0,0,0,0.000,0,0,0.049,0.007,0.020,-0.020,-0.040,0.015,0.992,0.011,0.004,0.006,-0.002,0.000,0.000,0.000,0.000,0,2,0,1,7,255,1440,300,0,0,-89.351,0.964,-31.492
EX0521-092111,26,C02,prep,953,953,0,1279479.091,0.686,-0.675,0.197,0.187,0,0,0,0,0,0,0,0,0,0.000,0,0,0.060,0.006,-0.040,-0.020,-0.040,0.014,0.990,0.011,0.004,0.004,-0.002,0.000,0.000,0.000,0.000,0,2,0,1,7,255,1440,300,0,0,-89.351,0.964,-31.492
EX0521-092111,26,C02,prep,953,953,0,1279484.092,0.686,-0.675,0.197,0.187,0,0,0,0,0,0,0,0,0,0.000,0,0,0.060,0.003,-0.040,-0.020,-0.040,0.014,0.993,0.012,0.002,0.002,0.002,0.000,0.000,0.000,0.000,0,2,0,1,7,255,1440,300,0,0,-89.351,0.964,-31.492
EX0521-092111,26,C02,prep,953,953,0,1279489.093,0.686,-0.675,0.197,0.187,0,0,0,0,0,0,0,0,0,0.000,0,0,0.035,0.003,0.020,-0.020,0.020,0.014,0.990,0.011,0.002,0.002,-0.018,0.000,0.000,0.000,0.000,0,2,0,1,7,255,1440,300,0,0,-89.351,0.964,-31.492
EX0521-092111,26,C02,prep,953,953,0,1279494.092,0.686,-0.675,0.197,0.187,0,0,0,0,0,0,0,0,0,0.000,0,0,0.092,0.006,-0.040,-0.080,0.020,0.014,0.991,0.012,-0.006,0.000,-0.008,0.000,0.000,0.000,0.000,0,2,0,1,7,255,1440,300,0,0,-89.351,0.964,-31.492
EX0521-092111,26,C02,prep,960,960,0,1279499.091,0.686,-0.675,0.197,0.187,0,0,0,0,0,0,0,0,0,0.000,0,0,0.060,0.009,-0.040,-0.020,-0.040,0.014,0.990,0.012,-0.008,-0.004,-0.012,0.000,0.000,0.000,0.000,0,2,0,1,7,255,1440,300,0,0,-89.351,0.964,-31.492
EX0521-092111,26,C02,prep,960,960,0,1279504.091,0.686,-0.675,0.197,0.187,0,0,0,0,0,0,0,0,0,0.000,0,0,0.092,0.009,-0.040,-0.080,0.020,0.014,0.992,0.011,-0.008,-0.004,-0.008,0.000,0.000,0.000,0.000,0,2,0,1,7,255,1440,300,0,0,-89.351,0.964,-31.492
EX0521-092111,26,C02,prep,976,976,0,1279509.092,0.686,-0.675,0.197,0.187,0,0,0,0,0,0,0,0,0,0.000,0,0,0.049,0.003,0.020,-0.020,-0.040,0.014,0.991,0.011,0.002,0.002,-0.002,0.000,0.000,0.000,0.000,0,2,0,1,7,255,1440,300,0,0,-89.351,0.964,-31.492
EX0521-092111,26,C02,prep,976,976,0,1279514.092,0.686,-0.675,0.197,0.187,0,0,0,0,0,0,0,0,0,0.000,0,0,0.035,0.006,0.020,-0.020,0.020,0.014,0.991,0.011,0.002,0.006,-0.002,0.000,0.000,0.000,0.000,0,2,0,1,7,255,1440,300,0,0,-89.351,0.964,-31.492
EX0521-092111,26,C02,prep,991,991,0,1279519.092,0.686,-0.675,0.197,0.187,0,0,0,0,0,0,0,0,0,0.000,0,0,0.060,0.007,-0.040,-0.020,-0.040,0.015,0.992,0.012,0.004,0.006,-0.002,0.000,0.000,0.000,0.000,0,2,0,1,7,255,1440,300,0,0,-89.351,0.964,-31.492
EX0521-092111,26,C02,prep,991,991,0,1279524.091,0.686,-0.675,0.197,0.187,0,0,0,0,0,0,0,0,0,0.000,0,0,0.060,0.013,-0.040,-0.020,-0.040,0.016,0.992,0.012,0.004,-0.012,0.002,0.000,0.000,0.000,0.000,0,2,0,1,7,255,1440,300,0,0,-89.351,0.964,-31.492
EX0521-092111,26,C02,prep,991,991,0,1279529.091,0.686,-0.675,0.197,0.187,0,0,0,0,0,0,0,0,0,0.000,0,0,0.049,0.013,0.020,-0.020,-0.040,0.014,0.991,0.012,0.004,-0.012,0.002,0.000,0.000,0.000,0.000,0,2,0,1,7,255,1440,300,0,0,-89.351,0.964,-31.492
EX0521-092111,26,C02,prep,991,991,0,1279534.092,0.686,-0.675,0.197,0.187,0,0,0,0,0,0,0,0,0,0.000,0,0,0.098,0.003,-0.040,-0.080,-0.040,0.014,0.991,0.012,-0.002,-0.002,-0.002,0.000,0.000,0.000,0.000,0,2,0,1,7,255,1440,300,0,0,-89.351,0.964,-31.492
EX0521-092111,26,C02,prep,1023,1023,0,1279539.092,0.686,-0.675,0.197,0.187,0,0,0,0,0,0,0,0,0,0.000,0,0,0.049,0.003,0.020,-0.020,-0.040,0.014,0.992,0.011,-0.002,-0.002,-0.002,0.000,0.000,0.000,0.000,0,2,0,1,7,255,1440,300,0,0,-89.351,0.964,-31.492
EX0521-092111,26,C02,prep,1023,1023,0,1279544.092,0.686,-0.675,0.197,0.187,0,0,0,0,0,0,0,0,0,0.000,0,0,0.060,0.004,-0.040,-0.020,-0.040,0.015,0.991,0.011,0.004,-0.002,-0.002,0.000,0.000,0.000,0.000,0,2,0,1,7,255,1440,300,0,0,-89.351,0.964,-31.492
EX0521-092111,26,C02,prep,1023,1023,0,1279549.092,0.686,-0.675,0.197,0.187,0,0,0,0,0,0,0,0,0,0.000,0,0,0.049,0.006,0.020,-0.020,-0.040,0.015,0.991,0.012,0.004,-0.004,-0.002,0.000,0.000,0.000,0.000,0,2,0,1,7,255,1440,300,0,0,-89.351,0.964,-31.492
EX0521-092111,26,C02,prep,1023,1023,0,1279554.093,0.686,-0.675,0.197,0.187,0,0,0,0,0,0,0,0,0,0.000,0,0,0.049,0.007,0.020,-0.020,-0.040,0.014,0.993,0.010,0.006,-0.004,-0.002,0.000,0.000,0.000,0.000,0,2,0,1,7,255,1440,300,0,0,-89.351,0.964,-31.492
EX0521-092111,26,C02,prep,1023,1023,0,1279559.093,0.686,-0.675,0.197,0.187,0,0,0,0,0,0,0,0,0,0.000,0,0,0.060,0.003,-0.040,-0.020,-0.040,0.014,0.992,0.011,0.002,0.002,0.002,0.000,0.000,0.000,0.000,0,2,0,1,7,255,1440,300,0,0,-89.351,0.964,-31.492
EX0521-092111,26,C02,prep,1023,1023,0,1279564.093,0.686,-0.675,0.197,0.187,0,0,0,0,0,0,0,0,0,0.000,0,0,0.049,0.004,0.020,-0.020,-0.040,0.014,0.990,0.011,0.000,0.004,0.002,0.000,0.000,0.000,0.000,0,2,0,1,7,255,1440,300,0,0,-89.351,0.964,-31.492
EX0521-092111,26,C02,prep,1055,1055,0,1279569.091,0.686,-0.675,0.197,0.187,0,0,0,0,0,0,0,0,0,0.000,0,0,0.060,0.002,-0.040,-0.020,-0.040,0.015,0.991,0.011,0.000,0.002,-0.008,0.000,0.000,0.000,0.000,0,2,0,1,7,255,1440,300,0,0,-89.351,0.964,-31.492
EX0521-092111,26,C02,prep,1055,1055,0,1279574.091,0.686,-0.675,0.197,0.187,0,0,0,0,0,0,0,0,0,0.000,0,0,0.035,0.006,0.020,-0.020,0.020,0.013,0.991,0.012,-0.004,0.004,-0.008,0.000,0.000,0.000,0.000,0,2,0,1,7,255,1440,300,0,0,-89.351,0.964,-31.492
EX0521-092111,26,C02,prep,1055,1055,0,1279579.091,0.686,-0.675,0.197,0.187,0,0,0,0,0,0,0,0,0,0.000,0,0,0.049,0.003,0.020,-0.020,-0.040,0.014,0.991,0.012,-0.002,-0.002,-0.008,0.000,0.000,0.000,0.000,0,2,0,1,7,255,1440,300,0,0,-89.351,0.964,-31.492
EX0521-092111,26,C02,prep,1055,1055,0,1279584.092,0.686,-0.675,0.197,0.187,0,0,0,0,0,0,0,0,0,0.000,0,0,0.049,0.003,0.020,-0.020,-0.040,0.014,0.991,0.011,-0.002,0.002,-0.008,0.000,0.000,0.000,0.000,0,2,0,1,7,255,1440,300,0,0,-89.351,0.964,-31.492
EX0521-092111,26,C02,prep,1055,1055,0,1279589.093,0.686,-0.675,0.197,0.187,0,0,0,0,0,0,0,0,0,0.000,0,0,0.060,0.002,-0.040,-0.020,-0.040,0.015,0.991,0.011,0.000,-0.002,-0.006,0.000,0.000,0.000,0.000,0,2,0,1,7,255,1440,300,0,0,-89.351,0.964,-31.492
EX0521-092111,26,C02,prep,1055,1055,0,1279594.091,0.686,-0.675,0.197,0.187,0,0,0,0,0,0,0,0,0,0.000,0,0,0.049,0.002,-0.040,-0.020,0.020,0.013,0.992,0.012,0.000,-0.002,-0.002,0.000,0.000,0.000,0.000,0,2,0,1,7,255,1440,300,0,0,-89.351,0.964,-31.492
EX0521-092111,26,C02,prep,1071,1071,0,1279599.091,0.686,-0.675,0.197,0.187,0,0,0,0,0,0,0,0,0,0.000,0,0,0.060,0.004,-0.040,-0.020,-0.040,0.015,0.992,0.012,0.002,-0.004,0.002,0.000,0.000,0.000,0.000,0,2,0,1,7,255,1440,300,0,0,-89.351,0.964,-31.492
EX0521-092111,26,C02,prep,1071,1071,0,1279604.092,0.686,-0.675,0.197,0.187,0,0,0,0,0,0,0,0,0,0.000,0,0,0.060,0.004,-0.040,-0.020,-0.040,0.014,0.992,0.011,-0.004,-0.002,0.002,0.000,0.000,0.000,0.000,0,2,0,1,7,255,1440,300,0,0,-89.351,0.964,-31.492
EX0521-092111,26,C02,prep,1071,1071,0,1279609.092,0.686,-0.675,0.197,0.187,0,0,0,0,0,0,0,0,0,0.000,0,0,0.092,0.004,0.020,-0.080,-0.040,0.014,0.991,0.011,0.002,0.004,0.002,0.000,0.000,0.000,0.000,0,2,0,1,7,255,1440,300,0,0,-89.351,0.964,-31.492
EX0521-092111,26,C02,prep,1071,1071,0,1279614.092,0.686,-0.675,0.197,0.187,0,0,0,0,0,0,0,0,0,0.000,0,0,0.049,0.006,0.020,-0.020,-0.040,0.014,0.993,0.011,0.000,0.006,0.002,0.000,0.000,0.000,0.000,0,2,0,1,7,255,1440,300,0,0,-89.351,0.964,-31.492
EX0521-092111,26,C02,prep,1087,1087,0,1279619.092,0.686,-0.675,0.197,0.187,0,0,0,0,0,0,0,0,0,0.000,0,0,0.035,0.006,0.020,-0.020,0.020,0.013,0.992,0.012,0.000,0.006,0.002,0.000,0.000,0.000,0.000,0,2,0,1,7,255,1440,300,0,0,-89.351,0.964,-31.492
EX0521-092111,26,C02,prep,1087,1087,0,1279624.091,0.686,-0.675,0.197,0.187,0,0,0,0,0,0,0,0,0,0.000,0,0,0.049,0.004,-0.040,-0.020,0.020,0.014,0.990,0.012,-0.004,0.002,0.002,0.000,0.000,0.000,0.000,0,2,0,1,7,255,1440,300,0,0,-89.351,0.964,-31.492
EX0521-092111,26,C02,prep,1103,1103,0,1279629.091,0.686,-0.675,0.197,0.187,0,0,0,0,0,0,0,0,0,0.000,0,0,0.060,0.006,0.020,0.040,-0.040,0.015,0.992,0.012,-0.004,-0.004,0.002,0.000,0.000,0.000,0.000,0,2,0,1,7,255,1440,300,0,0,-89.351,0.964,-31.492
EX0521-092111,26,C02,prep,1103,1103,0,1279634.092,0.686,-0.675,0.197,0.187,0,0,0,0,0,0,0,0,0,0.000,0,0,0.060,0.004,-0.040,-0.020,-0.040,0.015,0.992,0.011,0.002,-0.004,0.002,0.000,0.000,0.000,0.000,0,2,0,1,7,255,1440,300,0,0,-89.351,0.964,-31.492
EX0521-092111,26,C02,prep,1135,1135,0,1279639.092,0.686,-0.675,0.197,0.187,0,0,0,0,0,0,0,0,0,0.000,0,0,0.049,0.004,0.020,-0.020,-0.040,0.015,0.992,0.012,0.002,-0.004,0.002,0.000,0.000,0.000,0.000,0,2,0,1,7,255,1440,300,0,0,-89.351,0.964,-31.492
EX0521-092111,26,C02,prep,1135,1135,0,1279644.091,0.686,-0.675,0.197,0.187,0,0,0,0,0,0,0,0,0,0.000,0,0,0.049,0.002,0.020,-0.020,-0.040,0.014,0.991,0.012,0.002,0.000,0.002,0.000,0.000,0.000,0.000,0,2,0,1,7,255,1440,300,0,0,-89.351,0.964,-31.492
EX0521-092111,26,C02,prep,1135,1135,0,1279649.092,0.686,-0.675,0.197,0.187,0,0,0,0,0,0,0,0,0,0.000,0,0,0.035,0.002,0.020,-0.020,0.020,0.015,0.992,0.011,0.002,0.000,0.008,0.000,0.000,0.000,0.000,0,2,0,1,7,255,1440,300,0,0,-89.351,0.964,-31.492
EX0521-092111,26,C02,prep,1135,1135,0,1279654.093,0.686,-0.675,0.197,0.187,0,0,0,0,0,0,0,0,0,0.000,0,0,0.092,0.006,-0.040,-0.080,0.020,0.014,0.992,0.011,-0.004,0.004,0.002,0.000,0.000,0.000,0.000,0,2,0,1,7,255,1440,300,0,0,-89.351,0.964,-31.492
EX0521-092111,26,C02,prep,1135,1135,0,1279659.092,0.686,-0.675,0.197,0.187,0,0,0,0,0,0,0,0,0,0.000,0,0,0.049,0.006,0.020,-0.020,-0.040,0.015,0.993,0.011,0.004,0.004,0.008,0.000,0.000,0.000,0.000,0,2,0,1,7,255,1440,300,0,0,-89.351,0.964,-31.492
EX0521-092111,26,C02,prep,1135,1135,0,1279664.092,0.686,-0.675,0.197,0.187,0,0,0,0,0,0,0,0,0,0.000,0,0,0.049,0.004,0.020,-0.020,-0.040,0.014,0.986,0.011,-0.002,0.004,0.002,0.000,0.000,0.000,0.000,0,2,0,1,7,255,1440,300,0,0,-89.351,0.964,-31.492
EX0521-092111,26,C02,prep,1151,1151,0,1279669.092,0.686,-0.675,0.197,0.187,0,0,0,0,0,0,0,0,0,0.000,0,0,0.049,0.004,0.020,-0.020,-0.040,0.015,0.995,0.011,0.004,0.000,0.012,0.000,0.000,0.000,0.000,0,2,0,1,7,255,1440,300,0,0,-89.351,0.964,-31.492
EX0521-092111,26,C02,prep,1151,1151,0,1279674.091,0.686,-0.675,0.197,0.187,0,0,0,0,0,0,0,0,0,0.000,0,0,0.049,0.004,0.020,-0.020,-0.040,0.014,1.000,0.011,0.002,0.004,0.032,0.000,0.000,0.000,0.000,0,2,0,1,7,255,1440,300,0,0,-89.351,0.964,-31.492
EX0521-092111,26,C02,prep,1151,1151,0,1279679.092,0.686,-0.675,0.197,0.187,0,0,0,0,0,0,0,0,0,0.000,0,0,0.035,0.002,0.020,-0.020,0.020,0.015,0.983,0.012,0.002,0.000,0.032,0.000,0.000,0.000,0.000,0,2,0,1,7,255,1440,300,0,0,-89.351,0.964,-31.492
EX0521-092111,26,C02,prep,1151,1151,0,1279684.092,0.686,-0.675,0.197,0.187,0,0,0,0,0,0,0,0,0,0.000,0,0,0.092,0.008,0.080,-0.020,-0.040,0.014,0.990,0.010,0.002,0.008,-0.012,0.000,0.000,0.000,0.000,0,2,0,1,7,255,1440,300,0,0,-89.351,0.964,-31.492
EX0521-092111,26,C02,prep,1168,1168,0,1279689.092,0.686,-0.675,0.197,0.187,0,0,0,0,0,0,0,0,0,0.000,0,0,0.035,0.006,0.020,-0.020,0.020,0.014,1.000,0.011,0.002,0.006,-0.012,0.000,0.000,0.000,0.000,0,2,0,1,7,255,1440,300,0,0,-89.351,0.964,-31.492
EX0521-092111,26,C02,prep,1168,1168,0,1279694.091,0.686,-0.675,0.197,0.187,0,0,0,0,0,0,0,0,0,0.000,0,0,0.049,0.006,-0.040,-0.020,0.020,0.014,0.992,0.012,-0.002,0.006,0.006,0.000,0.000,0.000,0.000,0,2,0,1,7,255,1440,300,0,0,-89.351,0.964,-31.492
EX0521-092111,26,C02,prep,1168,1168,0,1279699.091,0.686,-0.675,0.197,0.187,0,0,0,0,0,0,0,0,0,0.000,0,0,0.049,0.004,-0.040,-0.020,0.020,0.014,0.989,0.012,-0.004,-0.002,0.006,0.000,0.000,0.000,0.000,0,2,0,1,7,255,1440,300,0,0,-89.351,0.964,-31.492
EX0521-092111,26,C02,prep,1168,1168,0,1279704.092,0.686,-0.675,0.197,0.187,0,0,0,0,0,0,0,0,0,0.000,0,0,0.060,0.003,-0.040,-0.020,-0.040,0.014,0.994,0.011,-0.002,-0.002,0.006,0.000,0.000,0.000,0.000,0,2,0,1,7,255,1440,300,0,0,-89.351,0.964,-31.492
EX0521-092111,26,C02,prep,1169,1169,0,1279709.092,0.686,-0.675,0.197,0.187,0,0,0,0,0,0,0,0,0,0.000,0,0,0.092,0.004,-0.040,-0.020,0.080,0.016,0.988,0.011,0.004,-0.002,-0.022,0.000,0.000,0.000,0.000,0,2,0,1,7,255,1440,300,0,0,-89.351,0.964,-31.492
EX0521-092111,26,C02,prep,1169,1169,0,1279714.092,0.686,-0.675,0.197,0.187,0,0,0,0,0,0,0,0,0,0.000,0,0,0.092,0.006,0.080,-0.020,-0.040,0.014,0.989,0.011,0.004,0.004,-0.026,0.000,0.000,0.000,0.000,0,2,0,1,7,255,1440,300,0,0,-89.351,0.964,-31.492
EX0521-092111,26,C02,prep,1185,1185,0,1279719.091,0.686,-0.675,0.197,0.187,0,0,0,0,0,0,0,0,0,0.000,0,0,0.060,0.013,-0.040,-0.020,-0.040,0.015,1.000,0.010,0.012,0.004,-0.026,0.000,0.000,0.000,0.000,0,2,0,1,7,255,1440,300,0,0,-89.351,0.964,-31.492
EX0521-092111,26,C02,prep,1185,1185,0,1279724.091,0.686,-0.675,0.197,0.187,0,0,0,0,0,0,0,0,0,0.000,0,0,0.049,0.006,-0.040,-0.020,0.020,0.014,0.989,0.012,0.004,0.004,-0.022,0.000,0.000,0.000,0.000,0,2,0,1,7,255,1440,300,0,0,-89.351,0.964,-31.492
EX0521-092111,26,C02,prep,1199,1199,0,1279729.091,0.686,-0.675,0.197,0.187,0,0,0,0,0,0,0,0,0,0.000,0,0,0.049,0.004,0.020,-0.020,-0.040,0.014,0.988,0.013,-0.002,-0.004,-0.022,0.000,0.000,0.000,0.000,0,2,0,1,7,255,1440,300,0,0,-89.351,0.965,-31.492
EX0521-092111,26,C02,prep,1199,1199,0,1279734.092,0.686,-0.675,0.197,0.187,0,0,0,0,0,0,0,0,0,0.000,0,0,0.049,0.006,-0.040,-0.020,0.020,0.015,0.991,0.012,-0.002,-0.006,-0.022,0.000,0.000,0.000,0.000,0,2,0,1,7,255,1440,300,0,0,-89.351,0.965,-31.492
EX0521-092111,26,C02,prep,1223,1223,0,1279739.092,0.686,-0.675,0.197,0.187,0,0,0,0,0,0,0,0,0,0.000,0,0,0.035,0.006,0.020,-0.020,0.020,0.015,0.989,0.012,0.002,-0.006,-0.022,0.000,0.000,0.000,0.000,0,2,0,1,7,255,1440,300,0,0,-89.351,0.965,-31.492
EX0521-092111,26,C02,prep,1223,1223,0,1279744.091,0.686,-0.675,0.197,0.187,0,0,0,0,0,0,0,0,0,0.000,0,0,0.085,0.006,0.080,-0.020,0.020,0.014,1.005,0.010,0.002,-0.006,-0.002,0.000,0.000,0.000,0.000,0,2,0,1,7,255,1440,300,0,0,-89.351,0.965,-31.492
EX0521-092111,26,C02,prep,1231,1231,0,1279749.092,0.686,-0.675,0.197,0.187,0,0,0,0,0,0,0,0,0,0.000,0,0,0.130,0.006,-0.100,-0.020,0.080,0.015,0.985,0.013,0.002,-0.006,-0.022,0.000,0.000,0.000,0.000,0,2,0,1,7,255,1440,300,0,0,-89.351,0.965,-31.492
EX0521-092111,26,C02,prep,1231,1231,0,1279754.093,0.686,-0.675,0.197,0.187,0,0,0,0,0,0,0,0,0,0.000,0,0,0.104,0.012,0.020,-0.020,-0.100,0.015,0.984,0.012,0.002,-0.012,-0.060,0.000,0.000,0.000,0.000,0,2,0,1,7,255,1440,300,0,0,-89.351,0.965,-31.492
EX0521-092111,26,C02,prep,1231,1231,0,1279759.092,0.686,-0.675,0.197,0.187,0,0,0,0,0,0,0,0,0,0.000,0,0,0.092,0.013,0.080,-0.020,-0.040,0.015,0.999,0.010,0.004,-0.012,-0.060,0.000,0.000,0.000,0.000,0,2,0,1,7,255,1440,300,0,0,-89.351,0.965,-31.492
EX0521-092111,26,C02,prep,1231,1231,0,1279764.093,0.686,-0.675,0.197,0.187,0,0,0,0,0,0,0,0,0,0.000,0,0,0.049,0.011,-0.040,-0.020,0.020,0.014,0.994,0.009,0.008,0.008,0.020,0.000,0.000,0.000,0.000,0,2,0,1,7,255,1440,300,0,0,-89.351,0.965,-31.492
EX0521-092111,26,C02,prep,1251,1251,0,1279769.091,0.686,-0.675,0.197,0.187,0,0,0,0,0,0,0,0,0,0.000,0,0,0.060,0.011,-0.040,-0.020,-0.040,0.014,0.989,0.012,0.008,0.008,0.020,0.000,0.000,0.000,0.000,0,2,0,1,7,255,1440,300,0,0,-89.351,0.965,-31.492
EX0521-092111,26,C02,prep,1251,1251,0,1279774.091,0.686,-0.675,0.197,0.187,0,0,0,0,0,0,0,0,0,0.000,0,0,0.049,0.004,-0.040,-0.020,0.020,0.014,0.992,0.013,-0.002,-0.004,0.002,0.000,0.000,0.000,0.000,0,2,0,1,7,255,1440,300,0,0,-89.351,0.965,-31.492
EX0521-092111,26,C02,prep,1251,1251,0,1279779.092,0.686,-0.675,0.197,0.187,0,0,0,0,0,0,0,0,0,0.000,0,0,0.049,0.004,-0.040,-0.020,0.020,0.015,0.994,0.012,-0.002,-0.004,0.002,0.000,0.000,0.000,0.000,0,2,0,1,7,255,1440,300,0,0,-89.351,0.965,-31.492
EX0521-092111,26,C02,prep,1251,1251,0,1279784.092,0.686,-0.675,0.197,0.187,0,0,0,0,0,0,0,0,0,0.000,0,0,0.049,0.006,-0.040,-0.020,0.020,0.014,0.995,0.011,-0.004,-0.004,0.020,0.000,0.000,0.000,0.000,0,2,0,1,7,255,1440,300,0,0,-89.351,0.965,-31.492
EX0521-092111,26,C02,prep,1251,1251,0,1279789.092,0.686,-0.675,0.197,0.187,0,0,0,0,0,0,0,0,0,0.000,0,0,0.049,0.004,0.020,0.040,0.020,0.015,0.986,0.012,0.000,-0.004,0.020,0.000,0.000,0.000,0.000,0,2,0,1,7,255,1440,300,0,0,-89.351,0.965,-31.492
EX0521-092111,26,C02,prep,1251,1251,0,1279794.091,0.686,-0.675,0.197,0.187,0,0,0,0,0,0,0,0,0,0.000,0,0,0.098,0.000,0.080,0.040,-0.040,0.015,0.988,0.011,0.000,0.000,-0.032,0.000,0.000,0.000,0.000,0,2,0,1,7,255,1440,300,0,0,-89.351,0.965,-31.492
EX0521-092111,26,C02,prep,1264,1264,0,1279799.091,0.686,-0.675,0.197,0.187,0,0,0,0,0,0,0,0,0,0.000,0,0,0.143,0.004,0.140,-0.020,0.020,0.015,0.993,0.011,0.004,0.000,-0.032,0.000,0.000,0.000,0.000,0,2,0,1,7,255,1440,300,0,0,-89.351,0.965,-31.492
EX0521-092111,26,C02,prep,1264,1264,0,1279804.091,0.686,-0.675,0.197,0.187,0,0,0,0,0,0,0,0,0,0.000,0,0,0.060,0.004,-0.040,-0.020,-0.040,0.014,1.000,0.012,0.004,0.000,0.016,0.000,0.000,0.000,0.000,0,2,0,1,7,255,1440,300,0,0,-89.351,0.965,-31.492
EX0521-092111,26,C02,prep,1281,1281,0,1279809.092,0.686,-0.675,0.197,0.187,0,0,0,0,0,0,0,0,0,0.000,0,0,0.060,0.006,-0.040,-0.020,-0.040,0.014,0.992,0.012,-0.006,0.000,0.016,0.000,0.000,0.000,0.000,0,2,0,1,7,255,1440,300,0,0,-89.351,0.965,-31.492
EX0521-092111,26,C02,prep,1281,1281,0,1279814.092,0.686,-0.675,0.197,0.187,0,0,0,0,0,0,0,0,0,0.000,0,0,0.035,0.006,0.020,-0.020,0.020,0.015,0.988,0.010,-0.006,0.000,0.006,0.000,0.000,0.000,0.000,0,2,0,1,7,255,1440,300,0,0,-89.351,0.965,-31.492
EX0521-092111,26,C02,prep,1281,1281,0,1279819.092,0.686,-0.675,0.197,0.187,0,0,0,0,0,0,0,0,0,0.000,0,0,0.049,0.006,0.020,-0.020,-0.040,0.014,0.988,0.010,0.002,0.006,-0.032,0.000,0.000,0.000,0.000,0,2,0,1,7,255,1440,300,0,0,-89.351,0.965,-31.492
EX0521-092111,26,C02,prep,1281,1281,0,1279824.091,0.686,-0.675,0.197,0.187,0,0,0,0,0,0,0,0,0,0.000,0,0,0.098,0.008,-0.040,-0.080,-0.040,0.015,0.994,0.011,0.006,0.006,-0.032,0.000,0.000,0.000,0.000,0,2,0,1,7,255,1440,300,0,0,-89.351,0.965,-31.492
EX0521-092111,26,C02,prep,1295,1295,0,1279829.091,0.686,-0.675,0.197,0.187,0,0,0,0,0,0,0,0,0,0.000,0,0,0.060,0.004,-0.040,-0.020,-0.040,0.014,0.995,0.012,0.002,0.004,0.020,0.000,0.000,0.000,0.000,0,2,0,1,7,255,1440,300,0,0,-89.351,0.965,-31.492
EX0521-092111,26,C02,prep,1295,1295,0,1279834.092,0.686,-0.675,0.197,0.187,0,0,0,0,0,0,0,0,0,0.000,0,0,0.092,0.000,0.020,-0.080,-0.040,0.015,0.991,0.012,0.000,0.000,0.020,0.000,0.000,0.000,0.000,0,2,0,1,7,255,1440,300,0,0,-89.351,0.965,-31.492
EX0521-092111,26,C02,prep,1327,1327,0,1279839.092,0.686,-0.675,0.197,0.187,0,0,0,0,0,0,0,0,0,0.000,0,0,0.060,0.011,-0.040,-0.020,-0.040,0.015,0.994,0.013,-0.004,-0.010,0.024,0.000,0.000,0.000,0.000,0,2,0,1,7,255,1440,300,0,0,-89.351,0.965,-31.492
EX0521-092111,26,C02,prep,1327,1327,0,1279844.092,0.686,-0.675,0.197,0.187,0,0,0,0,0,0,0,0,0,0.000,0,0,0.049,0.010,-0.040,-0.020,0.020,0.015,0.993,0.010,0.000,-0.010,0.010,0.000,0.000,0.000,0.000,0,2,0,1,7,255,1440,300,0,0,-89.351,0.965,-31.492
EX0521-092111,26,C02,prep,1327,1327,0,1279849.092,0.686,-0.675,0.197,0.187,0,0,0,0,0,0,0,0,0,0.000,0,0,0.049,0.008,-0.040,-0.020,0.020,0.015,0.982,0.011,0.008,0.002,0.010,0.000,0.000,0.000,0.000,0,2,0,1,7,255,1440,300,0,0,-89.351,0.965,-31.492
EX0521-092111,26,C02,prep,1327,1327,0,1279854.093,0.686,-0.675,0.197,0.187,0,0,0,0,0,0,0,0,0,0.000,0,0,0.049,0.008,0.020,-0.020,-0.040,0.014,0.995,0.012,0.008,0.002,0.010,0.000,0.000,0.000,0.000,0,2,0,1,7,255,1440,300,0,0,-89.351,0.965,-31.492
EX0521-092111,26,C02,prep,1327,1327,0,1279859.092,0.686,-0.675,0.197,0.187,0,0,0,0,0,0,0,0,0,0.000,0,0,0.049,0.004,0.020,-0.020,-0.040,0.014,1.000,0.011,-0.004,0.002,0.030,0.000,0.000,0.000,0.000,0,2,0,1,7,255,1440,300,0,0,-89.351,0.965,-31.492
EX0521-092111,26,C02,prep,1327,1327,0,1279864.092,0.686,-0.675,0.197,0.187,0,0,0,0,0,0,0,0,0,0.000,0,0,0.060,0.007,-0.040,-0.020,-0.040,0.014,0.991,0.012,-0.006,-0.004,0.030,0.000,0.000,0.000,0.000,0,2,0,1,7,255,1440,300,0,0,-89.351,0.965,-31.492
EX0521-092111,26,C02,prep,1354,1354,0,1279869.092,0.686,-0.675,0.197,0.187,0,0,0,0,0,0,0,0,0,0.000,0,0,0.060,0.006,-0.040,-0.020,-0.040,0.014,0.988,0.012,-0.006,0.000,-0.010,0.000,0.000,0.000,0.000,0,2,0,1,7,255,1440,300,0,0,-89.351,0.965,-31.492
EX0521-092111,26,C02,prep,1354,1354,0,1279874.091,0.686,-0.675,0.197,0.187,0,0,0,0,0,0,0,0,0,0.000,0,0,0.098,0.007,-0.040,-0.080,-0.040,0.014,0.984,0.012,-0.006,-0.004,-0.038,0.000,0.000,0.000,0.000,0,2,0,1,7,255,1440,300,0,0,-89.351,0.965,-31.492
EX0521-092111,26,C02,prep,1354,1354,0,1279879.091,0.686,-0.675,0.197,0.187,0,0,0,0,0,0,0,0,0,0.000,0,0,0.092,0.004,0.080,-0.020,-0.040,0.015,1.001,0.011,-0.004,0.000,-0.038,0.000,0.000,0.000,0.000,0,2,0,1,7,255,1440,300,0,0,-89.351,0.965,-31.492
EX0521-092111,26,C02,prep,1354,1354,0,1279884.092,0.686,-0.675,0.197,0.187,0,0,0,0,0,0,0,0,0,0.000,0,0,0.049,0.004,-0.040,-0.020,0.020,0.015,0.996,0.011,0.004,0.000,0.038,0.000,0.000,0.000,0.000,0,2,0,1,7,255,1440,300,0,0,-89.351,0.965,-31.492
EX0521-092111,26,C02,prep,1355,1355,0,1279889.092,0.686,-0.675,0.197,0.187,0,0,0,0,0,0,0,0,0,0.000,0,0,0.049,0.004,0.020,0.040,0.020,0.014,0.987,0.012,0.004,0.000,0.038,0.000,0.000,0.000,0.000,0,2,0,1,7,255,1440,300,0,0,-89.351,0.965,-31.492
EX0521-092111,26,C02,prep,1355,1355,0,1279894.092,0.686,-0.675,0.197,0.187,0,0,0,0,0,0,0,0,0,0.000,0,0,0.060,0.006,-0.040,-0.020,-0.040,0.015,0.990,0.011,0.004,-0.004,-0.018,0.000,0.000,0.000,0.000,0,2,0,1,7,255,1440,300,0,0,-89.351,0.965,-31.492
EX0521-092111,26,C02,prep,1386,1386,0,1279899.091,0.686,-0.675,0.197,0.187,0,0,0,0,0,0,0,0,0,0.000,0,0,0.049,0.006,0.020,-0.020,-0.040,0.014,0.998,0.010,0.004,-0.004,-0.018,0.000,0.000,0.000,0.000,0,2,0,1,7,255,1440,300,0,0,-89.351,0.965,-31.492
EX0521-092111,26,C02,prep,1386,1386,0,1279904.091,0.686,-0.675,0.197,0.187,0,0,0,0,0,0,0,0,0,0.000,0,0,0.060,0.009,-0.040,-0.020,-0.040,0.014,0.990,0.011,0.004,0.008,-0.014,0.000,0.000,0.000,0.000,0,2,0,1,7,255,1440,300,0,0,-89.351,0.965,-31.492
EX0521-092111,26,C02,prep,1386,1386,0,1279909.092,0.686,-0.675,0.197,0.187,0,0,0,0,0,0,0,0,0,0.000,0,0,0.049,0.010,0.020,-0.020,-0.040,0.013,0.990,0.011,-0.002,0.010,-0.014,0.000,0.000,0.000,0.000,0,2,0,1,7,255,1440,300,0,0,-89.351,0.965,-31.492
EX0521-092111,26,C02,prep,1386,1386,0,1279914.092,0.686,-0.675,0.197,0.187,0,0,0,0,0,0,0,0,0,0.000,0,0,0.049,0.010,0.020,-0.020,-0.040,0.013,0.992,0.011,-0.006,0.008,-0.014,0.000,0.000,0.000,0.000,0,2,0,1,7,255,1440,300,0,0,-89.351,0.965,-31.492
EX0521-092111,26,C02,prep,1387,1387,0,1279919.092,0.686,-0.675,0.197,0.187,0,0,0,0,0,0,0,0,0,0.000,0,0,0.069,0.010,-0.040,0.040,-0.040,0.013,0.990,0.012,-0.008,0.006,-0.014,0.000,0.000,0.000,0.000,0,2,0,1,7,255,1440,300,0,0,-89.351,0.965,-31.492
EX0521-092111,26,C02,prep,1387,1387,0,1279924.091,0.686,-0.675,0.197,0.187,0,0,0,0,0,0,0,0,0,0.000,0,0,0.060,0.010,-0.040,-0.020,-0.040,0.014,0.996,0.010,-0.008,0.006,0.006,0.000,0.000,0.000,0.000,0,2,0,1,7,255,1440,300,0,0,-89.351,0.965,-31.492
EX0521-092111,26,C02,prep,1407,1407,0,1279929.091,0.686,-0.675,0.197,0.187,0,0,0,0,0,0,0,0,0,0.000,0,0,0.069,0.002,-0.040,0.040,-0.040,0.014,0.991,0.011,0.000,0.002,-0.010,0.000,0.000,0.000,0.000,0,2,0,1,7,255,1440,300,0,0,-89.351,0.965,-31.492
EX0521-092111,26,C02,prep,1407,1407,0,1279934.092,0.686,-0.675,0.197,0.187,0,0,0,0,0,0,0,0,0,0.000,0,0,0.060,0.006,0.020,0.040,-0.040,0.014,0.989,0.011,0.004,0.004,-0.010,0.000,0.000,0.000,0.000,0,2,0,1,7,255,1440,300,0,0,-89.351,0.965,-31.492
EX0521-092111,26,C02,prep,1423,1423,0,1279939.092,0.686,-0.675,0.197,0.187,0,0,0,0,0,0,0,0,0,0.000,0,0,0.049,0.002,0.020,-0.020,-0.040,0.015,0.994,0.012,0.000,0.002,-0.010,0.000,0.000,0.000,0.000,0,2,0,1,7,255,1440,300,0,0,-89.351,0.965,-31.492
EX0521-092111,26,C02,prep,1423,1423,0,1279944.092,0.686,-0.675,0.197,0.187,0,0,0,0,0,0,0,0,0,0.000,0,0,0.049,0.004,-0.040,-0.020,0.020,0.015,0.996,0.011,0.004,0.000,0.020,0.000,0.000,0.000,0.000,0,2,0,1,7,255,1440,300,0,0,-89.351,0.965,-31.492
EX0521-092111,26,C02,prep,1424,1424,0,1279949.093,0.686,-0.675,0.197,0.187,0,0,0,0,0,0,0,0,0,0.000,0,0,0.069,0.000,-0.040,0.040,-0.040,0.014,0.997,0.011,0.000,0.000,0.038,0.000,0.000,0.000,0.000,0,2,0,1,7,255,1440,300,0,0,-89.351,0.965,-31.492
EX0521-092111,26,C02,prep,1424,1424,0,1279954.093,0.686,-0.675,0.197,0.187,0,0,0,0,0,0,0,0,0,0.000,0,0,0.049,0.000,-0.040,-0.020,0.020,0.014,0.991,0.012,0.000,0.000,0.038,0.000,0.000,0.000,0.000,0,2,0,1,7,255,1440,300,0,0,-89.351,0.965,-31.492
EX0521-092111,26,C02,prep,1440,1440,0,1279959.092,0.686,-0.675,0.197,0.187,0,0,0,0,0,0,0,0,0,0.000,0,0,0.060,0.004,-0.040,0.040,0.020,0.014,0.982,0.012,-0.004,0.000,-0.010,0.000,0.000,0.000,0.000,0,2,0,1,7,255,1440,300,0,0,-89.351,0.965,-31.492
EX0521-092111,26,C02,prep,1440,1440,0,1279964.093,0.686,-0.675,0.197,0.187,0,0,0,0,0,0,0,0,0,0.000,0,0,0.092,0.004,0.080,-0.020,-0.040,0.015,0.993,0.011,-0.004,0.000,-0.010,0.000,0.000,0.000,0.000,0,2,0,1,7,255,1440,300,0,0,-89.351,0.965,-31.492
EX0521-092111,26,C02,prep,1440,1440,0,1279969.092,0.686,-0.675,0.197,0.187,0,0,0,0,0,0,0,0,0,0.000,0,0,0.060,0.004,0.020,0.040,-0.040,0.015,1.000,0.010,0.004,0.000,0.014,0.000,0.000,0.000,0.000,0,2,0,1,7,255,1440,300,0,0,-89.351,0.965,-31.492
EX0521-092111,26,C02,prep,1440,1440,0,1279974.091,0.686,-0.675,0.197,0.187,0,0,0,0,0,0,0,0,0,0.000,0,0,0.060,0.004,-0.040,-0.020,-0.040,0.015,0.990,0.011,0.004,0.000,0.014,0.000,0.000,0.000,0.000,0,2,0,1,7,255,1440,300,0,0,-89.351,0.965,-31.492
EX0521-092111,26,C02,prep,1441,1441,0,1279979.091,0.686,-0.675,0.197,0.187,0,0,0,0,0,0,0,0,0,0.000,0,0,0.092,0.004,0.020,-0.080,-0.040,0.014,0.989,0.013,0.004,-0.002,-0.020,0.000,0.000,0.000,0.000,0,2,0,1,7,255,1440,300,0,0,-89.351,0.965,-31.492
EX0521-092111,26,C02,prep,1441,1441,0,1279984.092,0.686,-0.675,0.197,0.187,0,0,0,0,0,0,0,0,0,0.000,0,0,0.035,0.003,0.020,-0.020,0.020,0.014,0.992,0.011,-0.002,-0.002,-0.020,0.000,0.000,0.000,0.000,0,2,0,1,7,255,1440,300,0,0,-89.351,0.965,-31.492
EX0521-092111,26,C02,prep,1455,1455,0,1279989.092,0.686,-0.675,0.197,0.187,0,0,0,0,0,0,0,0,0,0.000,0,0,0.060,0.006,0.020,0.040,-0.040,0.014,0.992,0.011,-0.004,0.004,0.004,0.000,0.000,0.000,0.000,0,2,0,1,7,255,1440,300,0,0,-89.351,0.965,-31.492
EX0521-092111,26,C02,prep,1455,1455,0,1279994.092,0.686,-0.675,0.197,0.187,0,0,0,0,0,0,0,0,0,0.000,0,0,0.049,0.004,0.020,0.040,0.020,0.015,0.997,0.011,-0.002,0.004,0.004,0.000,0.000,0.000,0.000,0,2,0,1,7,255,1440,300,0,0,-89.351,0.965,-31.492
EX0521-092111,26,C02,prep,1471,1471,0,1279999.091,0.686,-0.675,0.197,0.187,0,0,0,0,0,0,0,0,0,0.000,0,0,0.060,0.004,-0.040,-0.020,-0.040,0.014,0.996,0.011,-0.002,0.004,0.042,0.000,0.000,0.000,0.000,0,2,0,1,7,255,1440,300,0,0,-89.351,0.965,-31.492
EX0521-092111,26,C02,prep,1471,1471,0,1280004.091,0.686,-0.675,0.197,0.187,0,0,0,0,0,0,0,0,0,0.000,0,0,0.035,0.004,0.020,-0.020,0.020,0.016,0.987,0.011,0.004,0.000,0.042,0.000,0.000,0.000,0.000,0,2,0,1,7,255,1440,300,0,0,-89.351,0.965,-31.492
EX0521-092111,26,C02,prep,1471,1471,0,1280009.091,0.686,-0.675,0.197,0.187,0,0,0,0,0,0,0,0,0,0.000,0,0,0.049,0.004,0.020,-0.020,-0.040,0.015,0.992,0.011,0.004,-0.002,0.004,0.000,0.000,0.000,0.000,0,2,0,1,7,255,1440,300,0,0,-89.351,0.965,-31.492
EX0521-092111,26,C02,prep,1471,1471,0,1280014.092,0.686,-0.675,0.197,0.187,0,0,0,0,0,0,0,0,0,0.000,0,0,0.049,0.006,0.020,-0.020,-0.040,0.015,0.997,0.011,0.006,-0.002,0.004,0.000,0.000,0.000,0.000,0,2,0,1,7,255,1440,300,0,0,-89.351,0.965,-31.492
EX0521-092111,26,C02,prep,1487,1487,0,1280019.092,0.686,-0.675,0.197,0.187,0,0,0,0,0,0,0,0,0,0.000,0,0,0.060,0.006,-0.040,0.040,0.020,0.013,0.990,0.011,0.004,0.004,0.004,0.000,0.000,0.000,0.000,0,2,0,1,7,255,1440,300,0,0,-89.351,0.965,-31.492
EX0521-092111,26,C02,prep,1487,1487,0,1280024.092,0.686,-0.675,0.197,0.187,0,0,0,0,0,0,0,0,0,0.000,0,0,0.049,0.004,0.020,-0.020,-0.040,0.014,0.990,0.011,0.002,0.004,-0.016,0.000,0.000,0.000,0.000,0,2,0,1,7,255,1440,300,0,0,-89.351,0.965,-31.492
EX0521-092111,26,C02,prep,1503,1503,0,1280029.091,0.686,-0.675,0.197,0.187,0,0,0,0,0,0,0,0,0,0.000,0,0,0.049,0.004,0.020,-0.020,-0.040,0.015,0.993,0.012,0.002,0.004,-0.016,0.000,0.000,0.000,0.000,0,2,0,1,7,255,1440,300,0,0,-89.351,0.965,-31.492
EX0521-092111,26,C02,prep,1503,1503,0,1280034.091,0.686,-0.675,0.197,0.187,0,0,0,0,0,0,0,0,0,0.000,0,0,0.049,0.006,0.020,-0.020,-0.040,0.015,0.993,0.013,0.002,-0.006,0.008,0.000,0.000,0.000,0.000,0,2,0,1,7,255,1440,300,0,0,-89.351,0.965,-31.492
EX0521-092111,26,C02,prep,1522,1522,0,1280039.092,0.686,-0.675,0.197,0.187,0,0,0,0,0,0,0,0,0,0.000,0,0,0.060,0.007,-0.040,0.040,0.020,0.014,0.993,0.011,-0.004,-0.006,0.014,0.000,0.000,0.000,0.000,0,2,0,1,7,255,1440,300,0,0,-89.351,0.965,-31.492
EX0521-092111,26,C02,prep,1522,1522,0,1280044.092,0.686,-0.675,0.197,0.187,0,0,0,0,0,0,0,0,0,0.000,0,0,0.049,0.006,-0.040,-0.020,0.020,0.014,0.992,0.012,-0.006,0.000,0.014,0.000,0.000,0.000,0.000,0,2,0,1,7,255,1440,300,0,0,-89.351,0.965,-31.492
EX0521-092111,26,C02,prep,1523,1523,0,1280049.093,0.686,-0.675,0.197,0.187,0,0,0,0,0,0,0,0,0,0.000,0,0,0.035,0.007,0.020,-0.020,0.020,0.013,0.991,0.012,-0.006,0.004,0.004,0.000,0.000,0.000,0.000,0,2,0,1,7,255,1440,300,0,0,-89.351,0.965,-31.492
EX0521-092111,26,C02,prep,1523,1523,0,1280054.093,0.686,-0.675,0.197,0.187,0,0,0,0,0,0,0,0,0,0.000,0,0,0.060,0.007,0.020,0.040,-0.040,0.015,0.994,0.010,-0.006,0.004,0.004,0.000,0.000,0.000,0.000,0,2,0,1,7,255,1440,300,0,0,-89.351,0.965,-31.492
EX0521-092111,26,C02,prep,1523,1523,0,1280059.091,0.686,-0.675,0.197,0.187,0,0,0,0,0,0,0,0,0,0.000,0,0,0.049,0.004,-0.040,-0.020,0.020,0.014,0.994,0.011,0.000,0.004,0.022,0.000,0.000,0.000,0.000,0,2,0,1,7,255,1440,300,0,0,-89.351,0.965,-31.492
EX0521-092111,26,C02,prep,1523,1523,0,1280064.092,0.686,-0.675,0.197,0.187,0,0,0,0,0,0,0,0,0,0.000,0,0,0.035,0.002,0.020,-0.020,0.020,0.014,0.991,0.012,0.000,0.002,0.022,0.000,0.000,0.000,0.000,0,2,0,1,7,255,1440,300,0,0,-89.351,0.965,-31.492
EX0521-092111,26,C02,prep,1535,1535,0,1280069.092,0.686,-0.675,0.197,0.187,0,0,0,0,0,0,0,0,0,0.000,0,0,0.092,0.002,0.020,-0.080,-0.040,0.015,0.991,0.011,0.000,-0.002,-0.006,0.000,0.000,0.000,0.000,0,2,0,1,7,255,1440,300,0,0,-89.351,0.965,-31.492
EX0521-092111,26,C02,prep,1535,1535,0,1280074.093,0.686,-0.675,0.197,0.187,0,0,0,0,0,0,0,0,0,0.000,0,0,0.035,0.002,0.020,-0.020,0.020,0.015,0.993,0.012,0.000,-0.002,-0.006,0.000,0.000,0.000,0.000,0,2,0,1,7,255,1440,300,0,0,-89.351,0.965,-31.492
EX0521-092111,26,C02,prep,1551,1551,0,1280079.091,0.686,-0.675,0.197,0.187,0,0,0,0,0,0,0,0,0,0.000,0,0,0.060,0.002,-0.040,-0.020,-0.040,0.014,0.995,0.012,0.000,-0.002,0.008,0.000,0.000,0.000,0.000,0,2,0,1,7,255,1440,300,0,0,-89.351,0.965,-31.492
EX0521-092111,26,C02,prep,1551,1551,0,1280084.091,0.686,-0.675,0.197,0.187,0,0,0,0,0,0,0,0,0,0.000,0,0,0.035,0.006,0.020,-0.020,0.020,0.013,0.994,0.012,-0.006,0.000,0.018,0.000,0.000,0.000,0.000,0,2,0,1,7,255,1440,300,0,0,-89.351,0.965,-31.492
EX0521-092111,26,C02,prep,1551,1551,0,1280089.092,0.686,-0.675,0.197,0.187,0,0,0,0,0,0,0,0,0,0.000,0,0,0.049,0.006,-0.040,-0.020,0.020,0.015,0.991,0.012,-0.006,0.000,0.018,0.000,0.000,0.000,0.000,0,2,0,1,7,255,1440,300,0,0,-89.351,0.965,-31.492
EX0521-092111,26,C02,prep,1551,1551,0,1280094.092,0.686,-0.675,0.197,0.187,0,0,0,0,0,0,0,0,0,0.000,0,0,0.049,0.010,0.020,-0.020,-0.040,0.013,0.991,0.012,-0.010,0.002,-0.006,0.000,0.000,0.000,0.000,0,2,0,1,7,255,1440,300,0,0,-89.351,0.965,-31.492
EX0521-092111,26,C02,prep,1567,1567,0,1280099.092,0.686,-0.675,0.197,0.187,0,0,0,0,0,0,0,0,0,0.000,0,0,0.049,0.003,0.020,-0.020,-0.040,0.014,0.993,0.012,-0.002,-0.002,-0.006,0.000,0.000,0.000,0.000,0,2,0,1,7,255,1440,300,0,0,-89.351,0.965,-31.492
EX0521-092111,26,C02,prep,1567,1567,0,1280104.092,0.686,-0.675,0.197,0.187,0,0,0,0,0,0,0,0,0,0.000,0,0,0.092,0.006,0.080,0.040,0.020,0.014,0.994,0.013,-0.006,-0.002,0.012,0.000,0.000,0.000,0.000,0,2,0,1,7,255,1440,300,0,0,-89.351,0.965,-31.492
EX0521-092111,26,C02,prep,1584,1584,0,1280109.091,0.686,-0.675,0.197,0.187,0,0,0,0,0,0,0,0,0,0.000,0,0,0.049,0.004,-0.040,-0.020,0.020,0.014,0.993,0.011,-0.004,-0.002,0.012,0.000,0.000,0.000,0.000,0,2,0,1,7,255,1440,300,0,0,-89.351,0.965,-31.492
EX0521-092111,26,C02,prep,1584,1584,0,1280114.093,0.686,-0.675,0.197,0.187,0,0,0,0,0,0,0,0,0,0.000,0,0,0.060,0.004,-0.040,-0.020,-0.040,0.014,0.994,0.012,-0.004,-0.002,0.016,0.000,0.000,0.000,0.000,0,2,0,1,7,255,1440,300,0,0,-89.351,0.965,-31.492
EX0521-092111,26,C02,prep,1584,1584,0,1280119.092,0.686,-0.675,0.197,0.187,0,0,0,0,0,0,0,0,0,0.000,0,0,0.049,0.004,-0.040,-0.020,0.020,0.014,0.991,0.012,-0.004,0.000,0.008,0.000,0.000,0.000,0.000,0,2,0,1,7,255,1440,300,0,0,-89.351,0.965,-31.492
EX0521-092111,26,C02,prep,1584,1584,0,1280124.092,0.686,-0.675,0.197,0.187,0,0,0,0,0,0,0,0,0,0.000,0,0,0.060,0.003,-0.040,-0.020,-0.040,0.015,0.992,0.012,-0.002,-0.002,-0.002,0.000,0.000,0.000,0.000,0,2,0,1,7,255,1440,300,0,0,-89.351,0.965,-31.492
EX0521-092111,26,C02,prep,1599,1599,0,1280129.092,0.686,-0.675,0.197,0.187,0,0,0,0,0,0,0,0,0,0.000,0,0,0.049,0.008,0.020,-0.020,-0.040,0.013,0.993,0.013,-0.006,-0.006,-0.002,0.000,0.000,0.000,0.000,0,2,0,1,7,255,1440,300,0,0,-89.351,0.965,-31.492
EX0521-092111,26,C02,prep,1599,1599,0,1280134.091,0.686,-0.675,0.197,0.187,0,0,0,0,0,0,0,0,0,0.000,0,0,0.035,0.006,0.020,-0.020,0.020,0.015,0.993,0.012,0.000,-0.006,0.008,0.000,0.000,0.000,0.000,0,2,0,1,7,255,1440,300,0,0,-89.351,0.965,-31.492
EX0521-092111,26,C02,prep,1618,1618,0,1280139.091,0.686,-0.675,0.197,0.187,0,0,0,0,0,0,0,0,0,0.000,0,0,0.060,0.006,-0.040,-0.020,-0.040,0.014,0.993,0.012,-0.002,-0.006,0.008,0.000,0.000,0.000,0.000,0,2,0,1,7,255,1440,300,0,0,-89.351,0.965,-31.492
EX0521-092111,26,C02,prep,1618,1618,0,1280144.092,0.686,-0.675,0.197,0.187,0,0,0,0,0,0,0,0,0,0.000,0,0,0.035,0.002,0.020,-0.020,0.020,0.016,0.993,0.011,0.000,-0.002,0.008,0.000,0.000,0.000,0.000,0,2,0,1,7,255,1440,300,0,0,-89.351,0.965,-31.492
EX0521-092111,26,C02,prep,1631,1631,0,1280149.092,0.686,-0.675,0.197,0.187,0,0,0,0,0,0,0,0,0,0.000,0,0,0.049,0.003,0.020,-0.020,-0.040,0.014,0.992,0.011,-0.002,-0.002,0.008,0.000,0.000,0.000,0.000,0,2,0,1,7,255,1440,300,0,0,-89.351,0.965,-31.492
EX0521-092111,26,C02,prep,1631,1631,0,1280154.093,0.686,-0.675,0.197,0.187,0,0,0,0,0,0,0,0,0,0.000,0,0,0.060,0.006,-0.040,0.040,0.020,0.014,0.992,0.011,-0.004,0.004,-0.002,0.000,0.000,0.000,0.000,0,2,0,1,7,255,1440,300,0,0,-89.351,0.965,-31.492
EX0521-092111,26,C02,prep,1631,1631,0,1280159.092,0.686,-0.675,0.197,0.187,0,0,0,0,0,0,0,0,0,0.000,0,0,0.060,0.006,-0.040,-0.020,-0.040,0.014,0.993,0.012,-0.004,0.004,-0.002,0.000,0.000,0.000,0.000,0,2,0,1,7,255,1440,300,0,0,-89.351,0.965,-31.492
