experiment_id,condition_order_index,condition_id,condition_phase,condition_phase_elapsed_ms,condition_elapsed_ms,is_stimulation_on,t_ms,R_q0,R_q1,R_q2,R_q3,R_heel1,R_mid1,R_fore1,R_heel2,R_fore3,R_mid2,R_fore4,R_fore2,R_cadence,R_speed,R_steps,R_zupt,R_gyroNorm,R_accH,R_gyro_x,R_gyro_y,R_gyro_z,R_acc_x,R_acc_y,R_acc_z,R_nav_ax,R_nav_ay,R_nav_az,R_stepVel,R_stepVelj,R_stepDispRaw,R_stepDispZUPT,R_gaitEvent,R_motorMode,R_motorActive,R_motorAlignment,R_motorRegionMask,R_motorAmplitude,R_motorIntervalMs,R_motorDurationMs,R_motorPhaseMs,R_motorCycleMs,R_roll,R_pitch,R_yaw
EX0521-092111,21,C12,prep,36,36,0,1065599.093,0.686,-0.675,0.196,0.187,0,0,0,0,0,0,0,0,0,0.000,0,0,0.098,0.008,0.080,-0.040,-0.040,0.014,0.991,0.013,0.002,0.008,0.018,0.000,0.000,0.000,0.000,0,2,0,2,7,255,960,200,0,0,-89.355,0.880,-31.433
EX0521-092111,21,C12,prep,36,36,0,1065604.092,0.686,-0.675,0.196,0.187,0,0,0,0,0,0,0,0,0,0.000,0,0,0.538,0.003,-0.460,-0.100,0.260,0.014,0.991,0.011,-0.002,0.002,-0.026,0.000,0.000,0.000,0.000,0,2,0,2,7,255,960,200,0,0,-89.355,0.880,-31.433
EX0521-092111,21,C12,prep,36,36,0,1065609.091,0.686,-0.675,0.196,0.187,0,0,0,0,0,0,0,0,0,0.000,0,0,0.115,0.010,0.040,0.040,-0.100,0.012,1.000,0.011,-0.010,0.002,-0.026,0.000,0.000,0.000,0.000,0,2,0,2,7,255,960,200,0,0,-89.355,0.880,-31.433
EX0521-092111,21,C12,prep,36,36,0,1065614.092,0.686,-0.675,0.196,0.187,0,0,0,0,0,0,0,0,0,0.000,0,0,0.592,0.003,0.520,-0.040,-0.280,0.015,0.989,0.011,-0.002,0.002,-0.026,0.000,0.000,0.000,0.000,0,2,0,2,7,255,960,200,0,0,-89.355,0.880,-31.433
EX0521-092111,21,C12,prep,36,36,0,1065619.092,0.686,-0.675,0.196,0.187,0,0,0,0,0,0,0,0,0,0.000,0,0,0.803,0.010,-0.700,-0.100,0.380,0.014,0.995,0.012,-0.008,-0.006,0.008,0.000,0.000,0.000,0.000,0,2,0,2,7,255,960,200,0,0,-89.352,0.880,-31.433
EX0521-092111,21,C12,prep,36,36,0,1065624.091,0.686,-0.675,0.196,0.187,0,0,0,0,0,0,0,0,0,0.000,0,0,0.581,0.007,0.460,0.100,-0.340,0.014,0.997,0.012,-0.004,-0.006,0.008,0.000,0.000,0.000,0.000,0,2,0,2,7,255,960,200,0,0,-89.352,0.880,-31.433
EX0521-092111,21,C12,prep,37,37,0,1065629.091,0.686,-0.675,0.196,0.187,0,0,0,0,0,0,0,0,0,0.000,0,0,0.143,0.009,0.100,-0.100,0.020,0.016,0.985,0.011,-0.004,-0.008,0.008,0.000,0.000,0.000,0.000,0,2,0,2,7,255,960,200,0,0,-89.352,0.880,-31.433
EX0521-092111,21,C12,prep,37,37,0,1065634.092,0.686,-0.675,0.196,0.187,0,0,0,0,0,0,0,0,0,0.000,0,0,0.426,0.009,-0.400,0.040,0.140,0.012,1.003,0.011,-0.004,-0.008,0.028,0.000,0.000,0.000,0.000,0,2,0,2,7,255,960,200,0,0,-89.352,0.880,-31.433
EX0521-092111,21,C12,prep,37,37,0,1065639.092,0.686,-0.675,0.196,0.187,0,0,0,0,0,0,0,0,0,0.000,0,0,1.026,0.012,0.940,-0.100,-0.400,0.015,0.986,0.011,0.012,-0.002,-0.072,0.000,0.000,0.000,0.000,0,2,0,2,7,255,960,200,0,0,-89.357,0.880,-31.433
EX0521-092111,21,C12,prep,37,37,0,1065644.092,0.686,-0.675,0.196,0.187,0,0,0,0,0,0,0,0,0,0.000,0,0,1.301,0.016,-1.200,-0.040,0.500,0.012,0.995,0.010,-0.010,0.012,0.012,0.000,0.000,0.000,0.000,0,2,0,2,7,255,960,200,0,0,-89.351,0.880,-31.433
EX0521-092111,21,C12,prep,37,37,0,1065649.092,0.686,-0.675,0.196,0.187,0,0,0,0,0,0,0,0,0,0.000,0,0,1.239,0.017,1.120,-0.100,-0.520,0.013,0.997,0.010,-0.006,0.016,0.012,0.000,0.000,0.000,0.000,0,2,0,2,7,255,960,200,0,0,-89.356,0.880,-31.433
EX0521-092111,21,C12,prep,37,37,0,1065654.092,0.686,-0.675,0.196,0.187,0,0,0,0,0,0,0,0,0,0.000,0,0,0.866,0.017,-0.820,0.100,0.260,0.016,0.986,0.012,-0.006,0.016,0.012,0.000,0.000,0.000,0.000,0,2,0,2,7,255,960,200,0,0,-89.352,0.881,-31.433
EX0521-092111,21,C12,prep,38,38,0,1065659.091,0.686,-0.675,0.196,0.187,0,0,0,0,0,0,0,0,0,0.000,0,0,0.227,0.007,0.160,-0.160,0.020,0.014,1.000,0.012,-0.006,-0.004,0.032,0.000,0.000,0.000,0.000,0,2,0,2,7,255,960,200,0,0,-89.352,0.881,-31.433
EX0521-092111,21,C12,prep,38,38,0,1065664.091,0.686,-0.675,0.196,0.187,0,0,0,0,0,0,0,0,0,0.000,0,0,0.534,0.013,0.400,0.100,-0.340,0.016,0.991,0.011,0.012,-0.004,-0.030,0.000,0.000,0.000,0.000,0,2,0,2,7,255,960,200,0,0,-89.352,0.881,-31.433
EX0521-092111,21,C12,prep,47,47,0,1065669.092,0.686,-0.675,0.196,0.187,0,0,0,0,0,0,0,0,0,0.000,0,0,0.893,0.004,-0.760,-0.160,0.440,0.015,0.994,0.013,-0.002,-0.004,0.004,0.000,0.000,0.000,0.000,0,2,0,2,7,255,960,200,0,0,-89.348,0.881,-31.433
EX0521-092111,21,C12,prep,47,47,0,1065674.092,0.686,-0.675,0.196,0.187,0,0,0,0,0,0,0,0,0,0.000,0,0,0.994,0.013,0.880,0.040,-0.460,0.014,0.995,0.009,0.012,-0.004,0.004,0.000,0.000,0.000,0.000,0,2,0,2,7,255,960,200,0,0,-89.353,0.881,-31.433
EX0521-092111,21,C12,prep,63,63,0,1065679.091,0.686,-0.675,0.196,0.187,0,0,0,0,0,0,0,0,0,0.000,0,0,0.880,0.010,-0.820,-0.020,0.320,0.014,0.991,0.013,-0.002,-0.010,0.004,0.000,0.000,0.000,0.000,0,2,0,2,7,255,960,200,0,0,-89.349,0.881,-31.433
EX0521-092111,21,C12,prep,63,63,0,1065684.092,0.686,-0.675,0.196,0.187,0,0,0,0,0,0,0,0,0,0.000,0,0,0.325,0.014,0.280,-0.160,-0.040,0.014,0.997,0.014,-0.010,-0.010,0.008,0.000,0.000,0.000,0.000,0,2,0,2,7,255,960,200,0,0,-89.349,0.881,-31.433
EX0521-092111,21,C12,prep,95,95,0,1065689.092,0.686,-0.675,0.196,0.187,0,0,0,0,0,0,0,0,0,0.000,0,0,0.594,0.014,0.460,0.160,-0.340,0.015,0.992,0.008,-0.010,-0.010,-0.020,0.000,0.000,0.000,0.000,0,2,0,2,7,255,960,200,0,0,-89.349,0.881,-31.433
EX0521-092111,21,C12,prep,95,95,0,1065694.091,0.686,-0.675,0.196,0.187,0,0,0,0,0,0,0,0,0,0.000,0,0,1.119,0.017,-1.060,-0.160,0.320,0.013,0.996,0.013,-0.014,-0.010,0.022,0.000,0.000,0.000,0.000,0,2,0,2,7,255,960,200,0,0,-89.343,0.881,-31.433
EX0521-092111,21,C12,prep,95,95,0,1065699.092,0.686,-0.675,0.196,0.187,0,0,0,0,0,0,0,0,0,0.000,0,0,1.171,0.006,1.120,-0.020,-0.340,0.015,0.993,0.011,0.006,-0.002,-0.006,0.000,0.000,0.000,0.000,0,2,0,2,7,255,960,200,0,0,-89.349,0.881,-31.433
EX0521-092111,21,C12,prep,95,95,0,1065704.093,0.686,-0.675,0.196,0.187,0,0,0,0,0,0,0,0,0,0.000,0,0,0.562,0.006,-0.520,0.160,0.140,0.015,0.994,0.006,0.006,-0.002,-0.002,0.000,0.000,0.000,0.000,0,2,0,2,7,255,960,200,0,0,-89.349,0.881,-31.433
EX0521-092111,21,C12,prep,95,95,0,1065709.092,0.686,-0.675,0.196,0.187,0,0,0,0,0,0,0,0,0,0.000,0,0,0.665,0.006,-0.640,-0.160,0.080,0.014,0.997,0.015,0.006,-0.002,-0.002,0.000,0.000,0.000,0.000,0,2,0,2,7,255,960,200,0,0,-89.346,0.881,-31.433
EX0521-092111,21,C12,prep,95,95,0,1065714.091,0.686,-0.675,0.196,0.187,0,0,0,0,0,0,0,0,0,0.000,0,0,1.380,0.025,1.320,-0.040,-0.400,0.015,0.987,0.014,-0.006,-0.024,-0.002,0.000,0.000,0.000,0.000,0,2,0,2,7,255,960,200,0,0,-89.352,0.881,-31.433
EX0521-092111,21,C12,prep,118,118,0,1065719.092,0.686,-0.675,0.196,0.187,0,0,0,0,0,0,0,0,0,0.000,0,0,0.143,0.025,-0.100,0.100,0.020,0.013,1.000,0.005,-0.006,-0.024,0.028,0.000,0.000,0.000,0.000,0,2,0,2,7,255,960,200,0,0,-89.358,0.881,-31.433
EX0521-092111,21,C12,prep,118,118,0,1065724.092,0.686,-0.675,0.196,0.187,0,0,0,0,0,0,0,0,0,0.000,0,0,1.286,0.021,-1.260,-0.160,0.200,0.014,0.992,0.014,-0.006,-0.020,-0.020,0.000,0.000,0.000,0.000,0,2,0,2,7,255,960,200,0,0,-89.352,0.881,-31.433
EX0521-092111,21,C12,prep,118,118,0,1065729.091,0.686,-0.675,0.196,0.187,0,0,0,0,0,0,0,0,0,0.000,0,0,0.836,0.022,0.820,-0.040,-0.160,0.016,0.989,0.016,-0.008,-0.020,-0.020,0.000,0.000,0.000,0.000,0,2,0,2,7,255,960,200,0,0,-89.356,0.881,-31.433
EX0521-092111,21,C12,prep,118,118,0,1065734.091,0.686,-0.675,0.196,0.187,0,0,0,0,0,0,0,0,0,0.000,0,0,1.805,0.022,1.680,0.020,-0.660,0.013,1.000,0.004,-0.008,-0.020,-0.020,0.000,0.000,0.000,0.000,0,2,0,2,7,255,960,200,0,0,-89.366,0.877,-31.433
EX0521-092111,21,C12,prep,118,118,0,1065739.092,0.686,-0.675,0.196,0.187,0,0,0,0,0,0,0,0,0,0.000,0,0,2.918,0.004,-2.780,-0.100,0.880,0.014,0.989,0.012,0.000,-0.004,-0.044,0.000,0.000,0.000,0.000,0,2,0,2,7,255,960,200,0,0,-89.352,0.882,-31.433
EX0521-092111,21,C12,prep,118,118,0,1065744.091,0.686,-0.675,0.196,0.187,0,0,0,0,0,0,0,0,0,0.000,0,0,0.645,0.004,0.580,-0.040,-0.280,0.013,0.993,0.016,0.000,-0.004,-0.010,0.000,0.000,0.000,0.000,0,2,0,2,7,255,960,200,0,0,-89.355,0.882,-31.433
EX0521-092111,21,C12,prep,127,127,0,1065749.091,0.686,-0.675,0.196,0.187,0,0,0,0,0,0,0,0,0,0.000,0,0,1.937,0.004,1.860,0.020,-0.540,0.014,0.992,0.009,0.000,-0.004,-0.020,0.000,0.000,0.000,0.000,0,2,0,2,7,255,960,200,0,0,-89.365,0.882,-31.433
EX0521-092111,21,C12,prep,127,127,0,1065754.092,0.686,-0.675,0.196,0.187,0,0,0,0,0,0,0,0,0,0.000,0,0,1.703,0.024,-1.620,-0.160,0.500,0.013,1.000,0.006,0.014,0.020,-0.010,0.000,0.000,0.000,0.000,0,2,0,2,7,255,960,200,0,0,-89.356,0.882,-31.433
EX0521-092111,21,C12,prep,159,159,0,1065759.093,0.686,-0.675,0.196,0.187,0,0,0,0,0,0,0,0,0,0.000,0,0,0.284,0.024,-0.280,-0.040,0.020,0.015,0.987,0.018,0.014,0.020,-0.020,0.000,0.000,0.000,0.000,0,2,0,2,7,255,960,200,0,0,-89.350,0.882,-31.433
EX0521-092111,21,C12,prep,159,159,0,1065764.093,0.686,-0.675,0.196,0.187,0,0,0,0,0,0,0,0,0,0.000,0,0,0.783,0.008,0.760,0.160,-0.100,0.014,0.992,0.011,0.000,0.008,-0.014,0.000,0.000,0.000,0.000,0,2,0,2,7,255,960,200,0,0,-89.354,0.882,-31.433
EX0521-092111,21,C12,prep,159,159,0,1065769.091,0.686,-0.675,0.196,0.187,0,0,0,0,0,0,0,0,0,0.000,0,0,0.170,0.008,0.040,-0.040,-0.160,0.014,1.000,0.007,0.000,0.008,-0.014,0.000,0.000,0.000,0.000,0,2,0,2,7,255,960,200,0,0,-89.354,0.882,-31.433
EX0521-092111,21,C12,prep,159,159,0,1065774.092,0.686,-0.675,0.196,0.187,0,0,0,0,0,0,0,0,0,0.000,0,0,1.119,0.008,-1.060,-0.160,0.320,0.016,0.987,0.015,0.000,0.008,-0.014,0.000,0.000,0.000,0.000,0,2,0,2,7,255,960,200,0,0,-89.349,0.882,-31.433
EX0521-092111,21,C12,prep,159,159,0,1065779.092,0.686,-0.675,0.196,0.187,0,0,0,0,0,0,0,0,0,0.000,0,0,0.908,0.016,0.880,0.040,-0.220,0.014,0.996,0.014,-0.002,-0.016,0.024,0.000,0.000,0.000,0.000,0,2,0,2,7,255,960,200,0,0,-89.353,0.882,-31.433
EX0521-092111,21,C12,prep,159,159,0,1065784.091,0.686,-0.675,0.196,0.187,0,0,0,0,0,0,0,0,0,0.000,0,0,0.645,0.016,0.580,0.040,-0.280,0.014,0.995,0.007,-0.002,-0.016,0.014,0.000,0.000,0.000,0.000,0,2,0,2,7,255,960,200,0,0,-89.356,0.882,-31.433
EX0521-092111,21,C12,prep,188,188,0,1065789.092,0.686,-0.675,0.196,0.187,0,0,0,0,0,0,0,0,0,0.000,0,0,1.509,0.016,-1.440,-0.100,0.440,0.015,0.992,0.013,0.000,-0.016,0.014,0.000,0.000,0.000,0.000,0,2,0,2,7,255,960,200,0,0,-89.349,0.882,-31.433
EX0521-092111,21,C12,prep,188,188,0,1065794.092,0.686,-0.675,0.196,0.187,0,0,0,0,0,0,0,0,0,0.000,0,0,0.816,0.018,0.760,0.100,-0.280,0.014,0.995,0.014,0.000,-0.018,0.010,0.000,0.000,0.000,0.000,0,2,0,2,7,255,960,200,0,0,-89.353,0.882,-31.433
EX0521-092111,21,C12,prep,189,189,0,1065799.093,0.686,-0.675,0.196,0.187,0,0,0,0,0,0,0,0,0,0.000,0,0,0.404,0.018,0.400,0.040,-0.040,0.014,0.993,0.007,0.000,-0.018,-0.006,0.000,0.000,0.000,0.000,0,2,0,2,7,255,960,200,0,0,-89.353,0.882,-31.433
EX0521-092111,21,C12,prep,189,189,0,1065804.093,0.686,-0.675,0.196,0.187,0,0,0,0,0,0,0,0,0,0.000,0,0,0.850,0.010,-0.820,-0.100,0.200,0.013,0.996,0.012,-0.010,-0.002,0.010,0.000,0.000,0.000,0.000,0,2,0,2,7,255,960,200,0,0,-89.349,0.882,-31.433
EX0521-092111,21,C12,prep,190,190,0,1065809.092,0.686,-0.675,0.196,0.187,0,0,0,0,0,0,0,0,0,0.000,0,0,0.458,0.006,0.400,-0.040,-0.220,0.015,0.992,0.014,-0.006,-0.002,-0.006,0.000,0.000,0.000,0.000,0,2,0,2,7,255,960,200,0,0,-89.349,0.882,-31.433
EX0521-092111,21,C12,prep,190,190,0,1065814.091,0.686,-0.675,0.196,0.187,0,0,0,0,0,0,0,0,0,0.000,0,0,0.402,0.006,0.400,0.020,-0.040,0.015,0.995,0.009,-0.006,-0.002,0.010,0.000,0.000,0.000,0.000,0,2,0,2,7,255,960,200,0,0,-89.349,0.882,-31.433
EX0521-092111,21,C12,prep,229,229,0,1065819.091,0.686,-0.675,0.196,0.187,0,0,0,0,0,0,0,0,0,0.000,0,0,0.582,0.006,-0.580,-0.040,0.020,0.015,0.997,0.011,0.006,0.000,0.010,0.000,0.000,0.000,0.000,0,2,0,2,7,255,960,200,0,0,-89.346,0.882,-31.433
EX0521-092111,21,C12,prep,229,229,0,1065824.092,0.686,-0.675,0.196,0.187,0,0,0,0,0,0,0,0,0,0.000,0,0,0.143,0.006,-0.100,-0.100,0.020,0.016,0.988,0.015,0.006,0.000,0.010,0.000,0.000,0.000,0.000,0,2,0,2,7,255,960,200,0,0,-89.346,0.882,-31.433
EX0521-092111,21,C12,prep,230,230,0,1065829.092,0.686,-0.675,0.196,0.187,0,0,0,0,0,0,0,0,0,0.000,0,0,0.530,0.002,0.520,0.020,-0.100,0.013,0.996,0.010,-0.002,0.000,0.024,0.000,0.000,0.000,0.000,0,2,0,2,7,255,960,200,0,0,-89.346,0.882,-31.433
EX0521-092111,21,C12,prep,230,230,0,1065834.091,0.686,-0.675,0.196,0.187,0,0,0,0,0,0,0,0,0,0.000,0,0,0.284,0.016,-0.280,-0.040,0.020,0.015,0.995,0.009,-0.002,0.016,0.008,0.000,0.000,0.000,0.000,0,2,0,2,7,255,960,200,0,0,-89.346,0.882,-31.433
EX0521-092111,21,C12,prep,231,231,0,1065839.092,0.686,-0.675,0.196,0.187,0,0,0,0,0,0,0,0,0,0.000,0,0,0.376,0.016,-0.340,-0.160,0.020,0.015,0.992,0.013,-0.002,0.016,0.008,0.000,0.000,0.000,0.000,0,2,0,2,7,255,960,200,0,0,-89.346,0.882,-31.433
EX0521-092111,21,C12,prep,231,231,0,1065844.092,0.686,-0.675,0.196,0.187,0,0,0,0,0,0,0,0,0,0.000,0,0,0.734,0.004,0.700,0.020,-0.220,0.013,0.995,0.012,-0.004,0.002,0.008,0.000,0.000,0.000,0.000,0,2,0,2,7,255,960,200,0,0,-89.349,0.882,-31.433
EX0521-092111,21,C12,prep,232,232,0,1065849.092,0.686,-0.675,0.196,0.187,0,0,0,0,0,0,0,0,0,0.000,0,0,0.183,0.004,-0.160,-0.040,0.080,0.014,0.993,0.010,-0.004,0.002,-0.010,0.000,0.000,0.000,0.000,0,2,0,2,7,255,960,200,0,0,-89.349,0.882,-31.433
EX0521-092111,21,C12,prep,232,232,0,1065854.091,0.686,-0.675,0.196,0.187,0,0,0,0,0,0,0,0,0,0.000,0,0,0.530,0.010,-0.520,-0.100,0.020,0.014,0.993,0.013,-0.010,0.002,-0.004,0.000,0.000,0.000,0.000,0,2,0,2,7,255,960,200,0,0,-89.349,0.882,-31.433
EX0521-092111,21,C12,prep,250,250,0,1065859.092,0.686,-0.675,0.196,0.187,0,0,0,0,0,0,0,0,0,0.000,0,0,0.573,0.012,0.520,0.100,-0.220,0.015,0.993,0.013,-0.002,-0.012,-0.004,0.000,0.000,0.000,0.000,0,2,0,2,7,255,960,200,0,0,-89.349,0.882,-31.433
EX0521-092111,21,C12,prep,250,250,0,1065864.092,0.686,-0.675,0.196,0.187,0,0,0,0,0,0,0,0,0,0.000,0,0,0.092,0.012,0.020,-0.040,0.080,0.014,0.994,0.009,-0.002,-0.012,-0.004,0.000,0.000,0.000,0.000,0,2,0,2,7,255,960,200,0,0,-89.349,0.882,-31.433
EX0521-092111,21,C12,prep,250,250,0,1065869.091,0.686,-0.675,0.196,0.187,0,0,0,0,0,0,0,0,0,0.000,0,0,0.477,0.011,-0.460,-0.100,0.080,0.015,0.994,0.012,0.008,-0.008,0.000,0.000,0.000,0.000,0.000,0,2,0,2,7,255,960,200,0,0,-89.349,0.882,-31.433
EX0521-092111,21,C12,prep,250,250,0,1065874.092,0.686,-0.675,0.196,0.187,0,0,0,0,0,0,0,0,0,0.000,0,0,0.357,0.008,0.340,-0.040,-0.100,0.015,0.993,0.011,0.008,0.000,0.000,0.000,0.000,0.000,0.000,0,2,0,2,7,255,960,200,0,0,-89.349,0.882,-31.433
EX0521-092111,21,C12,prep,284,284,0,1065879.092,0.686,-0.675,0.196,0.187,0,0,0,0,0,0,0,0,0,0.000,0,0,0.170,0.006,0.160,-0.040,-0.040,0.014,0.996,0.010,0.006,0.000,0.000,0.000,0.000,0.000,0.000,0,2,0,2,7,255,960,200,0,0,-89.349,0.882,-31.433
EX0521-092111,21,C12,prep,284,284,0,1065884.091,0.686,-0.675,0.196,0.187,0,0,0,0,0,0,0,0,0,0.000,0,0,0.536,0.004,-0.520,-0.100,0.080,0.014,0.993,0.012,0.004,0.000,-0.004,0.000,0.000,0.000,0.000,0,2,0,2,7,255,960,200,0,0,-89.349,0.882,-31.433
EX0521-092111,21,C12,prep,288,288,0,1065889.091,0.686,-0.675,0.196,0.187,0,0,0,0,0,0,0,0,0,0.000,0,0,0.115,0.002,0.100,-0.040,-0.040,0.014,0.993,0.013,0.000,-0.002,-0.010,0.000,0.000,0.000,0.000,0,2,0,2,7,255,960,200,0,0,-89.349,0.882,-31.433
EX0521-092111,21,C12,prep,288,288,0,1065894.092,0.686,-0.675,0.196,0.187,0,0,0,0,0,0,0,0,0,0.000,0,0,0.413,0.004,0.400,0.020,-0.100,0.013,0.996,0.011,-0.004,-0.002,-0.010,0.000,0.000,0.000,0.000,0,2,0,2,7,255,960,200,0,0,-89.349,0.882,-31.433
EX0521-092111,21,C12,prep,288,288,0,1065899.092,0.686,-0.675,0.196,0.187,0,0,0,0,0,0,0,0,0,0.000,0,0,0.355,0.013,-0.340,-0.100,0.020,0.014,0.993,0.010,-0.004,0.012,-0.010,0.000,0.000,0.000,0.000,0,2,0,2,7,255,960,200,0,0,-89.349,0.882,-31.433
EX0521-092111,21,C12,prep,288,288,0,1065904.093,0.686,-0.675,0.196,0.187,0,0,0,0,0,0,0,0,0,0.000,0,0,0.115,0.013,-0.040,-0.100,-0.040,0.015,0.994,0.013,-0.004,0.012,0.004,0.000,0.000,0.000,0.000,0,2,0,2,7,255,960,200,0,0,-89.349,0.882,-31.433
EX0521-092111,21,C12,prep,289,289,0,1065909.092,0.686,-0.675,0.196,0.187,0,0,0,0,0,0,0,0,0,0.000,0,0,0.471,0.002,0.460,0.020,-0.100,0.014,0.996,0.012,0.000,-0.002,0.004,0.000,0.000,0.000,0.000,0,2,0,2,7,255,960,200,0,0,-89.349,0.882,-31.433
EX0521-092111,21,C12,prep,289,289,0,1065914.092,0.686,-0.675,0.196,0.187,0,0,0,0,0,0,0,0,0,0.000,0,0,0.294,0.004,-0.280,-0.040,0.080,0.013,0.994,0.011,-0.004,-0.002,0.004,0.000,0.000,0.000,0.000,0,2,0,2,7,255,960,200,0,0,-89.349,0.882,-31.433
EX0521-092111,21,C12,prep,315,315,0,1065919.091,0.686,-0.675,0.196,0.187,0,0,0,0,0,0,0,0,0,0.000,0,0,0.170,0.003,-0.160,-0.040,-0.040,0.015,0.993,0.013,-0.002,-0.002,0.004,0.000,0.000,0.000,0.000,0,2,0,2,7,255,960,200,0,0,-89.349,0.882,-31.433
EX0521-092111,21,C12,prep,315,315,0,1065924.091,0.686,-0.675,0.196,0.187,0,0,0,0,0,0,0,0,0,0.000,0,0,0.355,0.006,0.340,0.020,-0.100,0.014,0.994,0.011,-0.002,0.006,0.000,0.000,0.000,0.000,0.000,0,2,0,2,7,255,960,200,0,0,-89.349,0.882,-31.433
EX0521-092111,21,C12,prep,319,319,0,1065929.092,0.686,-0.675,0.196,0.187,0,0,0,0,0,0,0,0,0,0.000,0,0,0.049,0.006,-0.040,0.020,0.020,0.013,0.995,0.010,-0.002,0.006,0.000,0.000,0.000,0.000,0.000,0,2,0,2,7,255,960,200,0,0,-89.349,0.882,-31.433
EX0521-092111,21,C12,prep,319,319,0,1065934.092,0.686,-0.675,0.196,0.187,0,0,0,0,0,0,0,0,0,0.000,0,0,0.308,0.007,-0.280,-0.100,0.080,0.015,0.994,0.012,0.004,0.006,0.000,0.000,0.000,0.000,0.000,0,2,0,2,7,255,960,200,0,0,-89.349,0.882,-31.433
EX0521-092111,21,C12,prep,319,319,0,1065939.092,0.686,-0.675,0.196,0.187,0,0,0,0,0,0,0,0,0,0.000,0,0,0.357,0.002,0.340,-0.040,-0.100,0.014,0.994,0.012,-0.002,0.000,0.000,0.000,0.000,0.000,0.000,0,2,0,2,7,255,960,200,0,0,-89.349,0.882,-31.433
EX0521-092111,21,C12,prep,319,319,0,1065944.092,0.686,-0.675,0.196,0.187,0,0,0,0,0,0,0,0,0,0.000,0,0,0.147,0.004,0.100,-0.040,-0.100,0.014,0.996,0.010,0.004,0.000,0.000,0.000,0.000,0.000,0.000,0,2,0,2,7,255,960,200,0,0,-89.349,0.882,-31.433
EX0521-092111,21,C12,prep,343,343,0,1065949.092,0.686,-0.675,0.196,0.187,0,0,0,0,0,0,0,0,0,0.000,0,0,0.363,0.007,-0.340,-0.100,0.080,0.014,0.993,0.011,0.004,0.006,0.000,0.000,0.000,0.000,0.000,0,2,0,2,7,255,960,200,0,0,-89.349,0.882,-31.433
EX0521-092111,21,C12,prep,343,343,0,1065954.091,0.686,-0.675,0.196,0.187,0,0,0,0,0,0,0,0,0,0.000,0,0,0.224,0.007,0.220,0.020,-0.040,0.013,0.993,0.012,0.004,0.006,-0.010,0.000,0.000,0.000,0.000,0,2,0,2,7,255,960,200,0,0,-89.349,0.882,-31.433
EX0521-092111,21,C12,prep,343,343,0,1065959.092,0.686,-0.675,0.196,0.187,0,0,0,0,0,0,0,0,0,0.000,0,0,0.193,0.007,0.160,0.040,-0.100,0.015,0.994,0.010,0.004,0.006,-0.010,0.000,0.000,0.000,0.000,0,2,0,2,7,255,960,200,0,0,-89.349,0.882,-31.433
EX0521-092111,21,C12,prep,343,343,0,1065964.093,0.686,-0.675,0.196,0.187,0,0,0,0,0,0,0,0,0,0.000,0,0,0.308,0.014,-0.280,-0.100,0.080,0.014,0.995,0.010,0.008,0.012,0.000,0.000,0.000,0.000,0.000,0,2,0,2,7,255,960,200,0,0,-89.349,0.882,-31.433
EX0521-092111,21,C12,prep,351,351,0,1065969.092,0.686,-0.675,0.196,0.187,0,0,0,0,0,0,0,0,0,0.000,0,0,0.115,0.014,0.100,-0.040,-0.040,0.015,0.993,0.012,0.008,0.012,0.000,0.000,0.000,0.000,0.000,0,2,0,2,7,255,960,200,0,0,-89.349,0.882,-31.433
EX0521-092111,21,C12,prep,351,351,0,1065974.091,0.686,-0.675,0.196,0.187,0,0,0,0,0,0,0,0,0,0.000,0,0,0.245,0.009,0.220,-0.040,-0.100,0.014,0.995,0.011,0.004,0.008,0.008,0.000,0.000,0.000,0.000,0,2,0,2,7,255,960,200,0,0,-89.349,0.882,-31.433
EX0521-092111,21,C12,prep,367,367,0,1065979.092,0.686,-0.675,0.196,0.187,0,0,0,0,0,0,0,0,0,0.000,0,0,0.224,0.004,-0.220,-0.040,0.020,0.015,0.994,0.011,0.004,0.000,0.000,0.000,0.000,0.000,0.000,0,2,0,2,7,255,960,200,0,0,-89.349,0.882,-31.433
EX0521-092111,21,C12,prep,367,367,0,1065984.092,0.686,-0.675,0.196,0.187,0,0,0,0,0,0,0,0,0,0.000,0,0,0.110,0.000,-0.100,-0.040,0.020,0.014,0.993,0.014,0.000,0.000,0.000,0.000,0.000,0.000,0.000,0,2,0,2,7,255,960,200,0,0,-89.349,0.882,-31.433
EX0521-092111,21,C12,prep,384,384,0,1065989.091,0.686,-0.675,0.196,0.187,0,0,0,0,0,0,0,0,0,0.000,0,0,0.300,0.002,0.280,0.040,-0.100,0.014,0.994,0.011,-0.002,0.000,0.000,0.000,0.000,0.000,0.000,0,2,0,2,7,255,960,200,0,0,-89.349,0.882,-31.433
EX0521-092111,21,C12,prep,384,384,0,1065994.091,0.686,-0.675,0.196,0.187,0,0,0,0,0,0,0,0,0,0.000,0,0,0.115,0.004,-0.100,-0.040,-0.040,0.014,0.994,0.010,-0.002,0.004,0.000,0.000,0.000,0.000,0.000,0,2,0,2,7,255,960,200,0,0,-89.349,0.882,-31.433
EX0521-092111,21,C12,prep,385,385,0,1065999.092,0.686,-0.675,0.196,0.187,0,0,0,0,0,0,0,0,0,0.000,0,0,0.166,0.004,-0.160,-0.040,0.020,0.014,0.993,0.012,-0.002,0.004,0.000,0.000,0.000,0.000,0.000,0,2,0,2,7,255,960,200,0,0,-89.349,0.882,-31.433
EX0521-092111,21,C12,prep,385,385,0,1066004.093,0.686,-0.675,0.196,0.187,0,0,0,0,0,0,0,0,0,0.000,0,0,0.245,0.006,0.220,0.100,-0.040,0.014,0.993,0.012,-0.004,-0.004,-0.006,0.000,0.000,0.000,0.000,0,2,0,2,7,255,960,200,0,0,-89.349,0.882,-31.433
EX0521-092111,21,C12,prep,399,399,0,1066009.093,0.686,-0.675,0.196,0.187,0,0,0,0,0,0,0,0,0,0.000,0,0,0.115,0.006,-0.100,-0.040,-0.040,0.014,0.995,0.011,-0.004,-0.004,-0.006,0.000,0.000,0.000,0.000,0,2,0,2,7,255,960,200,0,0,-89.349,0.882,-31.433
EX0521-092111,21,C12,prep,399,399,0,1066014.092,0.686,-0.675,0.196,0.187,0,0,0,0,0,0,0,0,0,0.000,0,0,0.255,0.004,-0.220,-0.100,0.080,0.015,0.994,0.013,0.000,-0.004,0.004,0.000,0.000,0.000,0.000,0,2,0,2,7,255,960,200,0,0,-89.349,0.882,-31.433
EX0521-092111,21,C12,prep,399,399,0,1066019.092,0.686,-0.675,0.196,0.187,0,0,0,0,0,0,0,0,0,0.000,0,0,0.166,0.010,0.160,0.020,-0.040,0.014,0.994,0.013,0.000,-0.010,0.004,0.000,0.000,0.000,0.000,0,2,0,2,7,255,960,200,0,0,-89.349,0.882,-31.433
EX0521-092111,21,C12,prep,399,399,0,1066024.091,0.686,-0.675,0.196,0.187,0,0,0,0,0,0,0,0,0,0.000,0,0,0.115,0.010,0.100,-0.040,-0.040,0.014,0.995,0.011,0.002,-0.010,0.004,0.000,0.000,0.000,0.000,0,2,0,2,7,255,960,200,0,0,-89.349,0.882,-31.433
EX0521-092111,21,C12,prep,399,399,0,1066029.091,0.686,-0.675,0.196,0.187,0,0,0,0,0,0,0,0,0,0.000,0,0,0.242,0.007,-0.220,-0.100,0.020,0.014,0.993,0.012,-0.006,-0.004,0.004,0.000,0.000,0.000,0.000,0,2,0,2,7,255,960,200,0,0,-89.349,0.882,-31.433
EX0521-092111,21,C12,prep,399,399,0,1066034.092,0.686,-0.675,0.196,0.187,0,0,0,0,0,0,0,0,0,0.000,0,0,0.170,0.004,0.160,-0.040,-0.040,0.014,0.993,0.011,-0.002,0.004,-0.006,0.000,0.000,0.000,0.000,0,2,0,2,7,255,960,200,0,0,-89.349,0.882,-31.433
EX0521-092111,21,C12,prep,415,415,0,1066039.093,0.686,-0.675,0.196,0.187,0,0,0,0,0,0,0,0,0,0.000,0,0,0.115,0.004,0.100,-0.040,-0.040,0.014,0.995,0.010,-0.002,0.004,-0.006,0.000,0.000,0.000,0.000,0,2,0,2,7,255,960,200,0,0,-89.349,0.882,-31.433
EX0521-092111,21,C12,prep,415,415,0,1066044.091,0.686,-0.675,0.196,0.187,0,0,0,0,0,0,0,0,0,0.000,0,0,0.224,0.008,-0.220,-0.040,0.020,0.014,0.994,0.011,0.000,0.008,0.004,0.000,0.000,0.000,0.000,0,2,0,2,7,255,960,200,0,0,-89.349,0.882,-31.433
EX0521-092111,21,C12,prep,431,431,0,1066049.092,0.686,-0.675,0.196,0.187,0,0,0,0,0,0,0,0,0,0.000,0,0,0.049,0.008,0.020,0.020,-0.040,0.014,0.993,0.012,0.000,0.008,0.004,0.000,0.000,0.000,0.000,0,2,0,2,7,255,960,200,0,0,-89.349,0.882,-31.433
EX0521-092111,21,C12,prep,431,431,0,1066054.092,0.686,-0.675,0.196,0.187,0,0,0,0,0,0,0,0,0,0.000,0,0,0.166,0.002,0.160,0.020,-0.040,0.015,0.993,0.011,0.000,-0.002,-0.006,0.000,0.000,0.000,0.000,0,2,0,2,7,255,960,200,0,0,-89.349,0.882,-31.433
EX0521-092111,21,C12,prep,447,447,0,1066059.091,0.686,-0.675,0.196,0.187,0,0,0,0,0,0,0,0,0,0.000,0,0,0.110,0.003,-0.100,-0.040,0.020,0.014,0.995,0.010,0.002,-0.002,-0.006,0.000,0.000,0.000,0.000,0,2,0,2,7,255,960,200,0,0,-89.349,0.882,-31.433
EX0521-092111,21,C12,prep,448,448,0,1066064.091,0.686,-0.675,0.196,0.187,0,0,0,0,0,0,0,0,0,0.000,0,0,0.110,0.003,-0.100,-0.040,0.020,0.014,0.994,0.013,0.002,-0.002,0.000,0.000,0.000,0.000,0.000,0,2,0,2,7,255,960,200,0,0,-89.349,0.882,-31.433
EX0521-092111,21,C12,prep,448,448,0,1066069.092,0.686,-0.675,0.196,0.187,0,0,0,0,0,0,0,0,0,0.000,0,0,0.245,0.006,0.220,-0.040,-0.100,0.015,0.994,0.012,0.002,-0.006,0.004,0.000,0.000,0.000,0.000,0,2,0,2,7,255,960,200,0,0,-89.349,0.882,-31.433
EX0521-092111,21,C12,prep,448,448,0,1066074.093,0.686,-0.675,0.196,0.187,0,0,0,0,0,0,0,0,0,0.000,0,0,0.110,0.007,-0.100,-0.040,0.020,0.016,0.994,0.011,0.004,-0.006,0.000,0.000,0.000,0.000,0.000,0,2,0,2,7,255,960,200,0,0,-89.349,0.882,-31.433
EX0521-092111,21,C12,prep,463,463,0,1066079.091,0.686,-0.675,0.196,0.187,0,0,0,0,0,0,0,0,0,0.000,0,0,0.115,0.007,-0.100,-0.040,-0.040,0.014,0.993,0.011,0.004,-0.006,0.000,0.000,0.000,0.000,0.000,0,2,0,2,7,255,960,200,0,0,-89.349,0.882,-31.433
EX0521-092111,21,C12,prep,463,463,0,1066084.092,0.686,-0.675,0.196,0.187,0,0,0,0,0,0,0,0,0,0.000,0,0,0.170,0.004,0.160,-0.040,-0.040,0.014,0.994,0.012,0.004,0.000,0.000,0.000,0.000,0.000,0.000,0,2,0,2,7,255,960,200,0,0,-89.349,0.882,-31.433
EX0521-092111,21,C12,prep,481,481,0,1066089.092,0.686,-0.675,0.196,0.187,0,0,0,0,0,0,0,0,0,0.000,0,0,0.049,0.007,0.020,-0.040,0.020,0.014,0.994,0.010,0.004,0.006,0.000,0.000,0.000,0.000,0.000,0,2,0,2,7,255,960,200,0,0,-89.349,0.882,-31.433
EX0521-092111,21,C12,prep,481,481,0,1066094.091,0.686,-0.675,0.196,0.187,0,0,0,0,0,0,0,0,0,0.000,0,0,0.193,0.002,-0.160,-0.100,-0.040,0.014,0.993,0.012,-0.002,0.000,0.000,0.000,0.000,0.000,0.000,0,2,0,2,7,255,960,200,0,0,-89.349,0.882,-31.433
EX0521-092111,21,C12,prep,495,495,0,1066099.093,0.686,-0.675,0.196,0.187,0,0,0,0,0,0,0,0,0,0.000,0,0,0.193,0.003,0.160,-0.100,-0.040,0.014,0.993,0.012,-0.002,-0.002,-0.006,0.000,0.000,0.000,0.000,0,2,0,2,7,255,960,200,0,0,-89.349,0.882,-31.433
EX0521-092111,21,C12,prep,495,495,0,1066104.093,0.686,-0.675,0.196,0.187,0,0,0,0,0,0,0,0,0,0.000,0,0,0.110,0.003,0.100,0.020,-0.040,0.014,0.993,0.011,-0.002,-0.002,-0.006,0.000,0.000,0.000,0.000,0,2,0,2,7,255,960,200,0,0,-89.349,0.882,-31.433
EX0521-092111,21,C12,prep,511,511,0,1066109.092,0.686,-0.675,0.196,0.187,0,0,0,0,0,0,0,0,0,0.000,0,0,0.170,0.007,-0.160,0.040,-0.040,0.014,0.993,0.012,-0.004,-0.006,-0.006,0.000,0.000,0.000,0.000,0,2,0,2,7,255,960,200,0,0,-89.349,0.882,-31.433
EX0521-092111,21,C12,prep,511,511,0,1066114.091,0.686,-0.675,0.196,0.187,0,0,0,0,0,0,0,0,0,0.000,0,0,0.115,0.003,-0.040,0.040,-0.100,0.014,0.993,0.012,-0.002,-0.002,-0.006,0.000,0.000,0.000,0.000,0,2,0,2,7,255,960,200,0,0,-89.349,0.882,-31.433
EX0521-092111,21,C12,prep,511,511,0,1066119.092,0.686,-0.675,0.196,0.187,0,0,0,0,0,0,0,0,0,0.000,0,0,0.115,0.003,0.100,-0.040,-0.040,0.014,0.994,0.011,-0.002,-0.002,-0.006,0.000,0.000,0.000,0.000,0,2,0,2,7,255,960,200,0,0,-89.349,0.882,-31.433
EX0521-092111,21,C12,prep,511,511,0,1066124.092,0.686,-0.675,0.196,0.187,0,0,0,0,0,0,0,0,0,0.000,0,0,0.110,0.006,-0.100,0.040,0.020,0.015,0.995,0.010,0.004,0.004,0.000,0.000,0.000,0.000,0.000,0,2,0,2,7,255,960,200,0,0,-89.349,0.882,-31.433
EX0521-092111,21,C12,prep,511,511,0,1066129.091,0.686,-0.675,0.196,0.187,0,0,0,0,0,0,0,0,0,0.000,0,0,0.147,0.006,-0.040,-0.100,-0.100,0.014,0.994,0.012,0.004,0.004,0.004,0.000,0.000,0.000,0.000,0,2,0,2,7,255,960,200,0,0,-89.349,0.882,-31.433
EX0521-092111,21,C12,prep,511,511,0,1066134.091,0.686,-0.675,0.196,0.187,0,0,0,0,0,0,0,0,0,0.000,0,0,0.115,0.008,0.100,-0.040,-0.040,0.015,0.993,0.011,0.008,0.002,0.004,0.000,0.000,0.000,0.000,0,2,0,2,7,255,960,200,0,0,-89.349,0.882,-31.433
EX0521-092111,21,C12,prep,511,511,0,1066139.092,0.686,-0.675,0.196,0.187,0,0,0,0,0,0,0,0,0,0.000,0,0,0.115,0.004,-0.100,-0.040,-0.040,0.014,0.994,0.011,0.004,0.002,0.004,0.000,0.000,0.000,0.000,0,2,0,2,7,255,960,200,0,0,-89.349,0.882,-31.433
EX0521-092111,21,C12,prep,511,511,0,1066144.092,0.686,-0.675,0.196,0.187,0,0,0,0,0,0,0,0,0,0.000,0,0,0.115,0.004,-0.100,-0.040,-0.040,0.015,0.993,0.012,0.004,0.002,-0.006,0.000,0.000,0.000,0.000,0,2,0,2,7,255,960,200,0,0,-89.349,0.882,-31.433
EX0521-092111,21,C12,prep,527,527,0,1066149.091,0.686,-0.675,0.196,0.187,0,0,0,0,0,0,0,0,0,0.000,0,0,0.115,0.006,0.100,-0.040,-0.040,0.014,0.994,0.012,0.000,-0.006,0.000,0.000,0.000,0.000,0.000,0,2,0,2,7,255,960,200,0,0,-89.349,0.882,-31.433
EX0521-092111,21,C12,prep,527,527,0,1066154.092,0.686,-0.675,0.196,0.187,0,0,0,0,0,0,0,0,0,0.000,0,0,0.110,0.006,-0.100,-0.040,0.020,0.014,0.992,0.011,0.000,-0.006,-0.006,0.000,0.000,0.000,0.000,0,2,0,2,7,255,960,200,0,0,-89.349,0.882,-31.433
EX0521-092111,21,C12,prep,544,544,0,1066159.092,0.686,-0.675,0.196,0.187,0,0,0,0,0,0,0,0,0,0.000,0,0,0.115,0.004,-0.100,0.040,-0.040,0.015,0.994,0.011,0.004,-0.002,0.000,0.000,0.000,0.000,0.000,0,2,0,2,7,255,960,200,0,0,-89.349,0.882,-31.433
EX0521-092111,21,C12,prep,544,544,0,1066164.093,0.686,-0.675,0.196,0.187,0,0,0,0,0,0,0,0,0,0.000,0,0,0.115,0.006,0.100,-0.040,-0.040,0.014,0.994,0.011,0.004,0.004,0.000,0.000,0.000,0.000,0.000,0,2,0,2,7,255,960,200,0,0,-89.349,0.882,-31.433
EX0521-092111,21,C12,prep,544,544,0,1066169.091,0.686,-0.675,0.196,0.187,0,0,0,0,0,0,0,0,0,0.000,0,0,0.069,0.004,-0.040,-0.040,-0.040,0.014,0.995,0.011,0.000,0.004,0.004,0.000,0.000,0.000,0.000,0,2,0,2,7,255,960,200,0,0,-89.349,0.882,-31.433
EX0521-092111,21,C12,prep,544,544,0,1066174.092,0.686,-0.675,0.196,0.187,0,0,0,0,0,0,0,0,0,0.000,0,0,0.115,0.004,-0.100,-0.040,-0.040,0.015,0.995,0.012,0.000,0.004,0.010,0.000,0.000,0.000,0.000,0,2,0,2,7,255,960,200,0,0,-89.349,0.882,-31.433
EX0521-092111,21,C12,prep,559,559,0,1066179.092,0.686,-0.675,0.196,0.187,0,0,0,0,0,0,0,0,0,0.000,0,0,0.069,0.006,0.040,-0.040,-0.040,0.015,0.995,0.012,0.000,-0.006,0.010,0.000,0.000,0.000,0.000,0,2,0,2,7,255,960,200,0,0,-89.349,0.882,-31.433
EX0521-092111,21,C12,prep,559,559,0,1066184.091,0.686,-0.675,0.196,0.187,0,0,0,0,0,0,0,0,0,0.000,0,0,0.069,0.010,0.040,0.040,-0.040,0.015,0.994,0.012,0.000,-0.010,0.010,0.000,0.000,0.000,0.000,0,2,0,2,7,255,960,200,0,0,-89.349,0.882,-31.433
EX0521-092111,21,C12,prep,591,591,0,1066189.092,0.686,-0.675,0.196,0.187,0,0,0,0,0,0,0,0,0,0.000,0,0,0.115,0.010,-0.100,-0.040,-0.040,0.015,0.994,0.010,0.000,-0.010,0.004,0.000,0.000,0.000,0.000,0,2,0,2,7,255,960,200,0,0,-89.349,0.882,-31.433
EX0521-092111,21,C12,prep,591,591,0,1066194.092,0.686,-0.675,0.196,0.187,0,0,0,0,0,0,0,0,0,0.000,0,0,0.069,0.006,0.040,-0.040,-0.040,0.015,0.993,0.011,0.006,-0.002,0.004,0.000,0.000,0.000,0.000,0,2,0,2,7,255,960,200,0,0,-89.349,0.882,-31.433
EX0521-092111,21,C12,prep,591,591,0,1066199.093,0.686,-0.675,0.196,0.187,0,0,0,0,0,0,0,0,0,0.000,0,0,0.115,0.007,0.100,0.040,-0.040,0.014,0.994,0.011,0.006,0.004,0.004,0.000,0.000,0.000,0.000,0,2,0,2,7,255,960,200,0,0,-89.349,0.882,-31.433
EX0521-092111,21,C12,prep,591,591,0,1066204.093,0.686,-0.675,0.196,0.187,0,0,0,0,0,0,0,0,0,0.000,0,0,0.060,0.004,-0.040,-0.040,0.020,0.014,0.993,0.010,0.002,0.004,-0.006,0.000,0.000,0.000,0.000,0,2,0,2,7,255,960,200,0,0,-89.349,0.882,-31.433
EX0521-092111,21,C12,prep,591,591,0,1066209.092,0.686,-0.675,0.196,0.187,0,0,0,0,0,0,0,0,0,0.000,0,0,0.060,0.004,0.020,-0.040,-0.040,0.014,0.992,0.012,-0.002,0.004,-0.006,0.000,0.000,0.000,0.000,0,2,0,2,7,255,960,200,0,0,-89.349,0.882,-31.433
EX0521-092111,21,C12,prep,591,591,0,1066214.092,0.686,-0.675,0.196,0.187,0,0,0,0,0,0,0,0,0,0.000,0,0,0.092,0.004,0.080,0.020,-0.040,0.014,0.994,0.012,-0.002,-0.004,-0.006,0.000,0.000,0.000,0.000,0,2,0,2,7,255,960,200,0,0,-89.349,0.882,-31.433
EX0521-092111,21,C12,prep,614,614,0,1066219.091,0.686,-0.675,0.196,0.187,0,0,0,0,0,0,0,0,0,0.000,0,0,0.060,0.004,-0.040,-0.040,0.020,0.014,0.995,0.010,-0.002,-0.004,0.004,0.000,0.000,0.000,0.000,0,2,0,2,7,255,960,200,0,0,-89.349,0.882,-31.433
EX0521-092111,21,C12,prep,614,614,0,1066224.092,0.686,-0.675,0.196,0.187,0,0,0,0,0,0,0,0,0,0.000,0,0,0.115,0.004,-0.040,-0.100,-0.040,0.015,0.994,0.011,0.004,-0.002,0.004,0.000,0.000,0.000,0.000,0,2,0,2,7,255,960,200,0,0,-89.349,0.882,-31.433
EX0521-092111,21,C12,prep,614,614,0,1066229.092,0.686,-0.675,0.196,0.187,0,0,0,0,0,0,0,0,0,0.000,0,0,0.049,0.007,0.020,0.020,-0.040,0.013,0.994,0.011,0.004,0.006,0.000,0.000,0.000,0.000,0.000,0,2,0,2,7,255,960,200,0,0,-89.349,0.883,-31.433
EX0521-092111,21,C12,prep,614,614,0,1066234.091,0.686,-0.675,0.196,0.187,0,0,0,0,0,0,0,0,0,0.000,0,0,0.060,0.008,-0.040,-0.040,0.020,0.013,0.995,0.012,-0.008,0.002,0.000,0.000,0.000,0.000,0.000,0,2,0,2,7,255,960,200,0,0,-89.349,0.883,-31.433
EX0521-092111,21,C12,prep,623,623,0,1066239.092,0.686,-0.675,0.196,0.187,0,0,0,0,0,0,0,0,0,0.000,0,0,0.143,0.008,-0.100,-0.100,0.020,0.014,0.993,0.012,-0.008,0.002,0.000,0.000,0.000,0.000,0.000,0,2,0,2,7,255,960,200,0,0,-89.349,0.883,-31.433
EX0521-092111,21,C12,prep,623,623,0,1066244.092,0.686,-0.675,0.196,0.187,0,0,0,0,0,0,0,0,0,0.000,0,0,0.060,0.004,0.020,-0.040,-0.040,0.014,0.994,0.011,-0.004,0.002,0.000,0.000,0.000,0.000,0.000,0,2,0,2,7,255,960,200,0,0,-89.349,0.883,-31.433
EX0521-092111,21,C12,prep,623,623,0,1066249.092,0.686,-0.675,0.196,0.187,0,0,0,0,0,0,0,0,0,0.000,0,0,0.049,0.009,0.020,0.020,-0.040,0.014,0.993,0.012,-0.004,-0.008,-0.006,0.000,0.000,0.000,0.000,0,2,0,2,7,255,960,200,0,0,-89.349,0.883,-31.433
EX0521-092111,21,C12,prep,623,623,0,1066254.091,0.686,-0.675,0.196,0.187,0,0,0,0,0,0,0,0,0,0.000,0,0,0.069,0.004,-0.040,-0.040,-0.040,0.014,0.994,0.011,-0.002,0.004,0.000,0.000,0.000,0.000,0.000,0,2,0,2,7,255,960,200,0,0,-89.349,0.883,-31.433
EX0521-092111,21,C12,prep,652,652,0,1066259.092,0.686,-0.675,0.196,0.187,0,0,0,0,0,0,0,0,0,0.000,0,0,0.115,0.003,0.100,-0.040,-0.040,0.014,0.993,0.012,-0.002,-0.002,-0.006,0.000,0.000,0.000,0.000,0,2,0,2,7,255,960,200,0,0,-89.349,0.883,-31.433
EX0521-092111,21,C12,prep,652,652,0,1066264.092,0.686,-0.675,0.196,0.187,0,0,0,0,0,0,0,0,0,0.000,0,0,0.060,0.004,0.020,-0.040,-0.040,0.014,0.993,0.010,-0.002,0.004,-0.006,0.000,0.000,0.000,0.000,0,2,0,2,7,255,960,200,0,0,-89.349,0.883,-31.433
EX0521-092111,21,C12,prep,652,652,0,1066269.091,0.686,-0.675,0.196,0.187,0,0,0,0,0,0,0,0,0,0.000,0,0,0.069,0.003,-0.040,-0.040,-0.040,0.014,0.993,0.012,-0.002,-0.002,-0.006,0.000,0.000,0.000,0.000,0,2,0,2,7,255,960,200,0,0,-89.349,0.883,-31.433
EX0521-092111,21,C12,prep,652,652,0,1066274.091,0.686,-0.675,0.196,0.187,0,0,0,0,0,0,0,0,0,0.000,0,0,0.049,0.008,0.020,-0.040,0.020,0.014,0.994,0.011,0.000,0.008,-0.006,0.000,0.000,0.000,0.000,0,2,0,2,7,255,960,200,0,0,-89.349,0.883,-31.433
EX0521-092111,21,C12,prep,655,655,0,1066279.092,0.686,-0.675,0.196,0.187,0,0,0,0,0,0,0,0,0,0.000,0,0,0.049,0.004,0.020,0.020,-0.040,0.014,0.994,0.011,-0.002,0.004,0.000,0.000,0.000,0.000,0.000,0,2,0,2,7,255,960,200,0,0,-89.349,0.883,-31.433
EX0521-092111,21,C12,prep,655,655,0,1066284.092,0.686,-0.675,0.196,0.187,0,0,0,0,0,0,0,0,0,0.000,0,0,0.069,0.006,-0.040,-0.040,-0.040,0.013,0.994,0.011,-0.002,0.006,0.000,0.000,0.000,0.000,0.000,0,2,0,2,7,255,960,200,0,0,-89.349,0.883,-31.433
EX0521-092111,21,C12,prep,689,689,0,1066289.091,0.686,-0.675,0.196,0.187,0,0,0,0,0,0,0,0,0,0.000,0,0,0.049,0.004,0.020,-0.040,0.020,0.015,0.994,0.012,-0.002,0.004,0.000,0.000,0.000,0.000,0.000,0,2,0,2,7,255,960,200,0,0,-89.349,0.883,-31.433
EX0521-092111,21,C12,prep,689,689,0,1066294.092,0.686,-0.675,0.196,0.187,0,0,0,0,0,0,0,0,0,0.000,0,0,0.060,0.003,0.020,-0.040,-0.040,0.014,0.995,0.012,-0.002,-0.002,0.004,0.000,0.000,0.000,0.000,0,2,0,2,7,255,960,200,0,0,-89.349,0.883,-31.433
EX0521-092111,21,C12,prep,689,689,0,1066299.092,0.686,-0.675,0.196,0.187,0,0,0,0,0,0,0,0,0,0.000,0,0,0.060,0.003,-0.040,0.020,-0.040,0.014,0.994,0.011,0.002,-0.002,0.004,0.000,0.000,0.000,0.000,0,2,0,2,7,255,960,200,0,0,-89.349,0.883,-31.433
EX0521-092111,21,C12,prep,689,689,0,1066304.093,0.686,-0.675,0.196,0.187,0,0,0,0,0,0,0,0,0,0.000,0,0,0.069,0.006,-0.040,-0.040,-0.040,0.014,0.994,0.011,0.000,0.006,0.004,0.000,0.000,0.000,0.000,0,2,0,2,7,255,960,200,0,0,-89.349,0.883,-31.433
EX0521-092111,21,C12,prep,689,689,0,1066309.091,0.686,-0.675,0.196,0.187,0,0,0,0,0,0,0,0,0,0.000,0,0,0.110,0.006,0.100,-0.040,0.020,0.014,0.994,0.011,0.002,0.006,0.004,0.000,0.000,0.000,0.000,0,2,0,2,7,255,960,200,0,0,-89.349,0.883,-31.433
EX0521-092111,21,C12,prep,689,689,0,1066314.092,0.686,-0.675,0.196,0.187,0,0,0,0,0,0,0,0,0,0.000,0,0,0.115,0.004,-0.040,-0.100,-0.040,0.014,0.994,0.011,0.000,0.004,0.000,0.000,0.000,0.000,0.000,0,2,0,2,7,255,960,200,0,0,-89.349,0.883,-31.433
EX0521-092111,21,C12,prep,717,717,0,1066319.092,0.686,-0.675,0.196,0.187,0,0,0,0,0,0,0,0,0,0.000,0,0,0.069,0.002,-0.040,-0.040,-0.040,0.015,0.994,0.012,0.002,0.000,0.000,0.000,0.000,0.000,0.000,0,2,0,2,7,255,960,200,0,0,-89.349,0.883,-31.433
EX0521-092111,21,C12,prep,717,717,0,1066324.091,0.686,-0.675,0.196,0.187,0,0,0,0,0,0,0,0,0,0.000,0,0,0.060,0.008,0.020,-0.040,-0.040,0.015,0.993,0.013,-0.002,-0.008,0.000,0.000,0.000,0.000,0.000,0,2,0,2,7,255,960,200,0,0,-89.349,0.883,-31.433
EX0521-092111,21,C12,prep,717,717,0,1066329.092,0.686,-0.675,0.196,0.187,0,0,0,0,0,0,0,0,0,0.000,0,0,0.110,0.008,0.100,0.020,-0.040,0.015,0.992,0.012,0.002,-0.008,-0.010,0.000,0.000,0.000,0.000,0,2,0,2,7,255,960,200,0,0,-89.349,0.883,-31.433
EX0521-092111,21,C12,prep,717,717,0,1066334.092,0.686,-0.675,0.196,0.187,0,0,0,0,0,0,0,0,0,0.000,0,0,0.115,0.006,-0.040,-0.100,-0.040,0.014,0.994,0.012,-0.002,-0.006,-0.010,0.000,0.000,0.000,0.000,0,2,0,2,7,255,960,200,0,0,-89.349,0.883,-31.433
EX0521-092111,21,C12,prep,729,729,0,1066339.092,0.686,-0.675,0.196,0.187,0,0,0,0,0,0,0,0,0,0.000,0,0,0.060,0.003,0.020,-0.040,-0.040,0.014,0.994,0.012,-0.002,-0.002,0.000,0.000,0.000,0.000,0.000,0,2,0,2,7,255,960,200,0,0,-89.349,0.883,-31.433
EX0521-092111,21,C12,prep,729,729,0,1066344.091,0.686,-0.675,0.196,0.187,0,0,0,0,0,0,0,0,0,0.000,0,0,0.060,0.002,0.020,-0.040,-0.040,0.014,0.995,0.010,-0.002,0.000,0.004,0.000,0.000,0.000,0.000,0,2,0,2,7,255,960,200,0,0,-89.349,0.883,-31.433
EX0521-092111,21,C12,prep,730,730,0,1066349.092,0.686,-0.675,0.196,0.187,0,0,0,0,0,0,0,0,0,0.000,0,0,0.115,0.002,-0.100,-0.040,-0.040,0.014,0.995,0.012,-0.002,0.000,0.010,0.000,0.000,0.000,0.000,0,2,0,2,7,255,960,200,0,0,-89.349,0.883,-31.433
EX0521-092111,21,C12,prep,730,730,0,1066354.091,0.686,-0.675,0.196,0.187,0,0,0,0,0,0,0,0,0,0.000,0,0,0.060,0.003,0.020,-0.040,-0.040,0.014,0.994,0.013,-0.002,-0.002,0.010,0.000,0.000,0.000,0.000,0,2,0,2,7,255,960,200,0,0,-89.349,0.883,-31.433
EX0521-092111,21,C12,prep,752,752,0,1066359.092,0.686,-0.675,0.196,0.187,0,0,0,0,0,0,0,0,0,0.000,0,0,0.060,0.009,0.040,-0.040,0.020,0.014,0.994,0.012,-0.008,-0.004,0.004,0.000,0.000,0.000,0.000,0,2,0,2,7,255,960,200,0,0,-89.349,0.883,-31.433
EX0521-092111,21,C12,prep,752,752,0,1066364.093,0.686,-0.675,0.196,0.187,0,0,0,0,0,0,0,0,0,0.000,0,0,0.060,0.009,-0.040,-0.040,0.020,0.015,0.994,0.011,-0.008,-0.004,0.004,0.000,0.000,0.000,0.000,0,2,0,2,7,255,960,200,0,0,-89.349,0.883,-31.433
EX0521-092111,21,C12,prep,752,752,0,1066369.092,0.686,-0.675,0.196,0.187,0,0,0,0,0,0,0,0,0,0.000,0,0,0.115,0.004,-0.040,-0.040,-0.100,0.015,0.994,0.012,0.002,-0.004,0.004,0.000,0.000,0.000,0.000,0,2,0,2,7,255,960,200,0,0,-89.349,0.883,-31.433
EX0521-092111,21,C12,prep,752,752,0,1066374.091,0.686,-0.675,0.196,0.187,0,0,0,0,0,0,0,0,0,0.000,0,0,0.069,0.003,0.040,-0.040,-0.040,0.013,0.995,0.011,0.002,0.002,0.004,0.000,0.000,0.000,0.000,0,2,0,2,7,255,960,200,0,0,-89.349,0.883,-31.433
EX0521-092111,21,C12,prep,752,752,0,1066379.091,0.686,-0.675,0.196,0.187,0,0,0,0,0,0,0,0,0,0.000,0,0,0.069,0.006,-0.040,0.040,-0.040,0.015,0.993,0.012,0.000,-0.006,0.004,0.000,0.000,0.000,0.000,0,2,0,2,7,255,960,200,0,0,-89.349,0.883,-31.433
EX0521-092111,21,C12,prep,752,752,0,1066384.092,0.686,-0.675,0.196,0.187,0,0,0,0,0,0,0,0,0,0.000,0,0,0.069,0.002,-0.040,0.040,-0.040,0.015,0.994,0.011,0.000,-0.002,0.000,0.000,0.000,0.000,0.000,0,2,0,2,7,255,960,200,0,0,-89.349,0.883,-31.433
EX0521-092111,21,C12,prep,783,783,0,1066389.091,0.686,-0.675,0.196,0.187,0,0,0,0,0,0,0,0,0,0.000,0,0,0.060,0.002,0.040,-0.040,0.020,0.014,0.994,0.012,0.000,-0.002,0.000,0.000,0.000,0.000,0.000,0,2,0,2,7,255,960,200,0,0,-89.349,0.883,-31.433
EX0521-092111,21,C12,prep,783,783,0,1066394.091,0.686,-0.675,0.196,0.187,0,0,0,0,0,0,0,0,0,0.000,0,0,0.069,0.003,0.040,-0.040,-0.040,0.014,0.994,0.011,0.002,-0.002,0.000,0.000,0.000,0.000,0.000,0,2,0,2,7,255,960,200,0,0,-89.349,0.883,-31.433
EX0521-092111,21,C12,prep,783,783,0,1066399.092,0.686,-0.675,0.196,0.187,0,0,0,0,0,0,0,0,0,0.000,0,0,0.115,0.003,-0.040,-0.040,-0.100,0.015,0.993,0.011,0.002,-0.002,0.000,0.000,0.000,0.000,0.000,0,2,0,2,7,255,960,200,0,0,-89.349,0.883,-31.433
EX0521-092111,21,C12,prep,783,783,0,1066404.093,0.686,-0.675,0.196,0.187,0,0,0,0,0,0,0,0,0,0.000,0,0,0.115,0.003,0.100,-0.040,-0.040,0.013,0.994,0.011,0.002,0.002,0.000,0.000,0.000,0.000,0.000,0,2,0,2,7,255,960,200,0,0,-89.349,0.883,-31.433
EX0521-092111,21,C12,prep,783,783,0,1066409.091,0.686,-0.675,0.196,0.187,0,0,0,0,0,0,0,0,0,0.000,0,0,0.060,0.008,0.020,-0.040,-0.040,0.014,0.993,0.010,0.006,0.006,-0.006,0.000,0.000,0.000,0.000,0,2,0,2,7,255,960,200,0,0,-89.349,0.883,-31.433
EX0521-092111,21,C12,prep,783,783,0,1066414.092,0.686,-0.675,0.196,0.187,0,0,0,0,0,0,0,0,0,0.000,0,0,0.060,0.006,-0.040,0.020,-0.040,0.014,0.993,0.011,-0.002,0.006,-0.006,0.000,0.000,0.000,0.000,0,2,0,2,7,255,960,200,0,0,-89.349,0.883,-31.433
EX0521-092111,21,C12,prep,818,818,0,1066419.092,0.686,-0.675,0.196,0.187,0,0,0,0,0,0,0,0,0,0.000,0,0,0.060,0.012,0.020,-0.040,-0.040,0.014,0.995,0.010,0.006,0.010,-0.006,0.000,0.000,0.000,0.000,0,2,0,2,7,255,960,200,0,0,-89.349,0.883,-31.433
EX0521-092111,21,C12,prep,818,818,0,1066424.092,0.686,-0.675,0.196,0.187,0,0,0,0,0,0,0,0,0,0.000,0,0,0.060,0.004,0.020,-0.040,-0.040,0.014,0.994,0.012,-0.002,0.004,0.000,0.000,0.000,0.000,0.000,0,2,0,2,7,255,960,200,0,0,-89.349,0.883,-31.433
EX0521-092111,21,C12,prep,820,820,0,1066429.091,0.686,-0.675,0.196,0.187,0,0,0,0,0,0,0,0,0,0.000,0,0,0.115,0.002,-0.040,-0.100,-0.040,0.015,0.993,0.012,0.000,-0.002,0.000,0.000,0.000,0.000,0.000,0,2,0,2,7,255,960,200,0,0,-89.349,0.883,-31.433
EX0521-092111,21,C12,prep,820,820,0,1066434.092,0.686,-0.675,0.196,0.187,0,0,0,0,0,0,0,0,0,0.000,0,0,0.069,0.002,-0.040,-0.040,-0.040,0.015,0.994,0.011,0.000,-0.002,0.000,0.000,0.000,0.000,0.000,0,2,0,2,7,255,960,200,0,0,-89.349,0.883,-31.433
EX0521-092111,21,C12,prep,820,820,0,1066439.092,0.686,-0.675,0.196,0.187,0,0,0,0,0,0,0,0,0,0.000,0,0,0.049,0.004,0.020,0.020,-0.040,0.014,0.994,0.011,0.004,0.002,0.000,0.000,0.000,0.000,0.000,0,2,0,2,7,255,960,200,0,0,-89.349,0.883,-31.433
EX0521-092111,21,C12,prep,820,820,0,1066444.091,0.686,-0.675,0.196,0.187,0,0,0,0,0,0,0,0,0,0.000,0,0,0.060,0.006,0.020,-0.040,-0.040,0.014,0.994,0.011,0.004,0.004,0.000,0.000,0.000,0.000,0.000,0,2,0,2,7,255,960,200,0,0,-89.349,0.883,-31.433
EX0521-092111,21,C12,prep,831,831,0,1066449.091,0.686,-0.675,0.196,0.187,0,0,0,0,0,0,0,0,0,0.000,0,0,0.069,0.004,-0.040,-0.040,-0.040,0.015,0.993,0.012,0.000,0.004,0.000,0.000,0.000,0.000,0.000,0,2,0,2,7,255,960,200,0,0,-89.349,0.883,-31.433
EX0521-092111,21,C12,prep,831,831,0,1066454.092,0.686,-0.675,0.196,0.187,0,0,0,0,0,0,0,0,0,0.000,0,0,0.115,0.004,0.100,-0.040,-0.040,0.013,0.993,0.012,-0.004,-0.002,-0.006,0.000,0.000,0.000,0.000,0,2,0,2,7,255,960,200,0,0,-89.349,0.883,-31.433
EX0521-092111,21,C12,prep,851,851,0,1066459.092,0.686,-0.675,0.196,0.187,0,0,0,0,0,0,0,0,0,0.000,0,0,0.060,0.008,-0.040,0.020,-0.040,0.015,0.993,0.012,0.000,-0.008,-0.006,0.000,0.000,0.000,0.000,0,2,0,2,7,255,960,200,0,0,-89.349,0.883,-31.433
EX0521-092111,21,C12,prep,851,851,0,1066464.091,0.686,-0.675,0.196,0.187,0,0,0,0,0,0,0,0,0,0.000,0,0,0.049,0.002,-0.040,0.020,0.020,0.014,0.994,0.011,0.000,-0.002,-0.006,0.000,0.000,0.000,0.000,0,2,0,2,7,255,960,200,0,0,-89.350,0.883,-31.433
EX0521-092111,21,C12,prep,852,852,0,1066469.092,0.686,-0.675,0.196,0.187,0,0,0,0,0,0,0,0,0,0.000,0,0,0.060,0.008,-0.040,-0.040,0.020,0.014,0.993,0.011,0.000,0.008,-0.006,0.000,0.000,0.000,0.000,0,2,0,2,7,255,960,200,0,0,-89.350,0.883,-31.433
EX0521-092111,21,C12,prep,852,852,0,1066474.092,0.686,-0.675,0.196,0.187,0,0,0,0,0,0,0,0,0,0.000,0,0,0.060,0.008,0.020,-0.040,-0.040,0.014,0.994,0.012,0.000,0.008,0.000,0.000,0.000,0.000,0.000,0,2,0,2,7,255,960,200,0,0,-89.350,0.883,-31.433
EX0521-092111,21,C12,prep,863,863,0,1066479.092,0.686,-0.675,0.196,0.187,0,0,0,0,0,0,0,0,0,0.000,0,0,0.049,0.002,-0.040,0.020,0.020,0.015,0.992,0.011,0.000,-0.002,-0.006,0.000,0.000,0.000,0.000,0,2,0,2,7,255,960,200,0,0,-89.350,0.883,-31.433
EX0521-092111,21,C12,prep,863,863,0,1066484.091,0.686,-0.675,0.196,0.187,0,0,0,0,0,0,0,0,0,0.000,0,0,0.115,0.002,-0.100,-0.040,-0.040,0.014,0.994,0.011,0.000,-0.002,0.000,0.000,0.000,0.000,0.000,0,2,0,2,7,255,960,200,0,0,-89.350,0.883,-31.433
EX0521-092111,21,C12,prep,895,895,0,1066489.092,0.686,-0.675,0.196,0.187,0,0,0,0,0,0,0,0,0,0.000,0,0,0.069,0.000,-0.040,-0.040,-0.040,0.014,0.993,0.012,0.000,0.000,-0.004,0.000,0.000,0.000,0.000,0,2,0,2,7,255,960,200,0,0,-89.350,0.883,-31.433
EX0521-092111,21,C12,prep,895,895,0,1066494.092,0.686,-0.675,0.196,0.187,0,0,0,0,0,0,0,0,0,0.000,0,0,0.060,0.002,-0.040,-0.040,0.020,0.014,0.994,0.011,0.000,0.002,0.000,0.000,0.000,0.000,0.000,0,2,0,2,7,255,960,200,0,0,-89.350,0.883,-31.433
EX0521-092111,21,C12,prep,917,917,0,1066499.092,0.686,-0.675,0.196,0.187,0,0,0,0,0,0,0,0,0,0.000,0,0,0.060,0.002,-0.040,0.020,-0.040,0.014,0.994,0.012,-0.002,0.000,0.000,0.000,0.000,0.000,0.000,0,2,0,2,7,255,960,200,0,0,-89.350,0.883,-31.433
EX0521-092111,21,C12,prep,917,917,0,1066504.093,0.686,-0.675,0.196,0.187,0,0,0,0,0,0,0,0,0,0.000,0,0,0.060,0.003,0.020,-0.040,-0.040,0.014,0.993,0.011,-0.002,0.002,0.000,0.000,0.000,0.000,0.000,0,2,0,2,7,255,960,200,0,0,-89.350,0.883,-31.433
EX0521-092111,21,C12,prep,917,917,0,1066509.092,0.686,-0.675,0.196,0.187,0,0,0,0,0,0,0,0,0,0.000,0,0,0.035,0.003,-0.020,-0.020,0.020,0.015,0.993,0.011,-0.002,0.002,-0.010,0.000,0.000,0.000,0.000,0,2,0,2,7,255,960,200,0,0,-89.350,0.883,-31.433
EX0521-092111,21,C12,prep,917,917,0,1066514.091,0.686,-0.675,0.196,0.187,0,0,0,0,0,0,0,0,0,0.000,0,0,0.035,0.007,-0.020,-0.020,0.020,0.014,0.994,0.010,0.006,0.004,-0.010,0.000,0.000,0.000,0.000,0,2,0,2,7,255,960,200,0,0,-89.350,0.883,-31.433
EX0521-092111,21,C12,prep,919,919,0,1066519.091,0.686,-0.675,0.196,0.187,0,0,0,0,0,0,0,0,0,0.000,0,0,0.049,0.006,-0.020,-0.020,-0.040,0.015,0.993,0.012,0.006,0.002,-0.004,0.000,0.000,0.000,0.000,0,2,0,2,7,255,960,200,0,0,-89.350,0.883,-31.433
EX0521-092111,21,C12,prep,919,919,0,1066524.092,0.686,-0.675,0.196,0.187,0,0,0,0,0,0,0,0,0,0.000,0,0,0.110,0.007,-0.020,-0.100,-0.040,0.014,0.994,0.011,0.004,0.006,0.000,0.000,0.000,0.000,0.000,0,2,0,2,7,255,960,200,0,0,-89.350,0.883,-31.433
EX0521-092111,21,C12,prep,920,920,0,1066529.092,0.686,-0.675,0.196,0.187,0,0,0,0,0,0,0,0,0,0.000,0,0,0.104,0.002,-0.100,-0.020,0.020,0.014,0.994,0.011,0.000,0.002,0.000,0.000,0.000,0.000,0.000,0,2,0,2,7,255,960,200,0,0,-89.350,0.883,-31.433
EX0521-092111,21,C12,prep,920,920,0,1066534.091,0.686,-0.675,0.196,0.187,0,0,0,0,0,0,0,0,0,0.000,0,0,0.104,0.002,-0.020,-0.020,-0.100,0.014,0.994,0.012,0.000,0.002,0.000,0.000,0.000,0.000,0.000,0,2,0,2,7,255,960,200,0,0,-89.350,0.883,-31.433
EX0521-092111,21,C12,prep,920,920,0,1066539.092,0.686,-0.675,0.196,0.187,0,0,0,0,0,0,0,0,0,0.000,0,0,0.049,0.006,0.040,-0.020,0.020,0.015,0.994,0.012,0.000,-0.006,0.000,0.000,0.000,0.000,0.000,0,2,0,2,7,255,960,200,0,0,-89.350,0.883,-31.433
EX0521-092111,21,C12,prep,920,920,0,1066544.092,0.686,-0.675,0.196,0.187,0,0,0,0,0,0,0,0,0,0.000,0,0,0.049,0.006,-0.020,-0.020,-0.040,0.014,0.994,0.011,0.000,-0.006,0.004,0.000,0.000,0.000,0.000,0,2,0,2,7,255,960,200,0,0,-89.350,0.883,-31.433
EX0521-092111,21,C12,prep,927,927,0,1066549.091,0.686,-0.675,0.196,0.187,0,0,0,0,0,0,0,0,0,0.000,0,0,0.060,0.000,0.040,-0.020,-0.040,0.014,0.994,0.012,0.000,0.000,0.004,0.000,0.000,0.000,0.000,0,2,0,2,7,255,960,200,0,0,-89.350,0.883,-31.433
EX0521-092111,21,C12,prep,927,927,0,1066554.091,0.686,-0.675,0.196,0.187,0,0,0,0,0,0,0,0,0,0.000,0,0,0.060,0.002,0.040,-0.020,-0.040,0.014,0.994,0.011,0.000,0.002,0.004,0.000,0.000,0.000,0.000,0,2,0,2,7,255,960,200,0,0,-89.350,0.883,-31.433
EX0521-092111,21,C12,prep,953,953,0,1066559.093,0.686,-0.675,0.196,0.187,0,0,0,0,0,0,0,0,0,0.000,0,0,0.060,0.007,0.020,-0.040,-0.040,0.014,0.994,0.011,0.004,0.006,0.000,0.000,0.000,0.000,0.000,0,2,0,2,7,255,960,200,0,0,-89.350,0.883,-31.433
EX0521-092111,21,C12,prep,953,953,0,1066564.093,0.686,-0.675,0.196,0.187,0,0,0,0,0,0,0,0,0,0.000,0,0,0.049,0.007,0.020,-0.040,0.020,0.013,0.993,0.012,0.004,0.006,0.000,0.000,0.000,0.000,0.000,0,2,0,2,7,255,960,200,0,0,-89.350,0.883,-31.433
EX0521-092111,21,C12,prep,953,953,0,1066569.091,0.686,-0.675,0.196,0.187,0,0,0,0,0,0,0,0,0,0.000,0,0,0.069,0.006,-0.040,0.040,-0.040,0.015,0.994,0.010,0.004,0.004,0.000,0.000,0.000,0.000,0.000,0,2,0,2,7,255,960,200,0,0,-89.350,0.883,-31.433
EX0521-092111,21,C12,prep,953,953,0,1066574.092,0.686,-0.675,0.196,0.187,0,0,0,0,0,0,0,0,0,0.000,0,0,0.049,0.004,0.020,0.040,0.020,0.014,0.993,0.011,0.000,0.004,-0.004,0.000,0.000,0.000,0.000,0,2,0,2,7,255,960,200,0,0,-89.350,0.883,-31.433
EX0521-092111,21,C12,prep,959,959,0,1066579.092,0.686,-0.675,0.196,0.187,0,0,0,0,0,0,0,0,0,0.000,0,0,0.060,0.000,0.020,-0.040,-0.040,0.014,0.994,0.012,0.000,0.000,0.004,0.000,0.000,0.000,0.000,0,2,0,2,7,255,960,200,0,0,-89.350,0.883,-31.433
EX0521-092111,21,C12,prep,959,959,0,1066584.091,0.686,-0.675,0.196,0.187,0,0,0,0,0,0,0,0,0,0.000,0,0,0.115,0.000,0.100,-0.040,-0.040,0.014,0.994,0.011,0.000,0.000,0.000,0.000,0.000,0.000,0.000,0,2,0,2,7,255,960,200,0,0,-89.350,0.883,-31.433
EX0521-092111,21,C12,prep,991,991,0,1066589.091,0.686,-0.675,0.196,0.187,0,0,0,0,0,0,0,0,0,0.000,0,0,0.060,0.002,0.020,-0.040,-0.040,0.014,0.994,0.012,-0.002,0.000,0.000,0.000,0.000,0.000,0.000,0,2,0,2,7,255,960,200,0,0,-89.350,0.883,-31.433
EX0521-092111,21,C12,prep,991,991,0,1066594.092,0.686,-0.675,0.196,0.187,0,0,0,0,0,0,0,0,0,0.000,0,0,0.143,0.000,0.100,-0.100,0.020,0.015,0.993,0.011,0.000,0.000,0.000,0.000,0.000,0.000,0.000,0,2,0,2,7,255,960,200,0,0,-89.350,0.883,-31.433
EX0521-092111,21,C12,prep,991,991,0,1066599.092,0.686,-0.675,0.196,0.187,0,0,0,0,0,0,0,0,0,0.000,0,0,0.060,0.004,0.020,-0.040,-0.040,0.014,0.993,0.011,0.004,0.000,-0.004,0.000,0.000,0.000,0.000,0,2,0,2,7,255,960,200,0,0,-89.350,0.883,-31.433
EX0521-092111,21,C12,prep,991,991,0,1066604.093,0.686,-0.675,0.196,0.187,0,0,0,0,0,0,0,0,0,0.000,0,0,0.069,0.004,-0.040,0.040,-0.040,0.014,0.993,0.012,0.004,0.000,-0.004,0.000,0.000,0.000,0.000,0,2,0,2,7,255,960,200,0,0,-89.350,0.883,-31.433
EX0521-092111,21,C12,prep,991,991,0,1066609.092,0.686,-0.675,0.196,0.187,0,0,0,0,0,0,0,0,0,0.000,0,0,0.035,0.000,0.020,0.020,0.020,0.015,0.994,0.012,0.000,0.000,-0.004,0.000,0.000,0.000,0.000,0,2,0,2,7,255,960,200,0,0,-89.350,0.883,-31.433
EX0521-092111,21,C12,prep,991,991,0,1066614.092,0.686,-0.675,0.196,0.187,0,0,0,0,0,0,0,0,0,0.000,0,0,0.060,0.006,0.020,-0.040,-0.040,0.015,0.992,0.012,0.000,-0.006,-0.010,0.000,0.000,0.000,0.000,0,2,0,2,7,255,960,200,0,0,-89.350,0.883,-31.433
EX0521-092111,21,C12,prep,1018,1018,0,1066619.091,0.686,-0.675,0.196,0.187,0,0,0,0,0,0,0,0,0,0.000,0,0,0.143,0.006,0.100,-0.100,0.020,0.014,0.994,0.011,0.002,-0.006,0.004,0.000,0.000,0.000,0.000,0,2,0,2,7,255,960,200,0,0,-89.350,0.883,-31.433
EX0521-092111,21,C12,prep,1018,1018,0,1066624.091,0.686,-0.675,0.196,0.187,0,0,0,0,0,0,0,0,0,0.000,0,0,0.069,0.007,-0.040,-0.040,-0.040,0.014,0.994,0.011,0.004,0.006,0.000,0.000,0.000,0.000,0.000,0,2,0,2,7,255,960,200,0,0,-89.350,0.883,-31.433
EX0521-092111,21,C12,prep,1018,1018,0,1066629.092,0.686,-0.675,0.196,0.187,0,0,0,0,0,0,0,0,0,0.000,0,0,0.110,0.007,0.020,-0.040,-0.100,0.015,0.993,0.012,0.004,0.006,0.000,0.000,0.000,0.000,0.000,0,2,0,2,7,255,960,200,0,0,-89.350,0.883,-31.433
EX0521-092111,21,C12,prep,1018,1018,0,1066634.092,0.686,-0.675,0.196,0.187,0,0,0,0,0,0,0,0,0,0.000,0,0,0.069,0.006,-0.040,-0.040,-0.040,0.015,0.993,0.012,0.002,-0.006,-0.004,0.000,0.000,0.000,0.000,0,2,0,2,7,255,960,200,0,0,-89.350,0.883,-31.433
EX0521-092111,21,C12,prep,1018,1018,0,1066639.092,0.686,-0.675,0.196,0.187,0,0,0,0,0,0,0,0,0,0.000,0,0,0.069,0.006,-0.040,-0.040,-0.040,0.015,0.993,0.013,0.002,-0.006,-0.004,0.000,0.000,0.000,0.000,0,2,0,2,7,255,960,200,0,0,-89.350,0.883,-31.433
EX0521-092111,21,C12,prep,1018,1018,0,1066644.092,0.686,-0.675,0.196,0.187,0,0,0,0,0,0,0,0,0,0.000,0,0,0.069,0.006,-0.040,-0.040,-0.040,0.015,0.992,0.011,0.002,-0.006,-0.004,0.000,0.000,0.000,0.000,0,2,0,2,7,255,960,200,0,0,-89.350,0.883,-31.433
EX0521-092111,21,C12,prep,1023,1023,0,1066649.092,0.686,-0.675,0.196,0.187,0,0,0,0,0,0,0,0,0,0.000,0,0,0.060,0.002,0.020,-0.040,-0.040,0.014,0.993,0.011,0.000,-0.002,-0.010,0.000,0.000,0.000,0.000,0,2,0,2,7,255,960,200,0,0,-89.350,0.883,-31.433
EX0521-092111,21,C12,prep,1023,1023,0,1066654.091,0.686,-0.675,0.196,0.187,0,0,0,0,0,0,0,0,0,0.000,0,0,0.060,0.003,0.020,-0.040,-0.040,0.015,0.994,0.012,0.002,-0.002,-0.010,0.000,0.000,0.000,0.000,0,2,0,2,7,255,960,200,0,0,-89.350,0.883,-31.433
EX0521-092111,21,C12,prep,1055,1055,0,1066659.091,0.686,-0.675,0.196,0.187,0,0,0,0,0,0,0,0,0,0.000,0,0,0.060,0.004,0.020,-0.040,-0.040,0.014,0.993,0.011,0.000,0.004,-0.010,0.000,0.000,0.000,0.000,0,2,0,2,7,255,960,200,0,0,-89.350,0.883,-31.433
EX0521-092111,21,C12,prep,1055,1055,0,1066664.092,0.686,-0.675,0.196,0.187,0,0,0,0,0,0,0,0,0,0.000,0,0,0.060,0.003,0.020,-0.040,-0.040,0.014,0.994,0.012,-0.002,-0.002,0.000,0.000,0.000,0.000,0.000,0,2,0,2,7,255,960,200,0,0,-89.350,0.883,-31.433
EX0521-092111,21,C12,prep,1055,1055,0,1066669.092,0.686,-0.675,0.196,0.187,0,0,0,0,0,0,0,0,0,0.000,0,0,0.049,0.004,0.020,-0.040,0.020,0.014,0.994,0.012,-0.004,-0.002,0.000,0.000,0.000,0.000,0.000,0,2,0,2,7,255,960,200,0,0,-89.350,0.883,-31.433
EX0521-092111,21,C12,prep,1055,1055,0,1066674.091,0.686,-0.675,0.196,0.187,0,0,0,0,0,0,0,0,0,0.000,0,0,0.035,0.004,0.020,0.020,0.020,0.014,0.993,0.011,-0.004,-0.002,0.000,0.000,0.000,0.000,0.000,0,2,0,2,7,255,960,200,0,0,-89.350,0.883,-31.433
EX0521-092111,21,C12,prep,1055,1055,0,1066679.092,0.686,-0.675,0.196,0.187,0,0,0,0,0,0,0,0,0,0.000,0,0,0.049,0.006,0.020,0.020,-0.040,0.015,0.993,0.010,-0.004,0.004,-0.008,0.000,0.000,0.000,0.000,0,2,0,2,7,255,960,200,0,0,-89.350,0.883,-31.433
EX0521-092111,21,C12,prep,1055,1055,0,1066684.092,0.686,-0.675,0.196,0.187,0,0,0,0,0,0,0,0,0,0.000,0,0,0.060,0.006,-0.040,-0.040,0.020,0.015,0.994,0.011,0.004,0.004,-0.008,0.000,0.000,0.000,0.000,0,2,0,2,7,255,960,200,0,0,-89.350,0.883,-31.433
EX0521-092111,21,C12,prep,1084,1084,0,1066689.091,0.686,-0.675,0.196,0.187,0,0,0,0,0,0,0,0,0,0.000,0,0,0.060,0.011,0.020,-0.040,-0.040,0.015,0.993,0.010,0.010,0.004,-0.008,0.000,0.000,0.000,0.000,0,2,0,2,7,255,960,200,0,0,-89.350,0.883,-31.433
EX0521-092111,21,C12,prep,1084,1084,0,1066694.091,0.686,-0.675,0.196,0.187,0,0,0,0,0,0,0,0,0,0.000,0,0,0.069,0.004,-0.040,-0.040,-0.040,0.014,0.993,0.012,0.004,-0.002,-0.004,0.000,0.000,0.000,0.000,0,2,0,2,7,255,960,200,0,0,-89.350,0.883,-31.433
EX0521-092111,21,C12,prep,1085,1085,0,1066699.092,0.686,-0.675,0.196,0.187,0,0,0,0,0,0,0,0,0,0.000,0,0,0.060,0.010,0.020,-0.040,-0.040,0.015,0.994,0.011,0.010,0.000,-0.004,0.000,0.000,0.000,0.000,0,2,0,2,7,255,960,200,0,0,-89.350,0.883,-31.433
EX0521-092111,21,C12,prep,1085,1085,0,1066704.093,0.686,-0.675,0.196,0.187,0,0,0,0,0,0,0,0,0,0.000,0,0,0.060,0.002,0.020,-0.040,-0.040,0.013,0.993,0.011,-0.002,0.000,-0.004,0.000,0.000,0.000,0.000,0,2,0,2,7,255,960,200,0,0,-89.350,0.883,-31.433
EX0521-092111,21,C12,prep,1086,1086,0,1066709.091,0.686,-0.675,0.196,0.187,0,0,0,0,0,0,0,0,0,0.000,0,0,0.069,0.004,-0.040,-0.040,-0.040,0.015,0.994,0.011,0.004,0.000,0.006,0.000,0.000,0.000,0.000,0,2,0,2,7,255,960,200,0,0,-89.350,0.883,-31.433
EX0521-092111,21,C12,prep,1086,1086,0,1066714.092,0.686,-0.675,0.196,0.187,0,0,0,0,0,0,0,0,0,0.000,0,0,0.060,0.003,0.040,-0.040,0.020,0.014,0.993,0.012,-0.002,-0.002,-0.004,0.000,0.000,0.000,0.000,0,2,0,2,7,255,960,200,0,0,-89.350,0.883,-31.433
EX0521-092111,21,C12,prep,1119,1119,0,1066719.092,0.686,-0.675,0.196,0.187,0,0,0,0,0,0,0,0,0,0.000,0,0,0.060,0.004,-0.040,-0.040,0.020,0.015,0.994,0.011,0.004,-0.002,0.006,0.000,0.000,0.000,0.000,0,2,0,2,7,255,960,200,0,0,-89.350,0.883,-31.433
EX0521-092111,21,C12,prep,1119,1119,0,1066724.091,0.686,-0.675,0.196,0.187,0,0,0,0,0,0,0,0,0,0.000,0,0,0.110,0.003,-0.040,-0.100,0.020,0.014,0.992,0.010,0.002,0.002,-0.004,0.000,0.000,0.000,0.000,0,2,0,2,7,255,960,200,0,0,-89.350,0.883,-31.433
EX0521-092111,21,C12,prep,1119,1119,0,1066729.091,0.686,-0.675,0.196,0.187,0,0,0,0,0,0,0,0,0,0.000,0,0,0.069,0.010,0.040,-0.040,-0.040,0.014,0.993,0.010,0.006,0.008,-0.008,0.000,0.000,0.000,0.000,0,2,0,2,7,255,960,200,0,0,-89.350,0.883,-31.433
EX0521-092111,21,C12,prep,1119,1119,0,1066734.092,0.686,-0.675,0.196,0.187,0,0,0,0,0,0,0,0,0,0.000,0,0,0.060,0.008,0.040,-0.040,0.020,0.014,0.994,0.012,0.002,0.008,-0.008,0.000,0.000,0.000,0.000,0,2,0,2,7,255,960,200,0,0,-89.350,0.883,-31.433
EX0521-092111,21,C12,prep,1119,1119,0,1066739.092,0.686,-0.675,0.196,0.187,0,0,0,0,0,0,0,0,0,0.000,0,0,0.069,0.007,-0.040,-0.040,-0.040,0.015,0.992,0.012,0.006,-0.004,-0.008,0.000,0.000,0.000,0.000,0,2,0,2,7,255,960,200,0,0,-89.350,0.883,-31.433
EX0521-092111,21,C12,prep,1119,1119,0,1066744.091,0.686,-0.675,0.196,0.187,0,0,0,0,0,0,0,0,0,0.000,0,0,0.115,0.004,0.040,-0.100,-0.040,0.014,0.994,0.012,-0.002,-0.004,0.000,0.000,0.000,0.000,0.000,0,2,0,2,7,255,960,200,0,0,-89.350,0.883,-31.433
EX0521-092111,21,C12,prep,1147,1147,0,1066749.092,0.686,-0.675,0.196,0.187,0,0,0,0,0,0,0,0,0,0.000,0,0,0.069,0.008,-0.040,-0.040,-0.040,0.015,0.994,0.012,0.000,-0.008,0.002,0.000,0.000,0.000,0.000,0,2,0,2,7,255,960,200,0,0,-89.350,0.883,-31.433
EX0521-092111,21,C12,prep,1147,1147,0,1066754.092,0.686,-0.675,0.196,0.187,0,0,0,0,0,0,0,0,0,0.000,0,0,0.115,0.004,-0.040,-0.040,-0.100,0.015,0.994,0.011,0.000,-0.004,0.006,0.000,0.000,0.000,0.000,0,2,0,2,7,255,960,200,0,0,-89.350,0.883,-31.433
EX0521-092111,21,C12,prep,1147,1147,0,1066759.092,0.686,-0.675,0.196,0.187,0,0,0,0,0,0,0,0,0,0.000,0,0,0.069,0.002,-0.040,-0.040,-0.040,0.014,0.994,0.012,0.000,-0.002,0.002,0.000,0.000,0.000,0.000,0,2,0,2,7,255,960,200,0,0,-89.350,0.883,-31.433
EX0521-092111,21,C12,prep,1147,1147,0,1066764.093,0.686,-0.675,0.196,0.187,0,0,0,0,0,0,0,0,0,0.000,0,0,0.069,0.004,-0.040,-0.040,-0.040,0.015,0.993,0.011,0.004,-0.002,0.000,0.000,0.000,0.000,0.000,0,2,0,2,7,255,960,200,0,0,-89.350,0.883,-31.433
EX0521-092111,21,C12,prep,1147,1147,0,1066769.092,0.686,-0.675,0.196,0.187,0,0,0,0,0,0,0,0,0,0.000,0,0,0.060,0.006,0.020,-0.040,-0.040,0.015,0.995,0.012,0.006,-0.002,0.000,0.000,0.000,0.000,0.000,0,2,0,2,7,255,960,200,0,0,-89.350,0.883,-31.433
EX0521-092111,21,C12,prep,1147,1147,0,1066774.092,0.686,-0.675,0.196,0.187,0,0,0,0,0,0,0,0,0,0.000,0,0,0.060,0.006,0.020,-0.040,-0.040,0.014,0.994,0.011,0.006,0.000,0.000,0.000,0.000,0.000,0.000,0,2,0,2,7,255,960,200,0,0,-89.350,0.883,-31.433
EX0521-092111,21,C12,prep,1179,1179,0,1066779.091,0.686,-0.675,0.196,0.187,0,0,0,0,0,0,0,0,0,0.000,0,0,0.110,0.002,0.020,-0.100,-0.040,0.013,0.994,0.012,0.000,0.002,0.000,0.000,0.000,0.000,0.000,0,2,0,2,7,255,960,200,0,0,-89.350,0.883,-31.433
EX0521-092111,21,C12,prep,1179,1179,0,1066784.092,0.686,-0.675,0.196,0.187,0,0,0,0,0,0,0,0,0,0.000,0,0,0.069,0.002,-0.040,-0.040,-0.040,0.014,0.993,0.011,0.000,0.002,0.000,0.000,0.000,0.000,0.000,0,2,0,2,7,255,960,200,0,0,-89.350,0.883,-31.433
EX0521-092111,21,C12,prep,1199,1199,0,1066789.092,0.686,-0.675,0.196,0.187,0,0,0,0,0,0,0,0,0,0.000,0,0,0.069,0.002,-0.040,0.040,-0.040,0.014,0.993,0.011,0.000,0.002,-0.004,0.000,0.000,0.000,0.000,0,2,0,2,7,255,960,200,0,0,-89.350,0.883,-31.433
EX0521-092111,21,C12,prep,1199,1199,0,1066794.091,0.686,-0.675,0.196,0.187,0,0,0,0,0,0,0,0,0,0.000,0,0,0.069,0.002,-0.040,-0.040,-0.040,0.015,0.994,0.011,0.000,0.002,-0.004,0.000,0.000,0.000,0.000,0,2,0,2,7,255,960,200,0,0,-89.350,0.883,-31.433
EX0521-092111,21,C12,prep,1199,1199,0,1066799.092,0.686,-0.675,0.196,0.187,0,0,0,0,0,0,0,0,0,0.000,0,0,0.060,0.002,-0.040,-0.040,0.020,0.014,0.994,0.011,0.000,0.002,0.000,0.000,0.000,0.000,0.000,0,2,0,2,7,255,960,200,0,0,-89.350,0.883,-31.433
EX0521-092111,21,C12,prep,1199,1199,0,1066804.093,0.686,-0.675,0.196,0.187,0,0,0,0,0,0,0,0,0,0.000,0,0,0.110,0.008,-0.100,-0.040,0.020,0.014,0.993,0.011,-0.002,0.008,0.000,0.000,0.000,0.000,0.000,0,2,0,2,7,255,960,200,0,0,-89.350,0.883,-31.433
EX0521-092111,21,C12,prep,1199,1199,0,1066809.092,0.686,-0.675,0.196,0.187,0,0,0,0,0,0,0,0,0,0.000,0,0,0.069,0.008,-0.040,-0.040,-0.040,0.015,0.994,0.011,-0.002,0.008,0.000,0.000,0.000,0.000,0.000,0,2,0,2,7,255,960,200,0,0,-89.350,0.883,-31.433
EX0521-092111,21,C12,prep,1199,1199,0,1066814.091,0.686,-0.675,0.196,0.187,0,0,0,0,0,0,0,0,0,0.000,0,0,0.092,0.004,0.080,0.020,-0.040,0.014,0.993,0.011,-0.002,0.004,-0.004,0.000,0.000,0.000,0.000,0,2,0,2,7,255,960,200,0,0,-89.350,0.883,-31.433
EX0521-092111,21,C12,prep,1225,1225,0,1066819.092,0.686,-0.675,0.196,0.187,0,0,0,0,0,0,0,0,0,0.000,0,0,0.060,0.000,-0.040,-0.040,0.020,0.014,0.993,0.011,0.000,0.000,-0.004,0.000,0.000,0.000,0.000,0,2,0,2,7,255,960,200,0,0,-89.350,0.883,-31.433
EX0521-092111,21,C12,prep,1225,1225,0,1066824.092,0.686,-0.675,0.196,0.187,0,0,0,0,0,0,0,0,0,0.000,0,0,0.049,0.000,0.020,-0.040,0.020,0.015,0.994,0.011,0.000,0.000,-0.004,0.000,0.000,0.000,0.000,0,2,0,2,7,255,960,200,0,0,-89.350,0.883,-31.433
EX0521-092111,21,C12,prep,1225,1225,0,1066829.092,0.686,-0.675,0.196,0.187,0,0,0,0,0,0,0,0,0,0.000,0,0,0.049,0.000,0.020,-0.040,0.020,0.014,0.993,0.011,0.000,0.000,-0.004,0.000,0.000,0.000,0.000,0,2,0,2,7,255,960,200,0,0,-89.350,0.883,-31.433
EX0521-092111,21,C12,prep,1225,1225,0,1066834.091,0.686,-0.675,0.196,0.187,0,0,0,0,0,0,0,0,0,0.000,0,0,0.069,0.006,-0.040,-0.040,-0.040,0.014,0.994,0.013,-0.004,-0.004,0.006,0.000,0.000,0.000,0.000,0,2,0,2,7,255,960,200,0,0,-89.350,0.883,-31.433
EX0521-092111,21,C12,prep,1226,1226,0,1066839.092,0.686,-0.675,0.196,0.187,0,0,0,0,0,0,0,0,0,0.000,0,0,0.069,0.004,-0.040,-0.040,-0.040,0.014,0.994,0.011,-0.004,0.002,0.002,0.000,0.000,0.000,0.000,0,2,0,2,7,255,960,200,0,0,-89.350,0.884,-31.433
EX0521-092111,21,C12,prep,1226,1226,0,1066844.092,0.686,-0.675,0.196,0.187,0,0,0,0,0,0,0,0,0,0.000,0,0,0.060,0.006,-0.040,-0.040,0.020,0.015,0.993,0.012,0.000,-0.006,0.002,0.000,0.000,0.000,0.000,0,2,0,2,7,255,960,200,0,0,-89.350,0.884,-31.433
EX0521-092111,21,C12,prep,1227,1227,0,1066849.091,0.686,-0.675,0.196,0.187,0,0,0,0,0,0,0,0,0,0.000,0,0,0.110,0.003,0.020,-0.100,-0.040,0.015,0.994,0.011,0.002,-0.002,0.002,0.000,0.000,0.000,0.000,0,2,0,2,7,255,960,200,0,0,-89.350,0.884,-31.433
EX0521-092111,21,C12,prep,1227,1227,0,1066854.091,0.686,-0.675,0.196,0.187,0,0,0,0,0,0,0,0,0,0.000,0,0,0.060,0.006,-0.040,-0.040,0.020,0.015,0.993,0.012,0.002,-0.006,-0.004,0.000,0.000,0.000,0.000,0,2,0,2,7,255,960,200,0,0,-89.350,0.884,-31.433
EX0521-092111,21,C12,prep,1231,1231,0,1066859.092,0.686,-0.675,0.196,0.187,0,0,0,0,0,0,0,0,0,0.000,0,0,0.069,0.003,-0.040,-0.040,-0.040,0.014,0.993,0.011,0.002,-0.002,-0.004,0.000,0.000,0.000,0.000,0,2,0,2,7,255,960,200,0,0,-89.350,0.884,-31.433
EX0521-092111,21,C12,prep,1231,1231,0,1066864.092,0.686,-0.675,0.196,0.187,0,0,0,0,0,0,0,0,0,0.000,0,0,0.060,0.006,-0.040,-0.040,0.020,0.014,0.992,0.012,0.002,-0.006,-0.004,0.000,0.000,0.000,0.000,0,2,0,2,7,255,960,200,0,0,-89.350,0.884,-31.433
EX0521-092111,21,C12,prep,1247,1247,0,1066869.091,0.686,-0.675,0.196,0.187,0,0,0,0,0,0,0,0,0,0.000,0,0,0.115,0.009,-0.040,-0.100,-0.040,0.014,0.992,0.012,-0.004,-0.008,-0.012,0.000,0.000,0.000,0.000,0,2,0,2,7,255,960,200,0,0,-89.350,0.884,-31.433
EX0521-092111,21,C12,prep,1247,1247,0,1066874.092,0.686,-0.675,0.196,0.187,0,0,0,0,0,0,0,0,0,0.000,0,0,0.069,0.009,-0.040,-0.040,-0.040,0.015,0.996,0.012,-0.004,-0.008,-0.012,0.000,0.000,0.000,0.000,0,2,0,2,7,255,960,200,0,0,-89.350,0.884,-31.433
EX0521-092111,21,C12,prep,1263,1263,0,1066879.092,0.686,-0.675,0.196,0.187,0,0,0,0,0,0,0,0,0,0.000,0,0,0.060,0.008,-0.040,-0.040,0.020,0.015,0.995,0.012,0.000,-0.008,0.010,0.000,0.000,0.000,0.000,0,2,0,2,7,255,960,200,0,0,-89.350,0.884,-31.433
EX0521-092111,21,C12,prep,1263,1263,0,1066884.091,0.686,-0.675,0.196,0.187,0,0,0,0,0,0,0,0,0,0.000,0,0,0.069,0.004,-0.040,0.040,-0.040,0.013,0.995,0.011,0.000,-0.004,0.010,0.000,0.000,0.000,0.000,0,2,0,2,7,255,960,200,0,0,-89.350,0.884,-31.433
EX0521-092111,21,C12,prep,1295,1295,0,1066889.091,0.686,-0.675,0.196,0.187,0,0,0,0,0,0,0,0,0,0.000,0,0,0.060,0.003,0.020,-0.040,-0.040,0.014,0.995,0.012,-0.002,-0.002,0.010,0.000,0.000,0.000,0.000,0,2,0,2,7,255,960,200,0,0,-89.350,0.884,-31.433
EX0521-092111,21,C12,prep,1295,1295,0,1066894.092,0.686,-0.675,0.196,0.187,0,0,0,0,0,0,0,0,0,0.000,0,0,0.115,0.003,-0.040,-0.040,-0.100,0.016,0.994,0.011,-0.002,-0.002,0.010,0.000,0.000,0.000,0.000,0,2,0,2,7,255,960,200,0,0,-89.350,0.884,-31.433
EX0521-092111,21,C12,prep,1295,1295,0,1066899.092,0.686,-0.675,0.196,0.187,0,0,0,0,0,0,0,0,0,0.000,0,0,0.069,0.003,-0.040,-0.040,-0.040,0.014,0.994,0.011,-0.002,-0.002,0.002,0.000,0.000,0.000,0.000,0,2,0,2,7,255,960,200,0,0,-89.350,0.884,-31.433
EX0521-092111,21,C12,prep,1295,1295,0,1066904.093,0.686,-0.675,0.196,0.187,0,0,0,0,0,0,0,0,0,0.000,0,0,0.069,0.004,-0.040,-0.040,-0.040,0.015,0.994,0.011,0.004,-0.002,0.000,0.000,0.000,0.000,0.000,0,2,0,2,7,255,960,200,0,0,-89.350,0.884,-31.433
EX0521-092111,21,C12,prep,1295,1295,0,1066909.092,0.686,-0.675,0.196,0.187,0,0,0,0,0,0,0,0,0,0.000,0,0,0.069,0.008,-0.040,0.040,-0.040,0.013,0.993,0.011,-0.002,0.008,0.000,0.000,0.000,0.000,0.000,0,2,0,2,7,255,960,200,0,0,-89.350,0.884,-31.433
EX0521-092111,21,C12,prep,1295,1295,0,1066914.092,0.686,-0.675,0.196,0.187,0,0,0,0,0,0,0,0,0,0.000,0,0,0.049,0.006,0.020,0.040,0.020,0.014,0.993,0.011,-0.004,0.004,-0.004,0.000,0.000,0.000,0.000,0,2,0,2,7,255,960,200,0,0,-89.350,0.884,-31.433
EX0521-092111,21,C12,prep,1312,1312,0,1066919.092,0.686,-0.675,0.196,0.187,0,0,0,0,0,0,0,0,0,0.000,0,0,0.060,0.007,-0.040,-0.040,0.020,0.013,0.994,0.012,-0.006,0.004,-0.004,0.000,0.000,0.000,0.000,0,2,0,2,7,255,960,200,0,0,-89.350,0.884,-31.433
EX0521-092111,21,C12,prep,1312,1312,0,1066924.091,0.686,-0.675,0.196,0.187,0,0,0,0,0,0,0,0,0,0.000,0,0,0.069,0.004,-0.040,0.040,-0.040,0.015,0.993,0.012,-0.004,0.002,-0.004,0.000,0.000,0.000,0.000,0,2,0,2,7,255,960,200,0,0,-89.350,0.884,-31.433
EX0521-092111,21,C12,prep,1312,1312,0,1066929.092,0.686,-0.675,0.196,0.187,0,0,0,0,0,0,0,0,0,0.000,0,0,0.069,0.002,-0.040,-0.040,-0.040,0.014,0.993,0.011,0.000,0.002,-0.004,0.000,0.000,0.000,0.000,0,2,0,2,7,255,960,200,0,0,-89.350,0.884,-31.433
EX0521-092111,21,C12,prep,1312,1312,0,1066934.092,0.686,-0.675,0.196,0.187,0,0,0,0,0,0,0,0,0,0.000,0,0,0.049,0.006,0.020,-0.040,0.020,0.014,0.993,0.011,0.000,0.006,-0.004,0.000,0.000,0.000,0.000,0,2,0,2,7,255,960,200,0,0,-89.350,0.884,-31.433
EX0521-092111,21,C12,prep,1327,1327,0,1066939.092,0.686,-0.675,0.196,0.187,0,0,0,0,0,0,0,0,0,0.000,0,0,0.069,0.006,-0.040,-0.040,-0.040,0.015,0.994,0.012,0.002,0.006,-0.004,0.000,0.000,0.000,0.000,0,2,0,2,7,255,960,200,0,0,-89.350,0.884,-31.433
EX0521-092111,21,C12,prep,1327,1327,0,1066944.092,0.686,-0.675,0.196,0.187,0,0,0,0,0,0,0,0,0,0.000,0,0,0.115,0.010,-0.040,-0.040,-0.100,0.015,0.994,0.012,0.006,-0.008,0.002,0.000,0.000,0.000,0.000,0,2,0,2,7,255,960,200,0,0,-89.350,0.884,-31.433
EX0521-092111,21,C12,prep,1327,1327,0,1066949.092,0.686,-0.675,0.196,0.187,0,0,0,0,0,0,0,0,0,0.000,0,0,0.060,0.010,0.020,-0.040,-0.040,0.013,0.995,0.011,0.006,-0.008,0.006,0.000,0.000,0.000,0.000,0,2,0,2,7,255,960,200,0,0,-89.350,0.884,-31.433
EX0521-092111,21,C12,prep,1327,1327,0,1066954.092,0.686,-0.675,0.196,0.187,0,0,0,0,0,0,0,0,0,0.000,0,0,0.110,0.006,-0.100,-0.040,0.020,0.015,0.995,0.012,0.002,-0.006,0.010,0.000,0.000,0.000,0.000,0,2,0,2,7,255,960,200,0,0,-89.350,0.884,-31.433
EX0521-092111,21,C12,prep,1343,1343,0,1066959.093,0.686,-0.675,0.196,0.187,0,0,0,0,0,0,0,0,0,0.000,0,0,0.110,0.003,0.020,-0.100,-0.040,0.015,0.994,0.011,0.002,-0.002,0.010,0.000,0.000,0.000,0.000,0,2,0,2,7,255,960,200,0,0,-89.350,0.884,-31.433
EX0521-092111,21,C12,prep,1343,1343,0,1066964.093,0.686,-0.675,0.196,0.187,0,0,0,0,0,0,0,0,0,0.000,0,0,0.060,0.004,-0.040,-0.040,0.020,0.014,0.994,0.010,0.004,-0.002,0.000,0.000,0.000,0.000,0.000,0,2,0,2,7,255,960,200,0,0,-89.350,0.884,-31.433
EX0521-092111,21,C12,prep,1343,1343,0,1066969.092,0.686,-0.675,0.196,0.187,0,0,0,0,0,0,0,0,0,0.000,0,0,0.060,0.006,0.020,-0.040,-0.040,0.015,0.994,0.011,0.006,-0.002,0.000,0.000,0.000,0.000,0.000,0,2,0,2,7,255,960,200,0,0,-89.350,0.884,-31.433
EX0521-092111,21,C12,prep,1343,1343,0,1066974.091,0.686,-0.675,0.196,0.187,0,0,0,0,0,0,0,0,0,0.000,0,0,0.069,0.006,-0.040,-0.040,-0.040,0.014,0.995,0.011,0.006,0.002,0.006,0.000,0.000,0.000,0.000,0,2,0,2,7,255,960,200,0,0,-89.350,0.884,-31.433
EX0521-092111,21,C12,prep,1359,1359,0,1066979.092,0.686,-0.675,0.196,0.187,0,0,0,0,0,0,0,0,0,0.000,0,0,0.110,0.004,0.020,-0.040,-0.100,0.015,0.994,0.011,0.004,-0.002,0.006,0.000,0.000,0.000,0.000,0,2,0,2,7,255,960,200,0,0,-89.350,0.884,-31.433
EX0521-092111,21,C12,prep,1359,1359,0,1066984.092,0.686,-0.675,0.196,0.187,0,0,0,0,0,0,0,0,0,0.000,0,0,0.060,0.002,-0.040,-0.040,0.020,0.014,0.994,0.012,0.000,-0.002,0.006,0.000,0.000,0.000,0.000,0,2,0,2,7,255,960,200,0,0,-89.350,0.884,-31.433
EX0521-092111,21,C12,prep,1391,1391,0,1066989.092,0.686,-0.675,0.196,0.187,0,0,0,0,0,0,0,0,0,0.000,0,0,0.049,0.003,0.020,0.020,-0.040,0.015,0.994,0.012,0.002,-0.002,0.000,0.000,0.000,0.000,0.000,0,2,0,2,7,255,960,200,0,0,-89.350,0.884,-31.433
EX0521-092111,21,C12,prep,1391,1391,0,1066994.091,0.686,-0.675,0.196,0.187,0,0,0,0,0,0,0,0,0,0.000,0,0,0.069,0.003,-0.040,-0.040,-0.040,0.014,0.994,0.011,-0.002,-0.002,0.000,0.000,0.000,0.000,0.000,0,2,0,2,7,255,960,200,0,0,-89.350,0.884,-31.433
EX0521-092111,21,C12,prep,1391,1391,0,1066999.092,0.686,-0.675,0.196,0.187,0,0,0,0,0,0,0,0,0,0.000,0,0,0.060,0.006,0.020,-0.040,-0.040,0.015,0.993,0.012,0.002,-0.006,0.000,0.000,0.000,0.000,0.000,0,2,0,2,7,255,960,200,0,0,-89.350,0.884,-31.433
EX0521-092111,21,C12,prep,1391,1391,0,1067004.093,0.686,-0.675,0.196,0.187,0,0,0,0,0,0,0,0,0,0.000,0,0,0.060,0.004,-0.040,-0.040,0.020,0.014,0.993,0.011,0.002,0.004,-0.004,0.000,0.000,0.000,0.000,0,2,0,2,7,255,960,200,0,0,-89.350,0.884,-31.433
EX0521-092111,21,C12,prep,1391,1391,0,1067009.091,0.686,-0.675,0.196,0.187,0,0,0,0,0,0,0,0,0,0.000,0,0,0.049,0.006,0.020,0.040,0.020,0.015,0.993,0.011,0.006,0.000,-0.008,0.000,0.000,0.000,0.000,0,2,0,2,7,255,960,200,0,0,-89.350,0.884,-31.433
EX0521-092111,21,C12,prep,1391,1391,0,1067014.091,0.686,-0.675,0.196,0.187,0,0,0,0,0,0,0,0,0,0.000,0,0,0.060,0.002,0.020,-0.040,-0.040,0.015,0.994,0.012,0.002,0.000,-0.008,0.000,0.000,0.000,0.000,0,2,0,2,7,255,960,200,0,0,-89.350,0.884,-31.433
EX0521-092111,21,C12,prep,1418,1418,0,1067019.092,0.686,-0.675,0.196,0.187,0,0,0,0,0,0,0,0,0,0.000,0,0,0.060,0.010,-0.040,-0.040,0.020,0.015,0.994,0.012,0.006,-0.008,0.000,0.000,0.000,0.000,0.000,0,2,0,2,7,255,960,200,0,0,-89.350,0.884,-31.433
EX0521-092111,21,C12,prep,1418,1418,0,1067024.092,0.686,-0.675,0.196,0.187,0,0,0,0,0,0,0,0,0,0.000,0,0,0.069,0.008,-0.040,0.040,-0.040,0.013,0.993,0.012,-0.002,-0.008,0.000,0.000,0.000,0.000,0.000,0,2,0,2,7,255,960,200,0,0,-89.350,0.884,-31.433
EX0521-092111,21,C12,prep,1419,1419,0,1067029.091,0.686,-0.675,0.196,0.187,0,0,0,0,0,0,0,0,0,0.000,0,0,0.060,0.004,0.020,-0.040,-0.040,0.015,0.993,0.011,0.004,-0.002,-0.004,0.000,0.000,0.000,0.000,0,2,0,2,7,255,960,200,0,0,-89.350,0.884,-31.433
EX0521-092111,21,C12,prep,1419,1419,0,1067034.092,0.686,-0.675,0.196,0.187,0,0,0,0,0,0,0,0,0,0.000,0,0,0.060,0.004,0.020,0.040,-0.040,0.014,0.992,0.011,-0.004,-0.002,-0.008,0.000,0.000,0.000,0.000,0,2,0,2,7,255,960,200,0,0,-89.350,0.884,-31.433
EX0521-092111,21,C12,prep,1420,1420,0,1067039.093,0.686,-0.675,0.196,0.187,0,0,0,0,0,0,0,0,0,0.000,0,0,0.060,0.006,0.020,-0.040,-0.040,0.015,0.993,0.010,0.004,0.004,-0.008,0.000,0.000,0.000,0.000,0,2,0,2,7,255,960,200,0,0,-89.350,0.884,-31.433
EX0521-092111,21,C12,prep,1420,1420,0,1067044.091,0.686,-0.675,0.196,0.187,0,0,0,0,0,0,0,0,0,0.000,0,0,0.060,0.004,0.020,-0.040,-0.040,0.015,0.995,0.012,0.002,0.004,-0.004,0.000,0.000,0.000,0.000,0,2,0,2,7,255,960,200,0,0,-89.350,0.884,-31.433
EX0521-092111,21,C12,prep,1450,1450,0,1067049.091,0.686,-0.675,0.196,0.187,0,0,0,0,0,0,0,0,0,0.000,0,0,0.060,0.003,0.020,0.040,-0.040,0.014,0.995,0.011,0.002,0.002,0.010,0.000,0.000,0.000,0.000,0,2,0,2,7,255,960,200,0,0,-89.350,0.884,-31.433
EX0521-092111,21,C12,prep,1450,1450,0,1067054.092,0.686,-0.675,0.196,0.187,0,0,0,0,0,0,0,0,0,0.000,0,0,0.060,0.003,0.020,0.040,-0.040,0.015,0.993,0.011,0.002,0.002,0.010,0.000,0.000,0.000,0.000,0,2,0,2,7,255,960,200,0,0,-89.350,0.884,-31.433
EX0521-092111,21,C12,prep,1451,1451,0,1067059.092,0.686,-0.675,0.196,0.187,0,0,0,0,0,0,0,0,0,0.000,0,0,0.060,0.004,-0.040,-0.040,0.020,0.014,0.993,0.010,0.004,0.002,-0.004,0.000,0.000,0.000,0.000,0,2,0,2,7,255,960,200,0,0,-89.350,0.884,-31.433
EX0521-092111,21,C12,prep,1451,1451,0,1067064.091,0.686,-0.675,0.196,0.187,0,0,0,0,0,0,0,0,0,0.000,0,0,0.069,0.004,-0.040,-0.040,-0.040,0.013,0.993,0.012,0.004,0.002,-0.008,0.000,0.000,0.000,0.000,0,2,0,2,7,255,960,200,0,0,-89.350,0.884,-31.433
EX0521-092111,21,C12,prep,1451,1451,0,1067069.092,0.686,-0.675,0.196,0.187,0,0,0,0,0,0,0,0,0,0.000,0,0,0.060,0.006,0.040,-0.040,0.020,0.015,0.994,0.011,0.004,0.004,-0.004,0.000,0.000,0.000,0.000,0,2,0,2,7,255,960,200,0,0,-89.350,0.884,-31.433
EX0521-092111,21,C12,prep,1451,1451,0,1067074.093,0.686,-0.675,0.196,0.187,0,0,0,0,0,0,0,0,0,0.000,0,0,0.069,0.006,-0.040,-0.040,-0.040,0.014,0.994,0.010,0.004,0.004,0.000,0.000,0.000,0.000,0.000,0,2,0,2,7,255,960,200,0,0,-89.350,0.884,-31.433
EX0521-092111,21,C12,prep,1483,1483,0,1067079.091,0.686,-0.675,0.196,0.187,0,0,0,0,0,0,0,0,0,0.000,0,0,0.069,0.007,0.040,-0.040,-0.040,0.013,0.994,0.011,0.004,0.006,0.000,0.000,0.000,0.000,0.000,0,2,0,2,7,255,960,200,0,0,-89.350,0.884,-31.433
EX0521-092111,21,C12,prep,1483,1483,0,1067084.091,0.686,-0.675,0.196,0.187,0,0,0,0,0,0,0,0,0,0.000,0,0,0.069,0.006,0.040,-0.040,-0.040,0.014,0.994,0.011,0.000,0.006,0.000,0.000,0.000,0.000,0.000,0,2,0,2,7,255,960,200,0,0,-89.350,0.884,-31.433
EX0521-092111,21,C12,prep,1489,1489,0,1067089.092,0.686,-0.675,0.196,0.187,0,0,0,0,0,0,0,0,0,0.000,0,0,0.069,0.006,0.040,-0.040,-0.040,0.014,0.994,0.012,-0.006,0.002,0.006,0.000,0.000,0.000,0.000,0,2,0,2,7,255,960,200,0,0,-89.350,0.884,-31.433
EX0521-092111,21,C12,prep,1489,1489,0,1067094.092,0.686,-0.675,0.196,0.187,0,0,0,0,0,0,0,0,0,0.000,0,0,0.069,0.006,0.040,-0.040,-0.040,0.014,0.994,0.012,-0.006,0.000,0.006,0.000,0.000,0.000,0.000,0,2,0,2,7,255,960,200,0,0,-89.350,0.884,-31.433
EX0521-092111,21,C12,prep,1490,1490,0,1067099.092,0.686,-0.675,0.196,0.187,0,0,0,0,0,0,0,0,0,0.000,0,0,0.069,0.006,-0.040,-0.040,-0.040,0.014,0.992,0.011,-0.006,0.000,0.000,0.000,0.000,0.000,0.000,0,2,0,2,7,255,960,200,0,0,-89.350,0.884,-31.433
EX0521-092111,21,C12,prep,1490,1490,0,1067104.093,0.686,-0.675,0.196,0.187,0,0,0,0,0,0,0,0,0,0.000,0,0,0.069,0.004,-0.040,-0.040,-0.040,0.016,0.995,0.011,-0.004,0.000,0.000,0.000,0.000,0.000,0.000,0,2,0,2,7,255,960,200,0,0,-89.350,0.884,-31.433
EX0521-092111,21,C12,prep,1490,1490,0,1067109.092,0.686,-0.675,0.196,0.187,0,0,0,0,0,0,0,0,0,0.000,0,0,0.060,0.004,0.020,-0.040,-0.040,0.014,0.993,0.011,0.002,0.004,-0.004,0.000,0.000,0.000,0.000,0,2,0,2,7,255,960,200,0,0,-89.350,0.884,-31.433
EX0521-092111,21,C12,prep,1490,1490,0,1067114.091,0.686,-0.675,0.196,0.187,0,0,0,0,0,0,0,0,0,0.000,0,0,0.060,0.003,-0.040,-0.040,0.020,0.014,0.994,0.011,0.002,0.002,0.000,0.000,0.000,0.000,0.000,0,2,0,2,7,255,960,200,0,0,-89.350,0.884,-31.433
EX0521-092111,21,C12,prep,1504,1504,0,1067119.091,0.686,-0.675,0.196,0.187,0,0,0,0,0,0,0,0,0,0.000,0,0,0.060,0.002,0.020,-0.040,-0.040,0.014,0.994,0.012,0.000,0.002,0.000,0.000,0.000,0.000,0.000,0,2,0,2,7,255,960,200,0,0,-89.350,0.884,-31.433
EX0521-092111,21,C12,prep,1504,1504,0,1067124.092,0.686,-0.675,0.196,0.187,0,0,0,0,0,0,0,0,0,0.000,0,0,0.069,0.002,-0.040,-0.040,-0.040,0.014,0.994,0.011,0.000,0.002,0.000,0.000,0.000,0.000,0.000,0,2,0,2,7,255,960,200,0,0,-89.350,0.884,-31.433
EX0521-092111,21,C12,prep,1505,1505,0,1067129.092,0.686,-0.675,0.196,0.187,0,0,0,0,0,0,0,0,0,0.000,0,0,0.069,0.006,-0.040,-0.040,-0.040,0.013,0.993,0.011,-0.006,0.002,0.000,0.000,0.000,0.000,0.000,0,2,0,2,7,255,960,200,0,0,-89.350,0.884,-31.433
EX0521-092111,21,C12,prep,1505,1505,0,1067134.091,0.686,-0.675,0.196,0.187,0,0,0,0,0,0,0,0,0,0.000,0,0,0.060,0.002,0.020,-0.040,-0.040,0.015,0.994,0.011,0.000,0.002,0.000,0.000,0.000,0.000,0.000,0,2,0,2,7,255,960,200,0,0,-89.350,0.884,-31.433
EX0521-092111,21,C12,prep,1519,1519,0,1067139.092,0.686,-0.675,0.196,0.187,0,0,0,0,0,0,0,0,0,0.000,0,0,0.060,0.008,0.020,-0.040,-0.040,0.013,0.994,0.010,0.000,0.008,0.000,0.000,0.000,0.000,0.000,0,2,0,2,7,255,960,200,0,0,-89.350,0.884,-31.433
EX0521-092111,21,C12,prep,1519,1519,0,1067144.092,0.686,-0.675,0.196,0.187,0,0,0,0,0,0,0,0,0,0.000,0,0,0.060,0.002,0.020,-0.040,-0.040,0.015,0.995,0.012,0.000,0.002,0.000,0.000,0.000,0.000,0.000,0,2,0,2,7,255,960,200,0,0,-89.350,0.884,-31.433
EX0521-092111,21,C12,prep,1543,1543,0,1067149.092,0.686,-0.675,0.196,0.187,0,0,0,0,0,0,0,0,0,0.000,0,0,0.035,0.006,0.020,0.020,0.020,0.016,0.993,0.011,0.000,-0.006,0.000,0.000,0.000,0.000,0.000,0,2,0,2,7,255,960,200,0,0,-89.350,0.884,-31.433
EX0521-092111,21,C12,prep,1543,1543,0,1067154.091,0.686,-0.675,0.196,0.187,0,0,0,0,0,0,0,0,0,0.000,0,0,0.060,0.006,0.020,-0.040,-0.040,0.014,0.993,0.011,0.000,-0.006,-0.004,0.000,0.000,0.000,0.000,0,2,0,2,7,255,960,200,0,0,-89.350,0.884,-31.433
EX0521-092111,21,C12,prep,1543,1543,0,1067159.093,0.686,-0.675,0.196,0.187,0,0,0,0,0,0,0,0,0,0.000,0,0,0.060,0.006,0.020,-0.040,-0.040,0.015,0.994,0.012,0.002,-0.006,-0.004,0.000,0.000,0.000,0.000,0,2,0,2,7,255,960,200,0,0,-89.350,0.884,-31.433
EX0521-092111,21,C12,prep,1543,1543,0,1067164.093,0.686,-0.675,0.196,0.187,0,0,0,0,0,0,0,0,0,0.000,0,0,0.069,0.006,-0.040,-0.040,-0.040,0.014,0.994,0.012,0.000,-0.006,0.000,0.000,0.000,0.000,0.000,0,2,0,2,7,255,960,200,0,0,-89.350,0.884,-31.433
EX0521-092111,21,C12,prep,1551,1551,0,1067169.091,0.686,-0.675,0.196,0.187,0,0,0,0,0,0,0,0,0,0.000,0,0,0.049,0.006,0.020,-0.040,0.020,0.015,0.993,0.011,0.002,-0.006,0.000,0.000,0.000,0.000,0.000,0,2,0,2,7,255,960,200,0,0,-89.350,0.884,-31.433
EX0521-092111,21,C12,prep,1551,1551,0,1067174.091,0.686,-0.675,0.196,0.187,0,0,0,0,0,0,0,0,0,0.000,0,0,0.060,0.006,0.020,-0.040,-0.040,0.015,0.993,0.012,-0.002,-0.006,-0.004,0.000,0.000,0.000,0.000,0,2,0,2,7,255,960,200,0,0,-89.350,0.884,-31.433
EX0521-092111,21,C12,prep,1579,1579,0,1067179.092,0.686,-0.675,0.196,0.187,0,0,0,0,0,0,0,0,0,0.000,0,0,0.060,0.004,-0.040,-0.040,0.020,0.015,0.993,0.011,0.004,-0.002,-0.004,0.000,0.000,0.000,0.000,0,2,0,2,7,255,960,200,0,0,-89.350,0.884,-31.433
EX0521-092111,21,C12,prep,1579,1579,0,1067184.092,0.686,-0.675,0.196,0.187,0,0,0,0,0,0,0,0,0,0.000,0,0,0.069,0.004,-0.040,-0.040,-0.040,0.015,0.994,0.011,0.004,-0.002,-0.004,0.000,0.000,0.000,0.000,0,2,0,2,7,255,960,200,0,0,-89.350,0.884,-31.433
EX0521-092111,21,C12,prep,1584,1584,0,1067189.091,0.686,-0.675,0.196,0.187,0,0,0,0,0,0,0,0,0,0.000,0,0,0.060,0.004,-0.040,-0.040,0.020,0.013,0.994,0.011,0.004,-0.002,0.002,0.000,0.000,0.000,0.000,0,2,0,2,7,255,960,200,0,0,-89.350,0.884,-31.433
EX0521-092111,21,C12,prep,1584,1584,0,1067194.092,0.686,-0.675,0.196,0.187,0,0,0,0,0,0,0,0,0,0.000,0,0,0.049,0.004,0.020,-0.040,0.020,0.015,0.994,0.011,0.004,0.002,0.002,0.000,0.000,0.000,0.000,0,2,0,2,7,255,960,200,0,0,-89.350,0.884,-31.433
EX0521-092111,21,C12,prep,1585,1585,0,1067199.092,0.686,-0.675,0.196,0.187,0,0,0,0,0,0,0,0,0,0.000,0,0,0.069,0.006,-0.040,-0.040,-0.040,0.016,0.993,0.012,0.006,0.002,0.000,0.000,0.000,0.000,0.000,0,2,0,2,7,255,960,200,0,0,-89.350,0.884,-31.433
EX0521-092111,21,C12,prep,1585,1585,0,1067204.093,0.686,-0.675,0.196,0.187,0,0,0,0,0,0,0,0,0,0.000,0,0,0.069,0.006,-0.040,-0.040,-0.040,0.015,0.993,0.011,0.006,-0.002,-0.004,0.000,0.000,0.000,0.000,0,2,0,2,7,255,960,200,0,0,-89.350,0.884,-31.433
EX0521-092111,21,C12,prep,1586,1586,0,1067209.091,0.686,-0.675,0.196,0.187,0,0,0,0,0,0,0,0,0,0.000,0,0,0.069,0.004,-0.040,-0.040,-0.040,0.013,0.993,0.011,0.004,-0.002,-0.008,0.000,0.000,0.000,0.000,0,2,0,2,7,255,960,200,0,0,-89.350,0.884,-31.433
EX0521-092111,21,C12,prep,1586,1586,0,1067214.092,0.686,-0.675,0.196,0.187,0,0,0,0,0,0,0,0,0,0.000,0,0,0.110,0.006,0.020,-0.100,-0.040,0.014,0.994,0.011,-0.004,0.004,-0.004,0.000,0.000,0.000,0.000,0,2,0,2,7,255,960,200,0,0,-89.350,0.884,-31.433
EX0521-092111,21,C12,prep,1600,1600,0,1067219.092,0.686,-0.675,0.196,0.187,0,0,0,0,0,0,0,0,0,0.000,0,0,0.069,0.006,-0.040,-0.040,-0.040,0.015,0.993,0.011,-0.004,0.004,-0.008,0.000,0.000,0.000,0.000,0,2,0,2,7,255,960,200,0,0,-89.350,0.884,-31.433
EX0521-092111,21,C12,prep,1600,1600,0,1067224.091,0.686,-0.675,0.196,0.187,0,0,0,0,0,0,0,0,0,0.000,0,0,0.060,0.004,-0.040,-0.040,0.020,0.014,0.993,0.011,0.002,0.004,-0.008,0.000,0.000,0.000,0.000,0,2,0,2,7,255,960,200,0,0,-89.350,0.884,-31.433
EX0521-092111,21,C12,prep,1616,1616,0,1067229.091,0.686,-0.675,0.196,0.187,0,0,0,0,0,0,0,0,0,0.000,0,0,0.069,0.003,-0.040,-0.040,-0.040,0.014,0.993,0.012,0.002,-0.002,-0.008,0.000,0.000,0.000,0.000,0,2,0,2,7,255,960,200,0,0,-89.350,0.884,-31.433
EX0521-092111,21,C12,prep,1616,1616,0,1067234.092,0.686,-0.675,0.196,0.187,0,0,0,0,0,0,0,0,0,0.000,0,0,0.060,0.003,0.020,-0.040,-0.040,0.015,0.993,0.012,0.002,-0.002,-0.008,0.000,0.000,0.000,0.000,0,2,0,2,7,255,960,200,0,0,-89.350,0.884,-31.432
EX0521-092111,21,C12,prep,1631,1631,0,1067239.092,0.686,-0.675,0.196,0.187,0,0,0,0,0,0,0,0,0,0.000,0,0,0.060,0.006,0.020,-0.040,-0.040,0.015,0.994,0.012,0.002,-0.006,-0.004,0.000,0.000,0.000,0.000,0,2,0,2,7,255,960,200,0,0,-89.350,0.884,-31.432
EX0521-092111,21,C12,prep,1631,1631,0,1067244.091,0.686,-0.675,0.196,0.187,0,0,0,0,0,0,0,0,0,0.000,0,0,0.110,0.006,-0.040,-0.100,0.020,0.014,0.994,0.011,0.002,-0.006,0.002,0.000,0.000,0.000,0.000,0,2,0,2,7,255,960,200,0,0,-89.350,0.884,-31.432
EX0521-092111,21,C12,prep,1631,1631,0,1067249.092,0.686,-0.675,0.196,0.187,0,0,0,0,0,0,0,0,0,0.000,0,0,0.049,0.003,0.020,0.020,-0.040,0.014,0.993,0.012,0.002,-0.002,0.002,0.000,0.000,0.000,0.000,0,2,0,2,7,255,960,200,0,0,-89.350,0.884,-31.432
EX0521-092111,21,C12,prep,1631,1631,0,1067254.092,0.686,-0.675,0.196,0.187,0,0,0,0,0,0,0,0,0,0.000,0,0,0.060,0.003,0.020,-0.040,-0.040,0.013,0.994,0.012,-0.002,-0.002,0.002,0.000,0.000,0.000,0.000,0,2,0,2,7,255,960,200,0,0,-89.350,0.884,-31.432
EX0521-092111,21,C12,prep,1652,1652,0,1067259.091,0.686,-0.675,0.196,0.187,0,0,0,0,0,0,0,0,0,0.000,0,0,0.069,0.003,-0.040,0.040,-0.040,0.015,0.994,0.012,-0.002,-0.002,0.002,0.000,0.000,0.000,0.000,0,2,0,2,7,255,960,200,0,0,-89.350,0.884,-31.432
EX0521-092111,21,C12,prep,1652,1652,0,1067264.091,0.686,-0.675,0.196,0.187,0,0,0,0,0,0,0,0,0,0.000,0,0,0.069,0.003,-0.040,-0.040,-0.040,0.015,0.993,0.011,-0.002,-0.002,0.002,0.000,0.000,0.000,0.000,0,2,0,2,7,255,960,200,0,0,-89.350,0.884,-31.432
EX0521-092111,21,C12,prep,1653,1653,0,1067269.092,0.686,-0.675,0.196,0.187,0,0,0,0,0,0,0,0,0,0.000,0,0,0.060,0.003,-0.040,-0.040,0.020,0.014,0.995,0.011,-0.002,-0.002,0.002,0.000,0.000,0.000,0.000,0,2,0,2,7,255,960,200,0,0,-89.350,0.884,-31.432
EX0521-092111,21,C12,prep,1653,1653,0,1067274.092,0.686,-0.675,0.196,0.187,0,0,0,0,0,0,0,0,0,0.000,0,0,0.060,0.004,0.020,-0.040,-0.040,0.013,0.994,0.012,-0.004,-0.002,0.002,0.000,0.000,0.000,0.000,0,2,0,2,7,255,960,200,0,0,-89.350,0.884,-31.432
EX0521-092111,21,C12,prep,1653,1653,0,1067279.091,0.686,-0.675,0.196,0.187,0,0,0,0,0,0,0,0,0,0.000,0,0,0.060,0.010,-0.040,-0.040,0.020,0.014,0.994,0.012,-0.010,-0.002,0.002,0.000,0.000,0.000,0.000,0,2,0,2,7,255,960,200,0,0,-89.350,0.884,-31.432
EX0521-092111,21,C12,prep,1653,1653,0,1067284.092,0.686,-0.675,0.196,0.187,0,0,0,0,0,0,0,0,0,0.000,0,0,0.060,0.010,0.020,-0.040,-0.040,0.014,0.993,0.012,-0.010,-0.002,0.002,0.000,0.000,0.000,0.000,0,2,0,2,7,255,960,200,0,0,-89.350,0.884,-31.432
EX0521-092111,21,C12,prep,1695,1695,0,1067289.092,0.686,-0.675,0.196,0.187,0,0,0,0,0,0,0,0,0,0.000,0,0,0.060,0.006,-0.040,-0.040,0.020,0.014,0.994,0.011,-0.006,0.000,0.002,0.000,0.000,0.000,0.000,0,2,0,2,7,255,960,200,0,0,-89.350,0.884,-31.432
EX0521-092111,21,C12,prep,1695,1695,0,1067294.091,0.686,-0.675,0.196,0.187,0,0,0,0,0,0,0,0,0,0.000,0,0,0.060,0.008,0.020,-0.040,-0.040,0.014,0.993,0.010,-0.002,0.008,-0.004,0.000,0.000,0.000,0.000,0,2,0,2,7,255,960,200,0,0,-89.350,0.884,-31.432
EX0521-092111,21,C12,prep,1695,1695,0,1067299.092,0.686,-0.675,0.196,0.187,0,0,0,0,0,0,0,0,0,0.000,0,0,0.069,0.008,-0.040,-0.040,-0.040,0.013,0.995,0.012,-0.002,0.008,0.006,0.000,0.000,0.000,0.000,0,2,0,2,7,255,960,200,0,0,-89.350,0.884,-31.432
EX0521-092111,21,C12,prep,1695,1695,0,1067304.093,0.686,-0.675,0.196,0.187,0,0,0,0,0,0,0,0,0,0.000,0,0,0.060,0.006,0.020,-0.040,-0.040,0.015,0.993,0.011,0.004,0.004,-0.004,0.000,0.000,0.000,0.000,0,2,0,2,7,255,960,200,0,0,-89.350,0.884,-31.432
EX0521-092111,21,C12,prep,1695,1695,0,1067309.092,0.686,-0.675,0.196,0.187,0,0,0,0,0,0,0,0,0,0.000,0,0,0.069,0.003,-0.040,-0.040,-0.040,0.014,0.994,0.012,-0.002,-0.002,0.002,0.000,0.000,0.000,0.000,0,2,0,2,7,255,960,200,0,0,-89.350,0.884,-31.432
EX0521-092111,21,C12,prep,1695,1695,0,1067314.091,0.686,-0.675,0.196,0.187,0,0,0,0,0,0,0,0,0,0.000,0,0,0.060,0.003,0.020,-0.040,-0.040,0.014,0.993,0.011,0.002,-0.002,-0.008,0.000,0.000,0.000,0.000,0,2,0,2,7,255,960,200,0,0,-89.350,0.884,-31.432
EX0521-092111,21,C12,prep,1727,1727,0,1067319.092,0.686,-0.675,0.196,0.187,0,0,0,0,0,0,0,0,0,0.000,0,0,0.049,0.006,0.020,0.020,-0.040,0.014,0.993,0.010,0.002,0.006,-0.004,0.000,0.000,0.000,0.000,0,2,0,2,7,255,960,200,0,0,-89.350,0.884,-31.432
EX0521-092111,21,C12,prep,1727,1727,0,1067324.092,0.686,-0.675,0.196,0.187,0,0,0,0,0,0,0,0,0,0.000,0,0,0.060,0.006,0.020,-0.040,-0.040,0.014,0.994,0.012,0.002,0.006,-0.004,0.000,0.000,0.000,0.000,0,2,0,2,7,255,960,200,0,0,-89.350,0.884,-31.432
EX0521-092111,21,C12,prep,1728,1728,0,1067329.092,0.686,-0.675,0.196,0.187,0,0,0,0,0,0,0,0,0,0.000,0,0,0.069,0.006,-0.040,-0.040,-0.040,0.013,0.995,0.012,-0.006,0.000,0.006,0.000,0.000,0.000,0.000,0,2,0,2,7,255,960,200,0,0,-89.350,0.884,-31.432
EX0521-092111,21,C12,prep,1728,1728,0,1067334.091,0.686,-0.675,0.196,0.187,0,0,0,0,0,0,0,0,0,0.000,0,0,0.060,0.006,-0.040,-0.040,0.020,0.015,0.994,0.011,-0.006,0.000,0.006,0.000,0.000,0.000,0.000,0,2,0,2,7,255,960,200,0,0,-89.350,0.884,-31.432
EX0521-092111,21,C12,prep,1729,1729,0,1067339.093,0.686,-0.675,0.196,0.187,0,0,0,0,0,0,0,0,0,0.000,0,0,0.049,0.006,0.020,-0.040,0.020,0.015,0.994,0.012,0.006,-0.002,0.006,0.000,0.000,0.000,0.000,0,2,0,2,7,255,960,200,0,0,-89.350,0.884,-31.432
EX0521-092111,21,C12,prep,1729,1729,0,1067344.092,0.686,-0.675,0.196,0.187,0,0,0,0,0,0,0,0,0,0.000,0,0,0.069,0.006,-0.040,-0.040,-0.040,0.014,0.992,0.010,0.006,0.002,0.006,0.000,0.000,0.000,0.000,0,2,0,2,7,255,960,200,0,0,-89.350,0.884,-31.432
EX0521-092111,21,C12,prep,1730,1730,0,1067349.091,0.686,-0.675,0.196,0.187,0,0,0,0,0,0,0,0,0,0.000,0,0,0.049,0.013,0.020,-0.040,0.020,0.014,0.994,0.010,0.006,0.012,0.006,0.000,0.000,0.000,0.000,0,2,0,2,7,255,960,200,0,0,-89.350,0.884,-31.432
EX0521-092111,21,C12,prep,1730,1730,0,1067354.092,0.686,-0.675,0.196,0.187,0,0,0,0,0,0,0,0,0,0.000,0,0,0.060,0.013,0.020,-0.040,-0.040,0.015,0.995,0.011,0.006,0.012,0.006,0.000,0.000,0.000,0.000,0,2,0,2,7,255,960,200,0,0,-89.350,0.884,-31.432
EX0521-092111,21,C12,prep,1746,1746,0,1067359.093,0.686,-0.675,0.196,0.187,0,0,0,0,0,0,0,0,0,0.000,0,0,0.060,0.006,0.040,-0.020,-0.040,0.015,0.994,0.012,0.006,0.002,0.006,0.000,0.000,0.000,0.000,0,2,0,2,7,255,960,200,0,0,-89.350,0.884,-31.432
EX0521-092111,21,C12,prep,1746,1746,0,1067364.093,0.686,-0.675,0.196,0.187,0,0,0,0,0,0,0,0,0,0.000,0,0,0.060,0.006,0.040,-0.020,-0.040,0.015,0.993,0.011,0.006,-0.002,0.006,0.000,0.000,0.000,0.000,0,2,0,2,7,255,960,200,0,0,-89.350,0.884,-31.432
EX0521-092111,21,C12,prep,1747,1747,0,1067369.091,0.686,-0.675,0.196,0.187,0,0,0,0,0,0,0,0,0,0.000,0,0,0.049,0.004,-0.020,-0.020,-0.040,0.013,0.992,0.010,0.004,-0.002,-0.004,0.000,0.000,0.000,0.000,0,2,0,2,7,255,960,200,0,0,-89.350,0.884,-31.432
EX0521-092111,21,C12,prep,1747,1747,0,1067374.092,0.686,-0.675,0.196,0.187,0,0,0,0,0,0,0,0,0,0.000,0,0,0.049,0.004,-0.020,-0.020,-0.040,0.015,0.993,0.012,0.004,-0.002,-0.004,0.000,0.000,0.000,0.000,0,2,0,2,7,255,960,200,0,0,-89.350,0.884,-31.432
EX0521-092111,21,C12,prep,1759,1759,0,1067379.092,0.686,-0.675,0.196,0.187,0,0,0,0,0,0,0,0,0,0.000,0,0,0.049,0.000,-0.020,-0.020,-0.040,0.014,0.993,0.011,0.000,0.000,-0.004,0.000,0.000,0.000,0.000,0,2,0,2,7,255,960,200,0,0,-89.350,0.884,-31.432
EX0521-092111,21,C12,prep,1759,1759,0,1067384.091,0.686,-0.675,0.196,0.187,0,0,0,0,0,0,0,0,0,0.000,0,0,0.049,0.000,-0.020,-0.020,-0.040,0.014,0.995,0.012,0.000,0.000,-0.004,0.000,0.000,0.000,0.000,0,2,0,2,7,255,960,200,0,0,-89.350,0.884,-31.432
EX0521-092111,21,C12,prep,1791,1791,0,1067389.091,0.686,-0.675,0.196,0.187,0,0,0,0,0,0,0,0,0,0.000,0,0,0.049,0.000,-0.020,-0.020,-0.040,0.014,0.995,0.011,0.000,0.000,0.010,0.000,0.000,0.000,0.000,0,2,0,2,7,255,960,200,0,0,-89.350,0.884,-31.432
EX0521-092111,21,C12,prep,1791,1791,0,1067394.092,0.686,-0.675,0.196,0.187,0,0,0,0,0,0,0,0,0,0.000,0,0,0.049,0.003,-0.020,-0.020,-0.040,0.014,0.993,0.011,-0.002,0.002,0.010,0.000,0.000,0.000,0.000,0,2,0,2,7,255,960,200,0,0,-89.350,0.884,-31.432
EX0521-092111,21,C12,prep,1791,1791,0,1067399.092,0.686,-0.675,0.196,0.187,0,0,0,0,0,0,0,0,0,0.000,0,0,0.115,0.003,0.040,-0.100,-0.040,0.014,0.993,0.012,-0.002,0.002,-0.004,0.000,0.000,0.000,0.000,0,2,0,2,7,255,960,200,0,0,-89.350,0.884,-31.432
EX0521-092111,21,C12,prep,1791,1791,0,1067404.093,0.686,-0.675,0.196,0.187,0,0,0,0,0,0,0,0,0,0.000,0,0,0.049,0.002,-0.020,-0.020,-0.040,0.015,0.994,0.011,-0.002,0.000,-0.004,0.000,0.000,0.000,0.000,0,2,0,2,7,255,960,200,0,0,-89.350,0.884,-31.432
EX0521-092111,21,C12,prep,1791,1791,0,1067409.092,0.686,-0.675,0.196,0.187,0,0,0,0,0,0,0,0,0,0.000,0,0,0.110,0.009,0.020,-0.100,-0.040,0.014,0.994,0.012,-0.004,-0.008,0.002,0.000,0.000,0.000,0.000,0,2,0,2,7,255,960,200,0,0,-89.350,0.884,-31.432
EX0521-092111,21,C12,prep,1791,1791,0,1067414.092,0.686,-0.675,0.196,0.187,0,0,0,0,0,0,0,0,0,0.000,0,0,0.069,0.007,-0.040,-0.040,-0.040,0.014,0.993,0.012,-0.006,-0.004,0.002,0.000,0.000,0.000,0.000,0,2,0,2,7,255,960,200,0,0,-89.350,0.884,-31.432
EX0521-092111,21,C12,prep,1817,1817,0,1067419.091,0.686,-0.675,0.196,0.187,0,0,0,0,0,0,0,0,0,0.000,0,0,0.049,0.007,0.020,-0.040,0.020,0.014,0.994,0.011,-0.006,-0.004,0.002,0.000,0.000,0.000,0.000,0,2,0,2,7,255,960,200,0,0,-89.350,0.884,-31.432
EX0521-092111,21,C12,prep,1817,1817,0,1067424.091,0.686,-0.675,0.196,0.187,0,0,0,0,0,0,0,0,0,0.000,0,0,0.110,0.010,0.100,0.020,-0.040,0.013,0.993,0.011,-0.008,0.006,-0.004,0.000,0.000,0.000,0.000,0,2,0,2,7,255,960,200,0,0,-89.350,0.884,-31.432
EX0521-092111,21,C12,prep,1818,1818,0,1067429.092,0.686,-0.675,0.196,0.187,0,0,0,0,0,0,0,0,0,0.000,0,0,0.049,0.006,0.020,0.020,-0.040,0.015,0.993,0.011,-0.002,0.006,-0.004,0.000,0.000,0.000,0.000,0,2,0,2,7,255,960,200,0,0,-89.350,0.884,-31.432
EX0521-092111,21,C12,prep,1818,1818,0,1067434.092,0.686,-0.675,0.196,0.187,0,0,0,0,0,0,0,0,0,0.000,0,0,0.060,0.003,0.020,-0.040,-0.040,0.015,0.992,0.012,0.002,-0.002,-0.008,0.000,0.000,0.000,0.000,0,2,0,2,7,255,960,200,0,0,-89.350,0.884,-31.432
EX0521-092111,21,C12,prep,1818,1818,0,1067439.092,0.686,-0.675,0.196,0.187,0,0,0,0,0,0,0,0,0,0.000,0,0,0.060,0.006,-0.040,0.020,-0.040,0.014,0.994,0.012,0.002,-0.006,-0.008,0.000,0.000,0.000,0.000,0,2,0,2,7,255,960,200,0,0,-89.350,0.884,-31.432
EX0521-092111,21,C12,prep,1818,1818,0,1067444.091,0.686,-0.675,0.196,0.187,0,0,0,0,0,0,0,0,0,0.000,0,0,0.115,0.007,0.100,-0.040,-0.040,0.014,0.995,0.011,-0.004,-0.006,0.002,0.000,0.000,0.000,0.000,0,2,0,2,7,255,960,200,0,0,-89.350,0.884,-31.432
EX0521-092111,21,C12,prep,1849,1849,0,1067449.092,0.686,-0.675,0.196,0.187,0,0,0,0,0,0,0,0,0,0.000,0,0,0.069,0.006,-0.040,-0.040,-0.040,0.014,0.995,0.011,-0.004,0.004,0.010,0.000,0.000,0.000,0.000,0,2,0,2,7,255,960,200,0,0,-89.350,0.884,-31.432
EX0521-092111,21,C12,prep,1849,1849,0,1067454.091,0.686,-0.675,0.196,0.187,0,0,0,0,0,0,0,0,0,0.000,0,0,0.110,0.006,0.020,-0.100,-0.040,0.013,0.995,0.012,-0.004,0.004,0.010,0.000,0.000,0.000,0.000,0,2,0,2,7,255,960,200,0,0,-89.350,0.885,-31.432
EX0521-092111,21,C12,prep,1849,1849,0,1067459.091,0.686,-0.675,0.196,0.187,0,0,0,0,0,0,0,0,0,0.000,0,0,0.069,0.011,0.040,-0.040,-0.040,0.013,0.994,0.012,-0.010,0.004,0.010,0.000,0.000,0.000,0.000,0,2,0,2,7,255,960,200,0,0,-89.350,0.885,-31.432
EX0521-092111,21,C12,prep,1849,1849,0,1067464.092,0.686,-0.675,0.196,0.187,0,0,0,0,0,0,0,0,0,0.000,0,0,0.060,0.011,-0.040,-0.040,0.020,0.014,0.993,0.011,-0.010,0.004,0.000,0.000,0.000,0.000,0.000,0,2,0,2,7,255,960,200,0,0,-89.350,0.885,-31.432
EX0521-092111,21,C12,prep,1849,1849,0,1067469.092,0.686,-0.675,0.196,0.187,0,0,0,0,0,0,0,0,0,0.000,0,0,0.069,0.009,-0.040,0.040,-0.040,0.013,0.994,0.011,-0.008,0.004,0.000,0.000,0.000,0.000,0.000,0,2,0,2,7,255,960,200,0,0,-89.350,0.885,-31.432
EX0521-092111,21,C12,prep,1849,1849,0,1067474.091,0.686,-0.675,0.196,0.187,0,0,0,0,0,0,0,0,0,0.000,0,0,0.069,0.006,0.040,0.040,-0.040,0.014,0.994,0.011,-0.004,0.004,0.006,0.000,0.000,0.000,0.000,0,2,0,2,7,255,960,200,0,0,-89.350,0.885,-31.432
EX0521-092111,21,C12,prep,1855,1855,0,1067479.091,0.686,-0.675,0.196,0.187,0,0,0,0,0,0,0,0,0,0.000,0,0,0.069,0.002,-0.040,-0.040,-0.040,0.015,0.993,0.011,0.000,0.002,0.006,0.000,0.000,0.000,0.000,0,2,0,2,7,255,960,200,0,0,-89.350,0.885,-31.432
EX0521-092111,21,C12,prep,1855,1855,0,1067484.092,0.686,-0.675,0.196,0.187,0,0,0,0,0,0,0,0,0,0.000,0,0,0.069,0.003,0.040,-0.040,-0.040,0.015,0.993,0.012,0.002,-0.002,-0.004,0.000,0.000,0.000,0.000,0,2,0,2,7,255,960,200,0,0,-89.350,0.885,-31.432
EX0521-092111,21,C12,prep,1887,1887,0,1067489.092,0.686,-0.675,0.196,0.187,0,0,0,0,0,0,0,0,0,0.000,0,0,0.069,0.003,-0.040,-0.040,-0.040,0.013,0.992,0.011,0.002,-0.002,-0.008,0.000,0.000,0.000,0.000,0,2,0,2,7,255,960,200,0,0,-89.350,0.885,-31.432
EX0521-092111,21,C12,prep,1887,1887,0,1067494.091,0.686,-0.675,0.196,0.187,0,0,0,0,0,0,0,0,0,0.000,0,0,0.069,0.009,-0.040,-0.040,-0.040,0.014,0.994,0.012,-0.008,-0.004,-0.008,0.000,0.000,0.000,0.000,0,2,0,2,7,255,960,200,0,0,-89.350,0.885,-31.432
EX0521-092111,21,C12,prep,1887,1887,0,1067499.092,0.686,-0.675,0.196,0.187,0,0,0,0,0,0,0,0,0,0.000,0,0,0.069,0.008,-0.040,-0.040,-0.040,0.015,0.994,0.011,-0.008,0.002,0.002,0.000,0.000,0.000,0.000,0,2,0,2,7,255,960,200,0,0,-89.350,0.885,-31.432
EX0521-092111,21,C12,prep,1887,1887,0,1067504.093,0.686,-0.675,0.196,0.187,0,0,0,0,0,0,0,0,0,0.000,0,0,0.069,0.004,0.040,0.040,-0.040,0.015,0.994,0.012,0.002,-0.004,0.002,0.000,0.000,0.000,0.000,0,2,0,2,7,255,960,200,0,0,-89.350,0.885,-31.432
EX0521-092111,21,C12,prep,1887,1887,0,1067509.091,0.686,-0.675,0.196,0.187,0,0,0,0,0,0,0,0,0,0.000,0,0,0.069,0.002,-0.040,-0.040,-0.040,0.014,0.993,0.011,0.002,0.000,0.002,0.000,0.000,0.000,0.000,0,2,0,2,7,255,960,200,0,0,-89.350,0.885,-31.432
EX0521-092111,21,C12,prep,1887,1887,0,1067514.091,0.686,-0.675,0.196,0.187,0,0,0,0,0,0,0,0,0,0.000,0,0,0.060,0.006,0.020,-0.040,-0.040,0.015,0.993,0.012,0.000,-0.006,-0.004,0.000,0.000,0.000,0.000,0,2,0,2,7,255,960,200,0,0,-89.350,0.885,-31.432
EX0521-092111,21,C12,prep,1909,1909,0,1067519.092,0.686,-0.675,0.196,0.187,0,0,0,0,0,0,0,0,0,0.000,0,0,0.060,0.000,0.020,-0.040,-0.040,0.014,0.994,0.011,0.000,0.000,-0.004,0.000,0.000,0.000,0.000,0,2,0,2,7,255,960,200,0,0,-89.350,0.885,-31.432
EX0521-092111,21,C12,prep,1909,1909,0,1067524.092,0.686,-0.675,0.196,0.187,0,0,0,0,0,0,0,0,0,0.000,0,0,0.060,0.004,0.020,-0.040,-0.040,0.014,0.993,0.010,0.000,0.004,-0.004,0.000,0.000,0.000,0.000,0,2,0,2,7,255,960,200,0,0,-89.350,0.885,-31.432
EX0521-092111,21,C12,prep,1909,1909,0,1067529.091,0.686,-0.675,0.196,0.187,0,0,0,0,0,0,0,0,0,0.000,0,0,0.069,0.010,-0.040,-0.040,-0.040,0.014,0.994,0.010,0.002,0.010,0.002,0.000,0.000,0.000,0.000,0,2,0,2,7,255,960,200,0,0,-89.350,0.885,-31.432
EX0521-092111,21,C12,prep,1909,1909,0,1067534.092,0.686,-0.675,0.196,0.187,0,0,0,0,0,0,0,0,0,0.000,0,0,0.110,0.012,0.020,-0.040,-0.100,0.014,0.993,0.010,0.006,0.010,-0.004,0.000,0.000,0.000,0.000,0,2,0,2,7,255,960,200,0,0,-89.350,0.885,-31.432
EX0521-092111,21,C12,prep,1919,1919,0,1067539.092,0.686,-0.675,0.196,0.187,0,0,0,0,0,0,0,0,0,0.000,0,0,0.069,0.010,-0.040,-0.040,-0.040,0.015,0.994,0.011,0.006,0.008,0.006,0.000,0.000,0.000,0.000,0,2,0,2,7,255,960,200,0,0,-89.350,0.885,-31.432
EX0521-092111,21,C12,prep,1919,1919,0,1067544.091,0.686,-0.675,0.196,0.187,0,0,0,0,0,0,0,0,0,0.000,0,0,0.115,0.008,-0.100,-0.040,-0.040,0.015,0.993,0.011,0.008,0.000,-0.004,0.000,0.000,0.000,0.000,0,2,0,2,7,255,960,200,0,0,-89.350,0.885,-31.432
EX0521-092111,21,C12,prep,1943,1943,0,1067549.091,0.686,-0.675,0.196,0.187,0,0,0,0,0,0,0,0,0,0.000,0,0,0.060,0.008,0.020,-0.040,-0.040,0.015,0.995,0.011,0.008,0.000,0.006,0.000,0.000,0.000,0.000,0,2,0,2,7,255,960,200,0,0,-89.350,0.885,-31.432
EX0521-092111,21,C12,prep,1943,1943,0,1067554.092,0.686,-0.675,0.196,0.187,0,0,0,0,0,0,0,0,0,0.000,0,0,0.069,0.006,-0.040,-0.040,-0.040,0.014,0.995,0.012,0.006,0.000,0.016,0.000,0.000,0.000,0.000,0,2,0,2,7,255,960,200,0,0,-89.350,0.885,-31.432
EX0521-092111,21,C12,prep,1943,1943,0,1067559.092,0.686,-0.675,0.196,0.187,0,0,0,0,0,0,0,0,0,0.000,0,0,0.060,0.000,-0.040,0.020,-0.040,0.014,0.994,0.011,0.000,0.000,0.016,0.000,0.000,0.000,0.000,0,2,0,2,7,255,960,200,0,0,-89.350,0.885,-31.432
EX0521-092111,21,C12,prep,1943,1943,0,1067564.093,0.686,-0.675,0.196,0.187,0,0,0,0,0,0,0,0,0,0.000,0,0,0.049,0.000,0.020,-0.040,0.020,0.014,0.994,0.011,0.000,0.000,0.006,0.000,0.000,0.000,0.000,0,2,0,2,7,255,960,200,0,0,-89.350,0.885,-31.432
EX0521-092111,21,C12,prep,1944,1944,0,1067569.091,0.686,-0.675,0.196,0.187,0,0,0,0,0,0,0,0,0,0.000,0,0,0.115,0.000,-0.040,-0.100,-0.040,0.015,0.995,0.011,0.000,0.000,0.006,0.000,0.000,0.000,0.000,0,2,0,2,7,255,960,200,0,0,-89.350,0.885,-31.432
EX0521-092111,21,C12,prep,1944,1944,0,1067574.092,0.686,-0.675,0.196,0.187,0,0,0,0,0,0,0,0,0,0.000,0,0,0.060,0.000,0.020,-0.040,-0.040,0.014,0.993,0.011,0.000,0.000,0.006,0.000,0.000,0.000,0.000,0,2,0,2,7,255,960,200,0,0,-89.350,0.885,-31.432
EX0521-092111,21,C12,prep,1951,1951,0,1067579.092,0.686,-0.675,0.196,0.187,0,0,0,0,0,0,0,0,0,0.000,0,0,0.060,0.006,0.020,-0.040,-0.040,0.013,0.994,0.011,-0.004,0.004,0.000,0.000,0.000,0.000,0.000,0,2,0,2,7,255,960,200,0,0,-89.350,0.885,-31.432
EX0521-092111,21,C12,prep,1951,1951,0,1067584.091,0.686,-0.675,0.196,0.187,0,0,0,0,0,0,0,0,0,0.000,0,0,0.049,0.006,0.020,-0.040,0.020,0.014,0.993,0.011,-0.004,0.004,-0.008,0.000,0.000,0.000,0.000,0,2,0,2,7,255,960,200,0,0,-89.350,0.885,-31.432
EX0521-092111,21,C12,prep,1983,1983,0,1067589.092,0.686,-0.675,0.196,0.187,0,0,0,0,0,0,0,0,0,0.000,0,0,0.069,0.006,-0.040,-0.040,-0.040,0.014,0.994,0.011,-0.004,0.004,0.000,0.000,0.000,0.000,0.000,0,2,0,2,7,255,960,200,0,0,-89.350,0.885,-31.432
EX0521-092111,21,C12,prep,1983,1983,0,1067594.092,0.686,-0.675,0.196,0.187,0,0,0,0,0,0,0,0,0,0.000,0,0,0.060,0.004,0.020,-0.040,-0.040,0.014,0.993,0.012,-0.004,0.000,-0.008,0.000,0.000,0.000,0.000,0,2,0,2,7,255,960,200,0,0,-89.350,0.885,-31.432
EX0521-092111,21,C12,prep,1983,1983,0,1067599.092,0.686,-0.675,0.196,0.187,0,0,0,0,0,0,0,0,0,0.000,0,0,0.069,0.006,-0.040,-0.040,-0.040,0.013,0.994,0.011,-0.004,0.004,0.000,0.000,0.000,0.000,0.000,0,2,0,2,7,255,960,200,0,0,-89.350,0.885,-31.432
EX0521-092111,21,C12,prep,1983,1983,0,1067604.093,0.686,-0.675,0.196,0.187,0,0,0,0,0,0,0,0,0,0.000,0,0,0.069,0.004,-0.040,-0.040,-0.040,0.015,0.993,0.011,-0.004,-0.002,-0.004,0.000,0.000,0.000,0.000,0,2,0,2,7,255,960,200,0,0,-89.350,0.885,-31.432
EX0521-092111,21,C12,prep,1983,1983,0,1067609.092,0.686,-0.675,0.196,0.187,0,0,0,0,0,0,0,0,0,0.000,0,0,0.049,0.004,0.020,0.040,0.020,0.015,0.994,0.011,0.004,0.002,0.000,0.000,0.000,0.000,0.000,0,2,0,2,7,255,960,200,0,0,-89.350,0.885,-31.432
EX0521-092111,21,C12,prep,1983,1983,0,1067614.092,0.686,-0.675,0.196,0.187,0,0,0,0,0,0,0,0,0,0.000,0,0,0.060,0.004,0.020,-0.040,-0.040,0.015,0.994,0.011,0.004,-0.002,0.000,0.000,0.000,0.000,0.000,0,2,0,2,7,255,960,200,0,0,-89.350,0.885,-31.432
EX0521-092111,21,C12,prep,2031,2031,0,1067619.091,0.686,-0.675,0.196,0.187,0,0,0,0,0,0,0,0,0,0.000,0,0,0.069,0.004,-0.040,-0.040,-0.040,0.014,0.993,0.012,0.004,-0.002,0.000,0.000,0.000,0.000,0.000,0,2,0,2,7,255,960,200,0,0,-89.350,0.885,-31.432
EX0521-092111,21,C12,prep,2031,2031,0,1067624.092,0.686,-0.675,0.196,0.187,0,0,0,0,0,0,0,0,0,0.000,0,0,0.049,0.004,0.020,-0.040,0.020,0.015,0.994,0.011,0.004,-0.002,0.006,0.000,0.000,0.000,0.000,0,2,0,2,7,255,960,200,0,0,-89.350,0.885,-31.432
EX0521-092111,21,C12,prep,2031,2031,0,1067629.092,0.686,-0.675,0.196,0.187,0,0,0,0,0,0,0,0,0,0.000,0,0,0.060,0.006,0.020,-0.040,-0.040,0.015,0.994,0.012,0.004,-0.004,0.006,0.000,0.000,0.000,0.000,0,2,0,2,7,255,960,200,0,0,-89.350,0.885,-31.432
EX0521-092111,21,C12,prep,2031,2031,0,1067634.091,0.686,-0.675,0.196,0.187,0,0,0,0,0,0,0,0,0,0.000,0,0,0.060,0.004,0.020,-0.040,-0.040,0.014,0.995,0.011,0.004,-0.002,0.006,0.000,0.000,0.000,0.000,0,2,0,2,7,255,960,200,0,0,-89.350,0.885,-31.432
EX0521-092111,21,C12,prep,2031,2031,0,1067639.092,0.686,-0.675,0.196,0.187,0,0,0,0,0,0,0,0,0,0.000,0,0,0.049,0.004,0.020,-0.040,0.020,0.015,0.993,0.011,0.004,-0.002,0.006,0.000,0.000,0.000,0.000,0,2,0,2,7,255,960,200,0,0,-89.350,0.885,-31.432
EX0521-092111,21,C12,prep,2031,2031,0,1067644.092,0.686,-0.675,0.196,0.187,0,0,0,0,0,0,0,0,0,0.000,0,0,0.049,0.002,0.020,-0.040,0.020,0.015,0.993,0.013,0.000,-0.002,-0.004,0.000,0.000,0.000,0.000,0,2,0,2,7,255,960,200,0,0,-89.350,0.885,-31.432
EX0521-092111,21,C12,prep,2031,2031,0,1067649.092,0.686,-0.675,0.196,0.187,0,0,0,0,0,0,0,0,0,0.000,0,0,0.049,0.009,0.020,-0.040,0.020,0.015,0.993,0.012,0.004,-0.008,-0.004,0.000,0.000,0.000,0.000,0,2,0,2,7,255,960,200,0,0,-89.350,0.885,-31.432
EX0521-092111,21,C12,prep,2031,2031,0,1067654.091,0.686,-0.675,0.196,0.187,0,0,0,0,0,0,0,0,0,0.000,0,0,0.069,0.009,-0.040,-0.040,-0.040,0.014,0.993,0.012,-0.004,-0.008,-0.004,0.000,0.000,0.000,0.000,0,2,0,2,7,255,960,200,0,0,-89.350,0.885,-31.432
EX0521-092111,21,C12,prep,2051,2051,0,1067659.092,0.686,-0.675,0.196,0.187,0,0,0,0,0,0,0,0,0,0.000,0,0,0.069,0.009,-0.040,-0.040,-0.040,0.015,0.993,0.013,-0.004,-0.008,-0.004,0.000,0.000,0.000,0.000,0,2,0,2,7,255,960,200,0,0,-89.350,0.885,-31.432
EX0521-092111,21,C12,prep,2051,2051,0,1067664.092,0.686,-0.675,0.196,0.187,0,0,0,0,0,0,0,0,0,0.000,0,0,0.069,0.006,0.040,-0.040,-0.040,0.015,0.994,0.011,-0.004,-0.004,-0.004,0.000,0.000,0.000,0.000,0,2,0,2,7,255,960,200,0,0,-89.350,0.885,-31.432
EX0521-092111,21,C12,prep,2052,2052,0,1067669.092,0.686,-0.675,0.196,0.187,0,0,0,0,0,0,0,0,0,0.000,0,0,0.069,0.011,0.040,0.040,-0.040,0.014,0.995,0.013,-0.004,-0.010,0.000,0.000,0.000,0.000,0.000,0,2,0,2,7,255,960,200,0,0,-89.350,0.885,-31.432
EX0521-092111,21,C12,prep,2052,2052,0,1067674.091,0.686,-0.675,0.196,0.187,0,0,0,0,0,0,0,0,0,0.000,0,0,0.069,0.003,-0.040,-0.040,-0.040,0.014,0.995,0.011,0.002,-0.002,0.010,0.000,0.000,0.000,0.000,0,2,0,2,7,255,960,200,0,0,-89.350,0.885,-31.432
EX0521-092111,21,C12,prep,2063,2063,0,1067679.092,0.686,-0.675,0.196,0.187,0,0,0,0,0,0,0,0,0,0.000,0,0,0.069,0.003,0.040,-0.040,-0.040,0.014,0.994,0.012,-0.002,-0.002,0.010,0.000,0.000,0.000,0.000,0,2,0,2,7,255,960,200,0,0,-89.350,0.885,-31.432
EX0521-092111,21,C12,prep,2063,2063,0,1067684.092,0.686,-0.675,0.196,0.187,0,0,0,0,0,0,0,0,0,0.000,0,0,0.069,0.004,0.040,0.040,-0.040,0.014,0.993,0.011,-0.002,0.004,0.000,0.000,0.000,0.000,0.000,0,2,0,2,7,255,960,200,0,0,-89.350,0.885,-31.432
EX0521-092111,21,C12,prep,2095,2095,0,1067689.091,0.686,-0.675,0.196,0.187,0,0,0,0,0,0,0,0,0,0.000,0,0,0.069,0.004,-0.040,-0.040,-0.040,0.014,0.995,0.012,-0.004,0.000,0.000,0.000,0.000,0.000,0.000,0,2,0,2,7,255,960,200,0,0,-89.350,0.885,-31.432
EX0521-092111,21,C12,prep,2095,2095,0,1067694.091,0.686,-0.675,0.196,0.187,0,0,0,0,0,0,0,0,0,0.000,0,0,0.069,0.004,-0.040,-0.040,-0.040,0.015,0.994,0.011,-0.004,0.000,0.000,0.000,0.000,0.000,0.000,0,2,0,2,7,255,960,200,0,0,-89.350,0.885,-31.432
EX0521-092111,21,C12,prep,2095,2095,0,1067699.092,0.686,-0.675,0.196,0.187,0,0,0,0,0,0,0,0,0,0.000,0,0,0.060,0.004,0.040,-0.040,0.020,0.014,0.993,0.010,0.004,0.000,0.000,0.000,0.000,0.000,0.000,0,2,0,2,7,255,960,200,0,0,-89.350,0.885,-31.432
EX0521-092111,21,C12,prep,2095,2095,0,1067704.093,0.686,-0.675,0.196,0.187,0,0,0,0,0,0,0,0,0,0.000,0,0,0.069,0.004,-0.040,-0.040,-0.040,0.014,0.994,0.012,0.004,0.000,0.000,0.000,0.000,0.000,0.000,0,2,0,2,7,255,960,200,0,0,-89.350,0.885,-31.432
EX0521-092111,21,C12,prep,2095,2095,0,1067709.091,0.686,-0.675,0.196,0.187,0,0,0,0,0,0,0,0,0,0.000,0,0,0.069,0.002,-0.040,-0.040,-0.040,0.014,0.993,0.012,-0.002,0.000,-0.004,0.000,0.000,0.000,0.000,0,2,0,2,7,255,960,200,0,0,-89.350,0.885,-31.432
EX0521-092111,21,C12,prep,2095,2095,0,1067714.092,0.686,-0.675,0.196,0.187,0,0,0,0,0,0,0,0,0,0.000,0,0,0.060,0.003,0.020,-0.040,-0.040,0.015,0.994,0.011,-0.002,-0.002,0.000,0.000,0.000,0.000,0.000,0,2,0,2,7,255,960,200,0,0,-89.350,0.885,-31.432
EX0521-092111,21,C12,prep,2117,2117,0,1067719.092,0.686,-0.675,0.196,0.187,0,0,0,0,0,0,0,0,0,0.000,0,0,0.069,0.003,-0.040,-0.040,-0.040,0.015,0.993,0.012,0.002,-0.002,-0.004,0.000,0.000,0.000,0.000,0,2,0,2,7,255,960,200,0,0,-89.350,0.885,-31.432
EX0521-092111,21,C12,prep,2117,2117,0,1067724.091,0.686,-0.675,0.196,0.187,0,0,0,0,0,0,0,0,0,0.000,0,0,0.069,0.006,-0.040,-0.040,-0.040,0.015,0.993,0.012,0.002,-0.006,-0.004,0.000,0.000,0.000,0.000,0,2,0,2,7,255,960,200,0,0,-89.350,0.885,-31.432
EX0521-092111,21,C12,prep,2118,2118,0,1067729.091,0.686,-0.675,0.196,0.187,0,0,0,0,0,0,0,0,0,0.000,0,0,0.069,0.006,-0.040,-0.040,-0.040,0.015,0.994,0.010,0.002,-0.006,-0.004,0.000,0.000,0.000,0.000,0,2,0,2,7,255,960,200,0,0,-89.350,0.885,-31.432
EX0521-092111,21,C12,prep,2118,2118,0,1067734.092,0.686,-0.675,0.196,0.187,0,0,0,0,0,0,0,0,0,0.000,0,0,0.049,0.008,0.020,0.020,-0.040,0.014,0.993,0.010,0.006,0.006,-0.008,0.000,0.000,0.000,0.000,0,2,0,2,7,255,960,200,0,0,-89.350,0.885,-31.432
EX0521-092111,21,C12,prep,2119,2119,0,1067739.092,0.686,-0.675,0.196,0.187,0,0,0,0,0,0,0,0,0,0.000,0,0,0.060,0.008,0.020,-0.040,-0.040,0.015,0.994,0.012,0.006,0.006,0.000,0.000,0.000,0.000,0.000,0,2,0,2,7,255,960,200,0,0,-89.350,0.885,-31.432
EX0521-092111,21,C12,prep,2119,2119,0,1067744.091,0.686,-0.675,0.196,0.187,0,0,0,0,0,0,0,0,0,0.000,0,0,0.060,0.008,0.020,-0.040,-0.040,0.016,0.993,0.012,0.006,-0.006,-0.004,0.000,0.000,0.000,0.000,0,2,0,2,7,255,960,200,0,0,-89.350,0.885,-31.432
EX0521-092111,21,C12,prep,2127,2127,0,1067749.092,0.686,-0.675,0.196,0.187,0,0,0,0,0,0,0,0,0,0.000,0,0,0.110,0.006,-0.040,-0.100,0.020,0.014,0.993,0.011,0.002,-0.006,-0.004,0.000,0.000,0.000,0.000,0,2,0,2,7,255,960,200,0,0,-89.350,0.885,-31.432
EX0521-092111,21,C12,prep,2127,2127,0,1067754.092,0.686,-0.675,0.196,0.187,0,0,0,0,0,0,0,0,0,0.000,0,0,0.069,0.006,-0.040,-0.040,-0.040,0.014,0.993,0.011,-0.004,0.004,-0.008,0.000,0.000,0.000,0.000,0,2,0,2,7,255,960,200,0,0,-89.350,0.885,-31.432
EX0521-092111,21,C12,prep,2148,2148,0,1067759.093,0.686,-0.675,0.196,0.187,0,0,0,0,0,0,0,0,0,0.000,0,0,0.115,0.006,-0.100,-0.040,-0.040,0.015,0.994,0.011,-0.004,0.004,-0.008,0.000,0.000,0.000,0.000,0,2,0,2,7,255,960,200,0,0,-89.350,0.885,-31.432
EX0521-092111,21,C12,prep,2148,2148,0,1067764.093,0.686,-0.675,0.196,0.187,0,0,0,0,0,0,0,0,0,0.000,0,0,0.060,0.004,-0.040,0.020,-0.040,0.015,0.995,0.011,0.004,0.002,0.006,0.000,0.000,0.000,0.000,0,2,0,2,7,255,960,200,0,0,-89.350,0.885,-31.432
EX0521-092111,21,C12,prep,2148,2148,0,1067769.092,0.686,-0.675,0.196,0.187,0,0,0,0,0,0,0,0,0,0.000,0,0,0.060,0.004,-0.040,-0.040,0.020,0.015,0.993,0.012,0.004,-0.002,0.006,0.000,0.000,0.000,0.000,0,2,0,2,7,255,960,200,0,0,-89.350,0.885,-31.432
EX0521-092111,21,C12,prep,2148,2148,0,1067774.092,0.686,-0.675,0.196,0.187,0,0,0,0,0,0,0,0,0,0.000,0,0,0.049,0.002,0.020,-0.040,0.020,0.014,0.994,0.011,0.000,-0.002,0.006,0.000,0.000,0.000,0.000,0,2,0,2,7,255,960,200,0,0,-89.350,0.885,-31.432
EX0521-092111,21,C12,prep,2159,2159,0,1067779.091,0.686,-0.675,0.196,0.187,0,0,0,0,0,0,0,0,0,0.000,0,0,0.060,0.000,0.020,-0.040,-0.040,0.015,0.993,0.011,0.000,0.000,-0.004,0.000,0.000,0.000,0.000,0,2,0,2,7,255,960,200,0,0,-89.350,0.885,-31.432
EX0521-092111,21,C12,prep,2159,2159,0,1067784.091,0.686,-0.675,0.196,0.187,0,0,0,0,0,0,0,0,0,0.000,0,0,0.069,0.002,-0.040,-0.040,-0.040,0.013,0.993,0.011,0.000,0.002,-0.004,0.000,0.000,0.000,0.000,0,2,0,2,7,255,960,200,0,0,-89.350,0.885,-31.432
EX0521-092111,21,C12,prep,2191,2191,0,1067789.092,0.686,-0.675,0.196,0.187,0,0,0,0,0,0,0,0,0,0.000,0,0,0.115,0.002,-0.040,-0.040,-0.100,0.014,0.993,0.011,0.000,0.002,-0.004,0.000,0.000,0.000,0.000,0,2,0,2,7,255,960,200,0,0,-89.350,0.885,-31.432
EX0521-092111,21,C12,prep,2191,2191,0,1067794.092,0.686,-0.675,0.196,0.187,0,0,0,0,0,0,0,0,0,0.000,0,0,0.069,0.002,-0.040,-0.040,-0.040,0.014,0.994,0.011,0.000,0.002,-0.004,0.000,0.000,0.000,0.000,0,2,0,2,7,255,960,200,0,0,-89.350,0.885,-31.432
EX0521-092111,21,C12,prep,2191,2191,0,1067799.092,0.686,-0.675,0.196,0.187,0,0,0,0,0,0,0,0,0,0.000,0,0,0.060,0.002,0.020,-0.040,-0.040,0.014,0.994,0.012,0.000,0.002,0.000,0.000,0.000,0.000,0.000,0,2,0,2,7,255,960,200,0,0,-89.350,0.885,-31.432
EX0521-092111,21,C12,prep,2191,2191,0,1067804.093,0.686,-0.675,0.196,0.187,0,0,0,0,0,0,0,0,0,0.000,0,0,0.060,0.002,0.020,-0.040,-0.040,0.015,0.994,0.011,0.000,0.002,0.000,0.000,0.000,0.000,0.000,0,2,0,2,7,255,960,200,0,0,-89.350,0.885,-31.432
EX0521-092111,21,C12,prep,2226,2226,0,1067809.092,0.686,-0.675,0.196,0.187,0,0,0,0,0,0,0,0,0,0.000,0,0,0.060,0.004,-0.040,-0.040,0.020,0.015,0.995,0.011,0.004,-0.002,0.000,0.000,0.000,0.000,0.000,0,2,0,2,7,255,960,200,0,0,-89.350,0.885,-31.432
EX0521-092111,21,C12,prep,2226,2226,0,1067814.091,0.686,-0.675,0.196,0.187,0,0,0,0,0,0,0,0,0,0.000,0,0,0.060,0.004,0.020,-0.040,-0.040,0.014,0.993,0.011,0.004,0.002,0.000,0.000,0.000,0.000,0.000,0,2,0,2,7,255,960,200,0,0,-89.350,0.885,-31.432
EX0521-092111,21,C12,prep,2226,2226,0,1067819.091,0.686,-0.675,0.196,0.187,0,0,0,0,0,0,0,0,0,0.000,0,0,0.069,0.002,-0.040,-0.040,-0.040,0.015,0.994,0.013,0.000,-0.002,0.002,0.000,0.000,0.000,0.000,0,2,0,2,7,255,960,200,0,0,-89.350,0.885,-31.432
EX0521-092111,21,C12,prep,2226,2226,0,1067824.092,0.686,-0.675,0.196,0.187,0,0,0,0,0,0,0,0,0,0.000,0,0,0.069,0.000,-0.040,-0.040,-0.040,0.015,0.994,0.011,0.000,0.000,0.002,0.000,0.000,0.000,0.000,0,2,0,2,7,255,960,200,0,0,-89.350,0.885,-31.432
EX0521-092111,21,C12,prep,2228,2228,0,1067829.092,0.686,-0.675,0.196,0.187,0,0,0,0,0,0,0,0,0,0.000,0,0,0.110,0.004,0.020,-0.100,-0.040,0.015,0.993,0.011,0.004,-0.002,0.002,0.000,0.000,0.000,0.000,0,2,0,2,7,255,960,200,0,0,-89.350,0.885,-31.432
EX0521-092111,21,C12,prep,2228,2228,0,1067834.091,0.686,-0.675,0.196,0.187,0,0,0,0,0,0,0,0,0,0.000,0,0,0.060,0.004,0.020,-0.040,-0.040,0.014,0.993,0.011,0.004,0.000,-0.004,0.000,0.000,0.000,0.000,0,2,0,2,7,255,960,200,0,0,-89.350,0.885,-31.432
EX0521-092111,21,C12,prep,2229,2229,0,1067839.091,0.686,-0.675,0.196,0.187,0,0,0,0,0,0,0,0,0,0.000,0,0,0.049,0.004,0.020,0.020,-0.040,0.014,0.994,0.012,-0.004,0.000,-0.004,0.000,0.000,0.000,0.000,0,2,0,2,7,255,960,200,0,0,-89.350,0.885,-31.432
EX0521-092111,21,C12,prep,2229,2229,0,1067844.092,0.686,-0.675,0.196,0.187,0,0,0,0,0,0,0,0,0,0.000,0,0,0.069,0.004,-0.040,-0.040,-0.040,0.014,0.996,0.012,-0.004,0.000,0.000,0.000,0.000,0.000,0.000,0,2,0,2,7,255,960,200,0,0,-89.350,0.885,-31.432
EX0521-092111,21,C12,prep,2229,2229,0,1067849.092,0.686,-0.675,0.196,0.187,0,0,0,0,0,0,0,0,0,0.000,0,0,0.060,0.006,0.020,-0.040,-0.040,0.014,0.994,0.012,-0.006,-0.002,0.000,0.000,0.000,0.000,0.000,0,2,0,2,7,255,960,200,0,0,-89.350,0.885,-31.432
EX0521-092111,21,C12,prep,2229,2229,0,1067854.091,0.686,-0.675,0.196,0.187,0,0,0,0,0,0,0,0,0,0.000,0,0,0.060,0.003,0.020,-0.040,-0.040,0.014,0.994,0.012,-0.002,-0.002,0.000,0.000,0.000,0.000,0.000,0,2,0,2,7,255,960,200,0,0,-89.350,0.885,-31.432
EX0521-092111,21,C12,prep,2249,2249,0,1067859.092,0.686,-0.675,0.196,0.187,0,0,0,0,0,0,0,0,0,0.000,0,0,0.060,0.003,0.020,-0.040,-0.040,0.015,0.994,0.010,-0.002,-0.002,0.000,0.000,0.000,0.000,0.000,0,2,0,2,7,255,960,200,0,0,-89.350,0.885,-31.432
EX0521-092111,21,C12,prep,2249,2249,0,1067864.092,0.686,-0.675,0.196,0.187,0,0,0,0,0,0,0,0,0,0.000,0,0,0.049,0.008,0.020,0.020,-0.040,0.015,0.994,0.011,0.008,-0.002,0.000,0.000,0.000,0.000,0.000,0,2,0,2,7,255,960,200,0,0,-89.350,0.885,-31.432
EX0521-092111,21,C12,prep,2250,2250,0,1067869.091,0.686,-0.675,0.196,0.187,0,0,0,0,0,0,0,0,0,0.000,0,0,0.115,0.011,-0.040,-0.040,-0.100,0.016,0.994,0.012,0.010,-0.004,0.000,0.000,0.000,0.000,0.000,0,2,0,2,7,255,960,200,0,0,-89.350,0.885,-31.432
EX0521-092111,21,C12,prep,2250,2250,0,1067874.091,0.686,-0.675,0.196,0.187,0,0,0,0,0,0,0,0,0,0.000,0,0,0.060,0.009,0.020,-0.040,-0.040,0.014,0.994,0.011,0.008,-0.004,0.006,0.000,0.000,0.000,0.000,0,2,0,2,7,255,960,200,0,0,-89.350,0.885,-31.432
EX0521-092111,21,C12,prep,2255,2255,0,1067879.092,0.686,-0.675,0.196,0.187,0,0,0,0,0,0,0,0,0,0.000,0,0,0.049,0.010,0.020,0.020,-0.040,0.015,0.994,0.011,0.010,0.000,0.006,0.000,0.000,0.000,0.000,0,2,0,2,7,255,960,200,0,0,-89.350,0.885,-31.432
EX0521-092111,21,C12,prep,2255,2255,0,1067884.092,0.686,-0.675,0.196,0.187,0,0,0,0,0,0,0,0,0,0.000,0,0,0.060,0.006,-0.040,0.020,-0.040,0.015,0.993,0.012,0.006,0.000,0.000,0.000,0.000,0.000,0.000,0,2,0,2,7,255,960,200,0,0,-89.350,0.885,-31.432
EX0521-092111,21,C12,prep,2287,2287,0,1067889.091,0.686,-0.675,0.196,0.187,0,0,0,0,0,0,0,0,0,0.000,0,0,0.069,0.006,-0.040,-0.040,-0.040,0.014,0.994,0.011,0.006,0.000,0.000,0.000,0.000,0.000,0.000,0,2,0,2,7,255,960,200,0,0,-89.350,0.885,-31.432
EX0521-092111,21,C12,prep,2287,2287,0,1067894.091,0.686,-0.675,0.196,0.187,0,0,0,0,0,0,0,0,0,0.000,0,0,0.069,0.006,-0.040,-0.040,-0.040,0.015,0.994,0.011,0.006,0.002,0.000,0.000,0.000,0.000,0.000,0,2,0,2,7,255,960,200,0,0,-89.350,0.885,-31.432
EX0521-092111,21,C12,prep,2287,2287,0,1067899.092,0.686,-0.675,0.196,0.187,0,0,0,0,0,0,0,0,0,0.000,0,0,0.060,0.004,0.020,-0.040,-0.040,0.014,0.993,0.011,0.000,0.004,0.000,0.000,0.000,0.000,0.000,0,2,0,2,7,255,960,200,0,0,-89.350,0.885,-31.432
EX0521-092111,21,C12,prep,2287,2287,0,1067904.093,0.686,-0.675,0.196,0.187,0,0,0,0,0,0,0,0,0,0.000,0,0,0.104,0.004,0.020,-0.100,0.020,0.014,0.993,0.011,-0.002,0.004,-0.004,0.000,0.000,0.000,0.000,0,2,0,2,7,255,960,200,0,0,-89.350,0.885,-31.432
EX0521-092111,21,C12,prep,2287,2287,0,1067909.091,0.686,-0.675,0.196,0.187,0,0,0,0,0,0,0,0,0,0.000,0,0,0.069,0.004,-0.040,-0.040,-0.040,0.015,0.994,0.012,-0.002,0.004,-0.004,0.000,0.000,0.000,0.000,0,2,0,2,7,255,960,200,0,0,-89.350,0.885,-31.432
EX0521-092111,21,C12,prep,2287,2287,0,1067914.092,0.686,-0.675,0.196,0.187,0,0,0,0,0,0,0,0,0,0.000,0,0,0.110,0.002,0.020,-0.100,-0.040,0.014,0.994,0.012,-0.002,0.000,0.000,0.000,0.000,0.000,0.000,0,2,0,2,7,255,960,200,0,0,-89.350,0.885,-31.432
EX0521-092111,21,C12,prep,2313,2313,0,1067919.092,0.686,-0.675,0.196,0.187,0,0,0,0,0,0,0,0,0,0.000,0,0,0.060,0.004,0.020,-0.040,-0.040,0.015,0.994,0.012,0.002,-0.004,0.000,0.000,0.000,0.000,0.000,0,2,0,2,7,255,960,200,0,0,-89.350,0.885,-31.432
EX0521-092111,21,C12,prep,2313,2313,0,1067924.091,0.686,-0.675,0.196,0.187,0,0,0,0,0,0,0,0,0,0.000,0,0,0.110,0.006,0.020,-0.100,-0.040,0.014,0.994,0.012,-0.006,0.000,0.006,0.000,0.000,0.000,0.000,0,2,0,2,7,255,960,200,0,0,-89.350,0.885,-31.432
EX0521-092111,21,C12,prep,2314,2314,0,1067929.091,0.686,-0.675,0.196,0.187,0,0,0,0,0,0,0,0,0,0.000,0,0,0.060,0.002,0.020,-0.040,-0.040,0.014,0.993,0.010,0.002,0.000,0.006,0.000,0.000,0.000,0.000,0,2,0,2,7,255,960,200,0,0,-89.350,0.885,-31.432
EX0521-092111,21,C12,prep,2314,2314,0,1067934.092,0.686,-0.675,0.196,0.187,0,0,0,0,0,0,0,0,0,0.000,0,0,0.069,0.008,-0.040,-0.040,-0.040,0.014,0.994,0.011,-0.002,0.008,0.000,0.000,0.000,0.000,0.000,0,2,0,2,7,255,960,200,0,0,-89.350,0.885,-31.432
EX0521-092111,21,C12,prep,2315,2315,0,1067939.092,0.686,-0.675,0.196,0.187,0,0,0,0,0,0,0,0,0,0.000,0,0,0.060,0.009,0.020,-0.040,-0.040,0.015,0.994,0.010,0.004,0.008,0.000,0.000,0.000,0.000,0.000,0,2,0,2,7,255,960,200,0,0,-89.350,0.885,-31.432
EX0521-092111,21,C12,prep,2315,2315,0,1067944.092,0.686,-0.675,0.196,0.187,0,0,0,0,0,0,0,0,0,0.000,0,0,0.060,0.008,0.020,-0.040,-0.040,0.014,0.993,0.011,0.000,0.008,0.000,0.000,0.000,0.000,0.000,0,2,0,2,7,255,960,200,0,0,-89.350,0.885,-31.432
EX0521-092111,21,C12,prep,2348,2348,0,1067949.091,0.686,-0.675,0.196,0.187,0,0,0,0,0,0,0,0,0,0.000,0,0,0.049,0.002,0.020,0.020,-0.040,0.014,0.995,0.012,0.000,0.002,0.006,0.000,0.000,0.000,0.000,0,2,0,2,7,255,960,200,0,0,-89.350,0.885,-31.432
EX0521-092111,21,C12,prep,2348,2348,0,1067954.092,0.686,-0.675,0.196,0.187,0,0,0,0,0,0,0,0,0,0.000,0,0,0.060,0.004,0.020,-0.040,-0.040,0.015,0.993,0.011,0.000,-0.004,-0.004,0.000,0.000,0.000,0.000,0,2,0,2,7,255,960,200,0,0,-89.350,0.885,-31.432
EX0521-092111,21,C12,prep,2348,2348,0,1067959.091,0.686,-0.675,0.196,0.187,0,0,0,0,0,0,0,0,0,0.000,0,0,0.060,0.004,0.040,-0.040,0.020,0.014,0.993,0.011,0.002,-0.004,-0.008,0.000,0.000,0.000,0.000,0,2,0,2,7,255,960,200,0,0,-89.350,0.885,-31.432
EX0521-092111,21,C12,prep,2348,2348,0,1067964.093,0.686,-0.675,0.196,0.187,0,0,0,0,0,0,0,0,0,0.000,0,0,0.069,0.007,-0.040,0.040,-0.040,0.015,0.995,0.011,0.006,0.004,-0.008,0.000,0.000,0.000,0.000,0,2,0,2,7,255,960,200,0,0,-89.350,0.885,-31.432
EX0521-092111,21,C12,prep,2349,2349,0,1067969.092,0.686,-0.675,0.196,0.187,0,0,0,0,0,0,0,0,0,0.000,0,0,0.060,0.004,-0.040,-0.040,0.020,0.014,0.995,0.012,0.002,0.004,0.010,0.000,0.000,0.000,0.000,0,2,0,2,7,255,960,200,0,0,-89.350,0.885,-31.432
EX0521-092111,21,C12,prep,2349,2349,0,1067974.092,0.686,-0.675,0.196,0.187,0,0,0,0,0,0,0,0,0,0.000,0,0,0.060,0.007,-0.040,-0.040,0.020,0.014,0.993,0.012,-0.006,-0.004,0.010,0.000,0.000,0.000,0.000,0,2,0,2,7,255,960,200,0,0,-89.350,0.885,-31.432
EX0521-092111,21,C12,prep,2380,2380,0,1067979.091,0.686,-0.675,0.196,0.187,0,0,0,0,0,0,0,0,0,0.000,0,0,0.069,0.008,-0.040,-0.040,-0.040,0.015,0.993,0.012,-0.006,-0.006,-0.004,0.000,0.000,0.000,0.000,0,2,0,2,7,255,960,200,0,0,-89.350,0.885,-31.432
EX0521-092111,21,C12,prep,2380,2380,0,1067984.091,0.686,-0.675,0.196,0.187,0,0,0,0,0,0,0,0,0,0.000,0,0,0.060,0.006,0.040,-0.040,0.020,0.015,0.994,0.011,0.002,-0.006,-0.004,0.000,0.000,0.000,0.000,0,2,0,2,7,255,960,200,0,0,-89.350,0.885,-31.432
EX0521-092111,21,C12,prep,2414,2414,0,1067989.092,0.686,-0.675,0.196,0.187,0,0,0,0,0,0,0,0,0,0.000,0,0,0.060,0.004,-0.040,-0.040,0.020,0.015,0.994,0.011,0.004,-0.002,0.000,0.000,0.000,0.000,0.000,0,2,0,2,7,255,960,200,0,0,-89.350,0.885,-31.432
EX0521-092111,21,C12,prep,2414,2414,0,1067994.092,0.686,-0.675,0.196,0.187,0,0,0,0,0,0,0,0,0,0.000,0,0,0.069,0.004,0.040,-0.040,-0.040,0.015,0.994,0.011,0.004,-0.002,0.000,0.000,0.000,0.000,0.000,0,2,0,2,7,255,960,200,0,0,-89.350,0.885,-31.432
EX0521-092111,21,C12,prep,2414,2414,0,1067999.091,0.686,-0.675,0.196,0.187,0,0,0,0,0,0,0,0,0,0.000,0,0,0.069,0.004,0.040,-0.040,-0.040,0.014,0.994,0.012,0.004,0.000,0.006,0.000,0.000,0.000,0.000,0,2,0,2,7,255,960,200,0,0,-89.350,0.885,-31.432
EX0521-092111,21,C12,prep,2414,2414,0,1068004.093,0.686,-0.675,0.196,0.187,0,0,0,0,0,0,0,0,0,0.000,0,0,0.060,0.006,0.040,-0.040,0.020,0.014,0.994,0.012,-0.006,0.000,0.000,0.000,0.000,0.000,0.000,0,2,0,2,7,255,960,200,0,0,-89.350,0.885,-31.432
EX0521-092111,21,C12,prep,2414,2414,0,1068009.092,0.686,-0.675,0.196,0.187,0,0,0,0,0,0,0,0,0,0.000,0,0,0.060,0.006,0.040,-0.020,-0.040,0.015,0.993,0.011,-0.006,0.000,0.000,0.000,0.000,0.000,0.000,0,2,0,2,7,255,960,200,0,0,-89.350,0.885,-31.432
EX0521-092111,21,C12,prep,2414,2414,0,1068014.091,0.686,-0.675,0.196,0.187,0,0,0,0,0,0,0,0,0,0.000,0,0,0.060,0.004,-0.040,-0.020,-0.040,0.015,0.993,0.011,0.004,-0.002,-0.004,0.000,0.000,0.000,0.000,0,2,0,2,7,255,960,200,0,0,-89.350,0.885,-31.432
EX0521-092111,21,C12,prep,2416,2416,0,1068019.091,0.686,-0.675,0.196,0.187,0,0,0,0,0,0,0,0,0,0.000,0,0,0.060,0.004,0.040,-0.020,-0.040,0.015,0.994,0.010,0.004,-0.002,-0.004,0.000,0.000,0.000,0.000,0,2,0,2,7,255,960,200,0,0,-89.350,0.885,-31.432
EX0521-092111,21,C12,prep,2416,2416,0,1068024.092,0.686,-0.675,0.196,0.187,0,0,0,0,0,0,0,0,0,0.000,0,0,0.060,0.006,-0.040,-0.020,-0.040,0.013,0.994,0.012,0.004,0.004,0.000,0.000,0.000,0.000,0.000,0,2,0,2,7,255,960,200,0,0,-89.350,0.885,-31.432
EX0521-092111,21,C12,prep,2417,2417,0,1068029.092,0.686,-0.675,0.196,0.187,0,0,0,0,0,0,0,0,0,0.000,0,0,0.115,0.007,-0.040,0.040,-0.100,0.015,0.994,0.011,0.006,0.004,0.000,0.000,0.000,0.000,0.000,0,2,0,2,7,255,960,200,0,0,-89.350,0.885,-31.432
EX0521-092111,21,C12,prep,2417,2417,0,1068034.091,0.686,-0.675,0.196,0.187,0,0,0,0,0,0,0,0,0,0.000,0,0,0.060,0.003,-0.040,-0.020,-0.040,0.015,0.994,0.012,0.002,0.002,0.000,0.000,0.000,0.000,0.000,0,2,0,2,7,255,960,200,0,0,-89.350,0.885,-31.432
EX0521-092111,21,C12,prep,2417,2417,0,1068039.091,0.686,-0.675,0.196,0.187,0,0,0,0,0,0,0,0,0,0.000,0,0,0.049,0.006,-0.040,-0.020,0.020,0.014,0.994,0.012,0.002,-0.006,0.000,0.000,0.000,0.000,0.000,0,2,0,2,7,255,960,200,0,0,-89.350,0.885,-31.432
EX0521-092111,21,C12,prep,2417,2417,0,1068044.092,0.686,-0.675,0.196,0.187,0,0,0,0,0,0,0,0,0,0.000,0,0,0.060,0.006,0.040,-0.020,-0.040,0.015,0.994,0.012,0.002,-0.006,0.000,0.000,0.000,0.000,0.000,0,2,0,2,7,255,960,200,0,0,-89.350,0.885,-31.432
