experiment_id,condition_order_index,condition_id,condition_phase,condition_phase_elapsed_ms,condition_elapsed_ms,is_stimulation_on,t_ms,R_q0,R_q1,R_q2,R_q3,R_heel1,R_mid1,R_fore1,R_heel2,R_fore3,R_mid2,R_fore4,R_fore2,R_cadence,R_speed,R_steps,R_zupt,R_gyroNorm,R_accH,R_gyro_x,R_gyro_y,R_gyro_z,R_acc_x,R_acc_y,R_acc_z,R_nav_ax,R_nav_ay,R_nav_az,R_stepVel,R_stepVelj,R_stepDispRaw,R_stepDispZUPT,R_gaitEvent,R_motorMode,R_motorActive,R_motorAlignment,R_motorRegionMask,R_motorAmplitude,R_motorIntervalMs,R_motorDurationMs,R_motorPhaseMs,R_motorCycleMs,R_roll,R_pitch,R_yaw
EX0521-092111,24,C21,prep,15,15,0,1178849.093,0.686,-0.675,0.196,0.188,0,0,0,0,0,0,0,0,0,0.000,0,0,0.162,0.016,0.020,-0.160,0.020,0.014,0.992,0.011,-0.010,-0.012,0.004,0.000,0.000,0.000,0.000,0,2,0,2,7,255,1200,200,0,0,-89.351,0.865,-31.482
EX0521-092111,24,C21,prep,15,15,0,1178854.092,0.686,-0.675,0.196,0.188,0,0,0,0,0,0,0,0,0,0.000,0,0,0.110,0.008,0.020,-0.100,-0.040,0.015,0.994,0.009,0.002,0.008,0.000,0.000,0.000,0.000,0.000,0,2,0,2,7,255,1200,200,0,0,-89.351,0.865,-31.482
EX0521-092111,24,C21,prep,56,56,0,1178859.092,0.686,-0.675,0.196,0.188,0,0,0,0,0,0,0,0,0,0.000,0,0,0.092,0.018,0.080,-0.040,0.020,0.015,0.993,0.010,0.014,0.012,-0.004,0.000,0.000,0.000,0.000,0,2,0,2,7,255,1200,200,0,0,-89.351,0.865,-31.482
EX0521-092111,24,C21,prep,56,56,0,1178864.092,0.686,-0.675,0.196,0.188,0,0,0,0,0,0,0,0,0,0.000,0,0,0.177,0.018,0.140,0.040,-0.100,0.014,0.995,0.010,0.014,0.012,0.000,0.000,0.000,0.000,0.000,0,2,0,2,7,255,1200,200,0,0,-89.351,0.865,-31.482
EX0521-092111,24,C21,prep,56,56,0,1178869.092,0.686,-0.675,0.196,0.188,0,0,0,0,0,0,0,0,0,0.000,0,0,0.753,0.013,0.260,0.700,-0.100,0.014,0.994,0.010,0.008,0.010,0.004,0.000,0.000,0.000,0.000,0,2,0,2,7,255,1200,200,0,0,-89.351,0.865,-31.479
EX0521-092111,24,C21,prep,56,56,0,1178874.091,0.686,-0.675,0.196,0.188,0,0,0,0,0,0,0,0,0,0.000,0,0,0.487,0.013,0.260,0.400,-0.100,0.014,0.994,0.013,0.008,0.010,0.004,0.000,0.000,0.000,0.000,0,2,0,2,7,255,1200,200,0,0,-89.351,0.865,-31.479
EX0521-092111,24,C21,prep,56,56,0,1178879.093,0.686,-0.675,0.196,0.188,0,0,0,0,0,0,0,0,0,0.000,0,0,0.275,0.006,0.200,0.160,-0.100,0.014,0.994,0.012,-0.002,-0.006,0.000,0.000,0.000,0.000,0.000,0,2,0,2,7,255,1200,200,0,0,-89.351,0.865,-31.479
EX0521-092111,24,C21,prep,56,56,0,1178884.093,0.686,-0.675,0.196,0.188,0,0,0,0,0,0,0,0,0,0.000,0,0,0.323,0.011,-0.280,-0.160,0.020,0.015,0.991,0.014,-0.004,-0.010,0.000,0.000,0.000,0.000,0.000,0,2,0,2,7,255,1200,200,0,0,-89.351,0.865,-31.479
EX0521-092111,24,C21,prep,79,79,0,1178889.092,0.686,-0.675,0.196,0.188,0,0,0,0,0,0,0,0,0,0.000,0,0,0.698,0.006,-0.640,-0.100,0.260,0.015,0.992,0.010,-0.002,-0.006,-0.014,0.000,0.000,0.000,0.000,0,2,0,2,7,255,1200,200,0,0,-89.347,0.865,-31.479
EX0521-092111,24,C21,prep,79,79,0,1178894.092,0.686,-0.675,0.196,0.188,0,0,0,0,0,0,0,0,0,0.000,0,0,0.482,0.014,-0.460,0.040,0.140,0.014,0.997,0.008,0.012,0.008,-0.014,0.000,0.000,0.000,0.000,0,2,0,2,7,255,1200,200,0,0,-89.347,0.865,-31.479
EX0521-092111,24,C21,prep,79,79,0,1178899.092,0.686,-0.675,0.196,0.188,0,0,0,0,0,0,0,0,0,0.000,0,0,0.216,0.014,0.140,-0.160,-0.040,0.014,0.994,0.011,0.012,0.008,0.004,0.000,0.000,0.000,0.000,0,2,0,2,7,255,1200,200,0,0,-89.347,0.865,-31.479
EX0521-092111,24,C21,prep,79,79,0,1178904.091,0.686,-0.675,0.196,0.188,0,0,0,0,0,0,0,0,0,0.000,0,0,0.177,0.006,0.140,0.040,-0.100,0.014,0.990,0.014,-0.002,0.006,0.004,0.000,0.000,0.000,0.000,0,2,0,2,7,255,1200,200,0,0,-89.347,0.865,-31.479
EX0521-092111,24,C21,prep,80,80,0,1178909.091,0.686,-0.675,0.196,0.188,0,0,0,0,0,0,0,0,0,0.000,0,0,0.316,0.006,-0.280,-0.040,0.140,0.015,0.994,0.010,-0.002,0.006,0.000,0.000,0.000,0.000,0.000,0,2,0,2,7,255,1200,200,0,0,-89.347,0.865,-31.479
EX0521-092111,24,C21,prep,80,80,0,1178914.091,0.686,-0.675,0.196,0.188,0,0,0,0,0,0,0,0,0,0.000,0,0,0.199,0.014,0.140,-0.100,-0.100,0.014,1.000,0.010,0.008,0.012,0.000,0.000,0.000,0.000,0.000,0,2,0,2,7,255,1200,200,0,0,-89.347,0.865,-31.479
EX0521-092111,24,C21,prep,100,100,0,1178919.092,0.686,-0.675,0.196,0.188,0,0,0,0,0,0,0,0,0,0.000,0,0,0.060,0.014,0.020,0.040,-0.040,0.014,0.991,0.014,0.008,0.012,0.000,0.000,0.000,0.000,0.000,0,2,0,2,7,255,1200,200,0,0,-89.347,0.865,-31.479
EX0521-092111,24,C21,prep,100,100,0,1178924.092,0.686,-0.675,0.196,0.188,0,0,0,0,0,0,0,0,0,0.000,0,0,0.329,0.009,-0.280,-0.100,0.140,0.016,0.991,0.010,0.008,0.004,-0.024,0.000,0.000,0.000,0.000,0,2,0,2,7,255,1200,200,0,0,-89.347,0.865,-31.479
EX0521-092111,24,C21,prep,100,100,0,1178929.092,0.686,-0.675,0.196,0.188,0,0,0,0,0,0,0,0,0,0.000,0,0,0.566,0.013,0.520,-0.040,-0.220,0.012,1.001,0.012,-0.012,0.004,-0.024,0.000,0.000,0.000,0.000,0,2,0,2,7,255,1200,200,0,0,-89.347,0.865,-31.479
EX0521-092111,24,C21,prep,100,100,0,1178934.091,0.686,-0.675,0.196,0.188,0,0,0,0,0,0,0,0,0,0.000,0,0,0.308,0.007,-0.280,0.100,0.080,0.016,0.982,0.013,0.006,0.004,-0.024,0.000,0.000,0.000,0.000,0,2,0,2,7,255,1200,200,0,0,-89.347,0.865,-31.479
EX0521-092111,24,C21,prep,111,111,0,1178939.091,0.686,-0.675,0.196,0.188,0,0,0,0,0,0,0,0,0,0.000,0,0,0.503,0.006,-0.400,-0.160,0.260,0.014,1.000,0.011,-0.002,0.006,0.058,0.000,0.000,0.000,0.000,0,2,0,2,7,255,1200,200,0,0,-89.347,0.865,-31.479
EX0521-092111,24,C21,prep,111,111,0,1178944.091,0.686,-0.675,0.196,0.188,0,0,0,0,0,0,0,0,0,0.000,0,0,1.361,0.007,1.180,0.160,-0.660,0.015,0.991,0.011,0.006,-0.004,-0.028,0.000,0.000,0.000,0.000,0,2,0,2,7,255,1200,200,0,0,-89.353,0.862,-31.479
EX0521-092111,24,C21,prep,111,111,0,1178949.092,0.686,-0.675,0.196,0.188,0,0,0,0,0,0,0,0,0,0.000,0,0,1.554,0.013,-1.380,-0.220,0.680,0.016,0.992,0.010,0.012,0.004,-0.018,0.000,0.000,0.000,0.000,0,2,0,2,7,255,1200,200,0,0,-89.346,0.865,-31.479
EX0521-092111,24,C21,prep,111,111,0,1178954.092,0.686,-0.675,0.196,0.188,0,0,0,0,0,0,0,0,0,0.000,0,0,1.077,0.013,0.880,0.160,-0.600,0.012,0.999,0.011,0.012,0.004,-0.018,0.000,0.000,0.000,0.000,0,2,0,2,7,255,1200,200,0,0,-89.351,0.862,-31.479
EX0521-092111,24,C21,prep,132,132,0,1178959.093,0.686,-0.675,0.196,0.188,0,0,0,0,0,0,0,0,0,0.000,0,0,0.552,0.006,-0.460,-0.160,0.260,0.015,0.986,0.014,-0.004,0.004,-0.018,0.000,0.000,0.000,0.000,0,2,0,2,7,255,1200,200,0,0,-89.351,0.863,-31.479
EX0521-092111,24,C21,prep,132,132,0,1178964.093,0.686,-0.675,0.196,0.188,0,0,0,0,0,0,0,0,0,0.000,0,0,0.069,0.013,-0.040,0.040,-0.040,0.014,1.000,0.010,-0.004,0.012,0.048,0.000,0.000,0.000,0.000,0,2,0,2,7,255,1200,200,0,0,-89.351,0.863,-31.479
EX0521-092111,24,C21,prep,165,165,0,1178969.091,0.686,-0.675,0.196,0.188,0,0,0,0,0,0,0,0,0,0.000,0,0,0.098,0.012,0.080,0.040,-0.040,0.015,0.994,0.013,0.000,-0.012,0.000,0.000,0.000,0.000,0.000,0,2,0,2,7,255,1200,200,0,0,-89.351,0.863,-31.479
EX0521-092111,24,C21,prep,165,165,0,1178974.091,0.686,-0.675,0.196,0.188,0,0,0,0,0,0,0,0,0,0.000,0,0,0.235,0.009,-0.160,-0.100,0.140,0.015,0.990,0.010,0.004,0.008,0.000,0.000,0.000,0.000,0.000,0,2,0,2,7,255,1200,200,0,0,-89.351,0.863,-31.479
EX0521-092111,24,C21,prep,165,165,0,1178979.093,0.686,-0.675,0.196,0.188,0,0,0,0,0,0,0,0,0,0.000,0,0,0.279,0.008,0.140,0.100,-0.220,0.013,1.001,0.011,0.000,0.008,0.000,0.000,0.000,0.000,0.000,0,2,0,2,7,255,1200,200,0,0,-89.351,0.863,-31.479
EX0521-092111,24,C21,prep,165,165,0,1178984.093,0.686,-0.675,0.196,0.188,0,0,0,0,0,0,0,0,0,0.000,0,0,0.130,0.010,0.020,-0.100,0.080,0.016,0.986,0.013,0.006,0.008,-0.034,0.000,0.000,0.000,0.000,0,2,0,2,7,255,1200,200,0,0,-89.351,0.863,-31.479
EX0521-092111,24,C21,prep,165,165,0,1178989.092,0.686,-0.675,0.196,0.188,0,0,0,0,0,0,0,0,0,0.000,0,0,0.115,0.013,-0.100,0.040,-0.040,0.015,1.000,0.010,0.006,0.012,0.058,0.000,0.000,0.000,0.000,0,2,0,2,7,255,1200,200,0,0,-89.351,0.863,-31.479
EX0521-092111,24,C21,prep,165,165,0,1178994.091,0.686,-0.675,0.196,0.188,0,0,0,0,0,0,0,0,0,0.000,0,0,0.257,0.015,0.200,-0.020,-0.160,0.014,0.989,0.013,0.006,-0.014,-0.042,0.000,0.000,0.000,0.000,0,2,0,2,7,255,1200,200,0,0,-89.351,0.863,-31.479
EX0521-092111,24,C21,prep,165,165,0,1178999.091,0.686,-0.675,0.196,0.188,0,0,0,0,0,0,0,0,0,0.000,0,0,0.395,0.004,-0.280,-0.100,0.260,0.014,0.995,0.011,-0.002,0.004,0.014,0.000,0.000,0.000,0.000,0,2,0,2,7,255,1200,200,0,0,-89.351,0.863,-31.479
EX0521-092111,24,C21,prep,165,165,0,1179004.091,0.686,-0.675,0.196,0.188,0,0,0,0,0,0,0,0,0,0.000,0,0,0.259,0.007,0.200,0.040,-0.160,0.013,0.995,0.012,-0.006,0.004,0.010,0.000,0.000,0.000,0.000,0,2,0,2,7,255,1200,200,0,0,-89.351,0.863,-31.479
EX0521-092111,24,C21,prep,165,165,0,1179009.092,0.686,-0.675,0.196,0.188,0,0,0,0,0,0,0,0,0,0.000,0,0,0.110,0.004,-0.100,-0.040,0.020,0.015,0.994,0.012,-0.002,0.004,0.010,0.000,0.000,0.000,0.000,0,2,0,2,7,255,1200,200,0,0,-89.351,0.863,-31.479
EX0521-092111,24,C21,prep,165,165,0,1179014.092,0.686,-0.675,0.196,0.188,0,0,0,0,0,0,0,0,0,0.000,0,0,0.143,0.004,-0.100,-0.100,0.020,0.014,0.995,0.010,0.002,0.004,0.010,0.000,0.000,0.000,0.000,0,2,0,2,7,255,1200,200,0,0,-89.351,0.863,-31.479
EX0521-092111,24,C21,prep,201,201,0,1179019.092,0.686,-0.675,0.196,0.188,0,0,0,0,0,0,0,0,0,0.000,0,0,0.235,0.003,0.140,0.100,-0.160,0.014,0.991,0.011,0.002,0.002,0.000,0.000,0.000,0.000,0.000,0,2,0,2,7,255,1200,200,0,0,-89.351,0.863,-31.479
EX0521-092111,24,C21,prep,201,201,0,1179024.091,0.686,-0.675,0.196,0.188,0,0,0,0,0,0,0,0,0,0.000,0,0,0.216,0.008,-0.160,-0.040,0.140,0.014,0.994,0.011,0.002,0.008,0.004,0.000,0.000,0.000,0.000,0,2,0,2,7,255,1200,200,0,0,-89.351,0.863,-31.479
EX0521-092111,24,C21,prep,201,201,0,1179029.091,0.686,-0.675,0.196,0.188,0,0,0,0,0,0,0,0,0,0.000,0,0,0.177,0.003,0.140,-0.040,-0.100,0.014,0.996,0.012,0.002,0.002,0.004,0.000,0.000,0.000,0.000,0,2,0,2,7,255,1200,200,0,0,-89.351,0.863,-31.479
EX0521-092111,24,C21,prep,201,201,0,1179034.091,0.686,-0.675,0.196,0.188,0,0,0,0,0,0,0,0,0,0.000,0,0,0.049,0.002,-0.040,0.020,0.020,0.015,0.989,0.012,0.002,0.000,0.004,0.000,0.000,0.000,0.000,0,2,0,2,7,255,1200,200,0,0,-89.351,0.863,-31.479
EX0521-092111,24,C21,prep,201,201,0,1179039.092,0.686,-0.675,0.196,0.188,0,0,0,0,0,0,0,0,0,0.000,0,0,0.049,0.002,0.020,0.020,-0.040,0.014,0.996,0.011,-0.002,0.000,0.024,0.000,0.000,0.000,0.000,0,2,0,2,7,255,1200,200,0,0,-89.351,0.863,-31.479
EX0521-092111,24,C21,prep,201,201,0,1179044.092,0.686,-0.675,0.196,0.188,0,0,0,0,0,0,0,0,0,0.000,0,0,0.110,0.003,-0.040,0.020,-0.100,0.013,0.994,0.012,-0.002,0.002,0.004,0.000,0.000,0.000,0.000,0,2,0,2,7,255,1200,200,0,0,-89.351,0.863,-31.479
EX0521-092111,24,C21,prep,207,207,0,1179049.092,0.686,-0.675,0.196,0.188,0,0,0,0,0,0,0,0,0,0.000,0,0,0.205,0.004,-0.160,-0.100,0.080,0.014,0.993,0.011,-0.002,0.004,0.004,0.000,0.000,0.000,0.000,0,2,0,2,7,255,1200,200,0,0,-89.351,0.863,-31.479
EX0521-092111,24,C21,prep,207,207,0,1179054.092,0.686,-0.675,0.196,0.188,0,0,0,0,0,0,0,0,0,0.000,0,0,0.358,0.008,0.320,0.020,-0.160,0.013,0.994,0.013,-0.008,0.002,0.004,0.000,0.000,0.000,0.000,0,2,0,2,7,255,1200,200,0,0,-89.351,0.863,-31.479
EX0521-092111,24,C21,prep,228,228,0,1179059.091,0.686,-0.675,0.196,0.188,0,0,0,0,0,0,0,0,0,0.000,0,0,0.284,0.002,-0.280,0.040,0.020,0.015,0.993,0.011,0.002,0.000,-0.010,0.000,0.000,0.000,0.000,0,2,0,2,7,255,1200,200,0,0,-89.351,0.863,-31.479
EX0521-092111,24,C21,prep,228,228,0,1179064.091,0.686,-0.675,0.196,0.188,0,0,0,0,0,0,0,0,0,0.000,0,0,0.110,0.007,-0.100,-0.040,0.020,0.015,0.995,0.013,-0.004,-0.006,0.004,0.000,0.000,0.000,0.000,0,2,0,2,7,255,1200,200,0,0,-89.351,0.863,-31.479
EX0521-092111,24,C21,prep,264,264,0,1179069.092,0.686,-0.675,0.196,0.188,0,0,0,0,0,0,0,0,0,0.000,0,0,0.266,0.002,0.260,-0.040,-0.040,0.014,0.992,0.011,-0.002,0.000,-0.010,0.000,0.000,0.000,0.000,0,2,0,2,7,255,1200,200,0,0,-89.351,0.863,-31.479
EX0521-092111,24,C21,prep,264,264,0,1179074.093,0.686,-0.675,0.196,0.188,0,0,0,0,0,0,0,0,0,0.000,0,0,0.183,0.004,-0.160,-0.040,0.080,0.015,0.994,0.011,-0.002,0.004,0.004,0.000,0.000,0.000,0.000,0,2,0,2,7,255,1200,200,0,0,-89.351,0.863,-31.479
EX0521-092111,24,C21,prep,264,264,0,1179079.092,0.686,-0.675,0.196,0.188,0,0,0,0,0,0,0,0,0,0.000,0,0,0.110,0.004,0.020,0.040,-0.100,0.014,0.993,0.011,-0.002,0.004,-0.004,0.000,0.000,0.000,0.000,0,2,0,2,7,255,1200,200,0,0,-89.351,0.863,-31.479
EX0521-092111,24,C21,prep,264,264,0,1179084.093,0.686,-0.675,0.196,0.188,0,0,0,0,0,0,0,0,0,0.000,0,0,0.060,0.004,0.020,-0.040,-0.040,0.014,0.993,0.012,-0.002,0.004,-0.004,0.000,0.000,0.000,0.000,0,2,0,2,7,255,1200,200,0,0,-89.351,0.863,-31.479
EX0521-092111,24,C21,prep,264,264,0,1179089.091,0.686,-0.675,0.196,0.188,0,0,0,0,0,0,0,0,0,0.000,0,0,0.098,0.004,0.080,-0.040,-0.040,0.013,0.995,0.011,-0.002,0.004,-0.004,0.000,0.000,0.000,0.000,0,2,0,2,7,255,1200,200,0,0,-89.351,0.863,-31.479
EX0521-092111,24,C21,prep,264,264,0,1179094.092,0.686,-0.675,0.196,0.188,0,0,0,0,0,0,0,0,0,0.000,0,0,0.143,0.002,-0.100,-0.100,0.020,0.015,0.992,0.011,-0.002,0.000,-0.010,0.000,0.000,0.000,0.000,0,2,0,2,7,255,1200,200,0,0,-89.351,0.863,-31.479
EX0521-092111,24,C21,prep,271,271,0,1179099.091,0.686,-0.675,0.196,0.188,0,0,0,0,0,0,0,0,0,0.000,0,0,0.069,0.002,-0.040,-0.040,-0.040,0.014,0.993,0.012,-0.002,0.000,-0.010,0.000,0.000,0.000,0.000,0,2,0,2,7,255,1200,200,0,0,-89.351,0.863,-31.479
EX0521-092111,24,C21,prep,271,271,0,1179104.092,0.686,-0.675,0.196,0.188,0,0,0,0,0,0,0,0,0,0.000,0,0,0.177,0.002,0.140,0.040,-0.100,0.013,0.995,0.011,-0.002,0.000,-0.010,0.000,0.000,0.000,0.000,0,2,0,2,7,255,1200,200,0,0,-89.351,0.863,-31.479
EX0521-092111,24,C21,prep,271,271,0,1179109.092,0.686,-0.675,0.196,0.188,0,0,0,0,0,0,0,0,0,0.000,0,0,0.166,0.012,-0.160,-0.040,0.020,0.013,0.993,0.010,-0.002,0.012,-0.004,0.000,0.000,0.000,0.000,0,2,0,2,7,255,1200,200,0,0,-89.351,0.863,-31.479
EX0521-092111,24,C21,prep,271,271,0,1179114.092,0.686,-0.675,0.196,0.188,0,0,0,0,0,0,0,0,0,0.000,0,0,0.049,0.012,0.020,-0.040,0.020,0.014,0.994,0.012,-0.002,0.012,0.000,0.000,0.000,0.000,0.000,0,2,0,2,7,255,1200,200,0,0,-89.351,0.863,-31.479
EX0521-092111,24,C21,prep,306,306,0,1179119.092,0.686,-0.675,0.196,0.188,0,0,0,0,0,0,0,0,0,0.000,0,0,0.098,0.006,0.080,-0.040,-0.040,0.016,0.994,0.011,0.000,-0.006,0.000,0.000,0.000,0.000,0.000,0,2,0,2,7,255,1200,200,0,0,-89.351,0.863,-31.479
EX0521-092111,24,C21,prep,306,306,0,1179124.091,0.686,-0.675,0.196,0.188,0,0,0,0,0,0,0,0,0,0.000,0,0,0.134,0.008,-0.100,-0.040,0.080,0.015,0.994,0.011,0.006,-0.006,0.006,0.000,0.000,0.000,0.000,0,2,0,2,7,255,1200,200,0,0,-89.351,0.863,-31.479
EX0521-092111,24,C21,prep,307,307,0,1179129.091,0.686,-0.675,0.196,0.188,0,0,0,0,0,0,0,0,0,0.000,0,0,0.060,0.010,0.020,-0.040,-0.040,0.014,0.993,0.013,0.006,-0.008,0.006,0.000,0.000,0.000,0.000,0,2,0,2,7,255,1200,200,0,0,-89.351,0.863,-31.479
EX0521-092111,24,C21,prep,307,307,0,1179134.092,0.686,-0.675,0.196,0.188,0,0,0,0,0,0,0,0,0,0.000,0,0,0.098,0.006,0.080,-0.040,-0.040,0.015,0.993,0.010,0.006,0.000,-0.004,0.000,0.000,0.000,0.000,0,2,0,2,7,255,1200,200,0,0,-89.351,0.863,-31.479
EX0521-092111,24,C21,prep,308,308,0,1179139.092,0.686,-0.675,0.196,0.188,0,0,0,0,0,0,0,0,0,0.000,0,0,0.115,0.013,-0.040,-0.100,-0.040,0.015,0.994,0.010,0.012,0.004,-0.004,0.000,0.000,0.000,0.000,0,2,0,2,7,255,1200,200,0,0,-89.351,0.863,-31.479
EX0521-092111,24,C21,prep,308,308,0,1179144.092,0.686,-0.675,0.196,0.188,0,0,0,0,0,0,0,0,0,0.000,0,0,0.060,0.013,-0.040,0.040,0.020,0.014,0.992,0.012,0.012,0.004,-0.004,0.000,0.000,0.000,0.000,0,2,0,2,7,255,1200,200,0,0,-89.351,0.863,-31.479
EX0521-092111,24,C21,prep,309,309,0,1179149.091,0.686,-0.675,0.196,0.188,0,0,0,0,0,0,0,0,0,0.000,0,0,0.049,0.004,0.020,-0.040,0.020,0.014,0.993,0.012,-0.002,-0.004,-0.008,0.000,0.000,0.000,0.000,0,2,0,2,7,255,1200,200,0,0,-89.351,0.863,-31.479
EX0521-092111,24,C21,prep,309,309,0,1179154.091,0.686,-0.675,0.196,0.188,0,0,0,0,0,0,0,0,0,0.000,0,0,0.110,0.004,0.020,0.040,-0.100,0.014,0.994,0.011,-0.002,-0.004,-0.008,0.000,0.000,0.000,0.000,0,2,0,2,7,255,1200,200,0,0,-89.351,0.863,-31.479
EX0521-092111,24,C21,prep,336,336,0,1179159.092,0.686,-0.675,0.196,0.188,0,0,0,0,0,0,0,0,0,0.000,0,0,0.098,0.003,-0.040,-0.040,0.080,0.014,0.993,0.011,0.002,0.002,-0.008,0.000,0.000,0.000,0.000,0,2,0,2,7,255,1200,200,0,0,-89.351,0.863,-31.479
EX0521-092111,24,C21,prep,336,336,0,1179164.093,0.686,-0.675,0.196,0.188,0,0,0,0,0,0,0,0,0,0.000,0,0,0.098,0.003,0.080,-0.040,-0.040,0.014,0.994,0.012,0.002,0.002,0.000,0.000,0.000,0.000,0.000,0,2,0,2,7,255,1200,200,0,0,-89.351,0.863,-31.479
EX0521-092111,24,C21,prep,352,352,0,1179169.092,0.686,-0.675,0.196,0.188,0,0,0,0,0,0,0,0,0,0.000,0,0,0.092,0.004,0.080,-0.040,0.020,0.015,0.992,0.012,0.002,-0.004,-0.008,0.000,0.000,0.000,0.000,0,2,0,2,7,255,1200,200,0,0,-89.351,0.863,-31.479
EX0521-092111,24,C21,prep,352,352,0,1179174.092,0.686,-0.675,0.196,0.188,0,0,0,0,0,0,0,0,0,0.000,0,0,0.190,0.006,-0.160,-0.100,0.020,0.015,0.993,0.011,0.004,-0.004,-0.008,0.000,0.000,0.000,0.000,0,2,0,2,7,255,1200,200,0,0,-89.351,0.863,-31.479
EX0521-092111,24,C21,prep,353,353,0,1179179.093,0.686,-0.675,0.196,0.188,0,0,0,0,0,0,0,0,0,0.000,0,0,0.060,0.006,0.020,0.040,-0.040,0.014,0.993,0.012,0.004,-0.004,-0.008,0.000,0.000,0.000,0.000,0,2,0,2,7,255,1200,200,0,0,-89.351,0.863,-31.479
EX0521-092111,24,C21,prep,353,353,0,1179184.093,0.686,-0.675,0.196,0.188,0,0,0,0,0,0,0,0,0,0.000,0,0,0.060,0.002,0.020,-0.040,-0.040,0.014,0.993,0.012,-0.002,0.000,-0.008,0.000,0.000,0.000,0.000,0,2,0,2,7,255,1200,200,0,0,-89.351,0.863,-31.479
EX0521-092111,24,C21,prep,369,369,0,1179189.091,0.686,-0.675,0.196,0.188,0,0,0,0,0,0,0,0,0,0.000,0,0,0.115,0.003,-0.100,-0.040,-0.040,0.014,0.993,0.012,-0.002,-0.002,-0.004,0.000,0.000,0.000,0.000,0,2,0,2,7,255,1200,200,0,0,-89.351,0.863,-31.479
EX0521-092111,24,C21,prep,369,369,0,1179194.092,0.686,-0.675,0.196,0.188,0,0,0,0,0,0,0,0,0,0.000,0,0,0.069,0.002,-0.040,-0.040,-0.040,0.015,0.992,0.013,0.000,-0.002,-0.004,0.000,0.000,0.000,0.000,0,2,0,2,7,255,1200,200,0,0,-89.351,0.863,-31.479
EX0521-092111,24,C21,prep,380,380,0,1179199.092,0.686,-0.675,0.196,0.188,0,0,0,0,0,0,0,0,0,0.000,0,0,0.069,0.002,-0.040,-0.040,-0.040,0.015,0.993,0.011,0.000,-0.002,-0.004,0.000,0.000,0.000,0.000,0,2,0,2,7,255,1200,200,0,0,-89.351,0.863,-31.479
EX0521-092111,24,C21,prep,380,380,0,1179204.092,0.686,-0.675,0.196,0.188,0,0,0,0,0,0,0,0,0,0.000,0,0,0.069,0.006,-0.040,-0.040,-0.040,0.014,0.995,0.012,0.000,-0.006,-0.004,0.000,0.000,0.000,0.000,0,2,0,2,7,255,1200,200,0,0,-89.351,0.863,-31.479
EX0521-092111,24,C21,prep,381,381,0,1179209.092,0.686,-0.675,0.196,0.188,0,0,0,0,0,0,0,0,0,0.000,0,0,0.060,0.006,0.020,-0.040,-0.040,0.015,0.993,0.012,0.002,-0.006,-0.004,0.000,0.000,0.000,0.000,0,2,0,2,7,255,1200,200,0,0,-89.351,0.863,-31.479
EX0521-092111,24,C21,prep,381,381,0,1179214.092,0.686,-0.675,0.196,0.188,0,0,0,0,0,0,0,0,0,0.000,0,0,0.098,0.006,0.080,0.040,-0.040,0.014,0.994,0.011,0.002,-0.006,0.002,0.000,0.000,0.000,0.000,0,2,0,2,7,255,1200,200,0,0,-89.351,0.863,-31.479
EX0521-092111,24,C21,prep,381,381,0,1179219.092,0.686,-0.675,0.196,0.188,0,0,0,0,0,0,0,0,0,0.000,0,0,0.060,0.003,-0.040,-0.040,0.020,0.015,0.993,0.011,0.002,0.002,-0.004,0.000,0.000,0.000,0.000,0,2,0,2,7,255,1200,200,0,0,-89.351,0.863,-31.479
EX0521-092111,24,C21,prep,381,381,0,1179224.092,0.686,-0.675,0.196,0.188,0,0,0,0,0,0,0,0,0,0.000,0,0,0.060,0.003,-0.040,-0.040,0.020,0.015,0.993,0.012,0.002,0.002,-0.008,0.000,0.000,0.000,0.000,0,2,0,2,7,255,1200,200,0,0,-89.351,0.863,-31.479
EX0521-092111,24,C21,prep,403,403,0,1179229.092,0.686,-0.675,0.196,0.188,0,0,0,0,0,0,0,0,0,0.000,0,0,0.177,0.003,0.140,-0.040,-0.100,0.014,0.994,0.011,0.002,0.002,-0.008,0.000,0.000,0.000,0.000,0,2,0,2,7,255,1200,200,0,0,-89.351,0.863,-31.479
EX0521-092111,24,C21,prep,403,403,0,1179234.092,0.686,-0.675,0.196,0.188,0,0,0,0,0,0,0,0,0,0.000,0,0,0.049,0.003,0.020,-0.040,0.020,0.014,0.993,0.011,0.002,0.002,-0.004,0.000,0.000,0.000,0.000,0,2,0,2,7,255,1200,200,0,0,-89.351,0.863,-31.479
EX0521-092111,24,C21,prep,403,403,0,1179239.092,0.686,-0.675,0.196,0.188,0,0,0,0,0,0,0,0,0,0.000,0,0,0.110,0.003,-0.100,-0.040,0.020,0.015,0.994,0.011,0.002,0.002,0.002,0.000,0.000,0.000,0.000,0,2,0,2,7,255,1200,200,0,0,-89.351,0.863,-31.479
EX0521-092111,24,C21,prep,403,403,0,1179244.091,0.686,-0.675,0.196,0.188,0,0,0,0,0,0,0,0,0,0.000,0,0,0.060,0.007,0.020,-0.040,-0.040,0.014,0.993,0.011,0.004,0.006,-0.004,0.000,0.000,0.000,0.000,0,2,0,2,7,255,1200,200,0,0,-89.351,0.863,-31.479
EX0521-092111,24,C21,prep,415,415,0,1179249.091,0.686,-0.675,0.196,0.188,0,0,0,0,0,0,0,0,0,0.000,0,0,0.060,0.006,0.020,0.040,-0.040,0.015,0.993,0.011,0.006,0.000,-0.004,0.000,0.000,0.000,0.000,0,2,0,2,7,255,1200,200,0,0,-89.351,0.863,-31.479
EX0521-092111,24,C21,prep,415,415,0,1179254.092,0.686,-0.675,0.196,0.188,0,0,0,0,0,0,0,0,0,0.000,0,0,0.110,0.004,-0.100,-0.040,0.020,0.014,0.994,0.012,0.004,0.000,-0.004,0.000,0.000,0.000,0.000,0,2,0,2,7,255,1200,200,0,0,-89.351,0.863,-31.479
EX0521-092111,24,C21,prep,431,431,0,1179259.092,0.686,-0.675,0.196,0.188,0,0,0,0,0,0,0,0,0,0.000,0,0,0.049,0.002,-0.040,-0.020,0.020,0.014,0.994,0.011,-0.002,0.000,0.002,0.000,0.000,0.000,0.000,0,2,0,2,7,255,1200,200,0,0,-89.351,0.863,-31.479
EX0521-092111,24,C21,prep,431,431,0,1179264.092,0.686,-0.675,0.196,0.188,0,0,0,0,0,0,0,0,0,0.000,0,0,0.060,0.002,0.020,0.040,-0.040,0.015,0.994,0.011,-0.002,0.000,0.006,0.000,0.000,0.000,0.000,0,2,0,2,7,255,1200,200,0,0,-89.351,0.863,-31.479
EX0521-092111,24,C21,prep,447,447,0,1179269.092,0.686,-0.675,0.196,0.188,0,0,0,0,0,0,0,0,0,0.000,0,0,0.115,0.010,-0.040,-0.100,-0.040,0.015,0.994,0.011,0.010,0.002,0.006,0.000,0.000,0.000,0.000,0,2,0,2,7,255,1200,200,0,0,-89.351,0.863,-31.479
EX0521-092111,24,C21,prep,447,447,0,1179274.091,0.686,-0.675,0.196,0.188,0,0,0,0,0,0,0,0,0,0.000,0,0,0.110,0.010,-0.040,-0.020,-0.100,0.014,0.995,0.012,0.010,-0.002,0.006,0.000,0.000,0.000,0.000,0,2,0,2,7,255,1200,200,0,0,-89.351,0.863,-31.479
EX0521-092111,24,C21,prep,447,447,0,1179279.092,0.686,-0.675,0.196,0.188,0,0,0,0,0,0,0,0,0,0.000,0,0,0.049,0.002,0.020,-0.020,-0.040,0.014,0.993,0.011,0.000,0.002,0.006,0.000,0.000,0.000,0.000,0,2,0,2,7,255,1200,200,0,0,-89.351,0.863,-31.479
EX0521-092111,24,C21,prep,447,447,0,1179284.093,0.686,-0.675,0.196,0.188,0,0,0,0,0,0,0,0,0,0.000,0,0,0.104,0.002,-0.100,-0.020,0.020,0.015,0.994,0.011,0.000,0.002,0.006,0.000,0.000,0.000,0.000,0,2,0,2,7,255,1200,200,0,0,-89.351,0.863,-31.479
EX0521-092111,24,C21,prep,463,463,0,1179289.092,0.686,-0.675,0.196,0.188,0,0,0,0,0,0,0,0,0,0.000,0,0,0.060,0.002,-0.040,-0.020,-0.040,0.014,0.994,0.012,0.000,0.002,0.002,0.000,0.000,0.000,0.000,0,2,0,2,7,255,1200,200,0,0,-89.351,0.863,-31.479
EX0521-092111,24,C21,prep,463,463,0,1179294.092,0.686,-0.675,0.196,0.188,0,0,0,0,0,0,0,0,0,0.000,0,0,0.092,0.006,0.080,-0.020,-0.040,0.015,0.993,0.012,0.004,-0.004,0.002,0.000,0.000,0.000,0.000,0,2,0,2,7,255,1200,200,0,0,-89.351,0.863,-31.479
EX0521-092111,24,C21,prep,463,463,0,1179299.092,0.686,-0.675,0.196,0.188,0,0,0,0,0,0,0,0,0,0.000,0,0,0.049,0.004,0.020,-0.020,-0.040,0.014,0.994,0.011,0.000,-0.004,0.002,0.000,0.000,0.000,0.000,0,2,0,2,7,255,1200,200,0,0,-89.351,0.863,-31.479
EX0521-092111,24,C21,prep,463,463,0,1179304.091,0.686,-0.675,0.196,0.188,0,0,0,0,0,0,0,0,0,0.000,0,0,0.060,0.006,-0.040,-0.020,-0.040,0.015,0.993,0.012,0.004,-0.004,-0.004,0.000,0.000,0.000,0.000,0,2,0,2,7,255,1200,200,0,0,-89.351,0.863,-31.479
EX0521-092111,24,C21,prep,463,463,0,1179309.091,0.686,-0.675,0.196,0.188,0,0,0,0,0,0,0,0,0,0.000,0,0,0.060,0.004,0.020,-0.040,-0.040,0.014,0.993,0.011,0.000,0.004,-0.008,0.000,0.000,0.000,0.000,0,2,0,2,7,255,1200,200,0,0,-89.351,0.863,-31.479
EX0521-092111,24,C21,prep,463,463,0,1179314.091,0.686,-0.675,0.196,0.188,0,0,0,0,0,0,0,0,0,0.000,0,0,0.060,0.004,-0.040,0.020,-0.040,0.013,0.995,0.010,-0.002,0.004,-0.008,0.000,0.000,0.000,0.000,0,2,0,2,7,255,1200,200,0,0,-89.351,0.863,-31.479
EX0521-092111,24,C21,prep,479,479,0,1179319.092,0.686,-0.675,0.196,0.188,0,0,0,0,0,0,0,0,0,0.000,0,0,0.110,0.004,-0.100,-0.040,0.020,0.014,0.994,0.011,-0.002,0.004,0.000,0.000,0.000,0.000,0.000,0,2,0,2,7,255,1200,200,0,0,-89.351,0.863,-31.479
EX0521-092111,24,C21,prep,479,479,0,1179324.092,0.686,-0.675,0.196,0.188,0,0,0,0,0,0,0,0,0,0.000,0,0,0.049,0.006,0.020,-0.040,0.020,0.013,0.993,0.011,-0.002,0.006,0.000,0.000,0.000,0.000,0.000,0,2,0,2,7,255,1200,200,0,0,-89.351,0.863,-31.479
EX0521-092111,24,C21,prep,498,498,0,1179329.092,0.686,-0.675,0.196,0.188,0,0,0,0,0,0,0,0,0,0.000,0,0,0.049,0.004,0.020,0.020,-0.040,0.014,0.994,0.012,-0.004,0.002,0.000,0.000,0.000,0.000,0.000,0,2,0,2,7,255,1200,200,0,0,-89.351,0.863,-31.479
EX0521-092111,24,C21,prep,498,498,0,1179334.091,0.686,-0.675,0.196,0.188,0,0,0,0,0,0,0,0,0,0.000,0,0,0.115,0.006,-0.040,-0.100,-0.040,0.013,0.993,0.012,-0.006,0.002,-0.008,0.000,0.000,0.000,0.000,0,2,0,2,7,255,1200,200,0,0,-89.351,0.863,-31.479
EX0521-092111,24,C21,prep,511,511,0,1179339.091,0.686,-0.675,0.196,0.188,0,0,0,0,0,0,0,0,0,0.000,0,0,0.060,0.004,0.020,-0.040,-0.040,0.014,0.993,0.011,-0.004,0.002,-0.004,0.000,0.000,0.000,0.000,0,2,0,2,7,255,1200,200,0,0,-89.351,0.863,-31.479
EX0521-092111,24,C21,prep,511,511,0,1179344.091,0.686,-0.675,0.196,0.188,0,0,0,0,0,0,0,0,0,0.000,0,0,0.060,0.002,0.020,-0.040,-0.040,0.015,0.994,0.012,0.000,0.002,-0.004,0.000,0.000,0.000,0.000,0,2,0,2,7,255,1200,200,0,0,-89.351,0.863,-31.479
EX0521-092111,24,C21,prep,511,511,0,1179349.092,0.686,-0.675,0.196,0.188,0,0,0,0,0,0,0,0,0,0.000,0,0,0.115,0.002,-0.040,-0.100,-0.040,0.014,0.994,0.011,0.000,0.002,0.000,0.000,0.000,0.000,0.000,0,2,0,2,7,255,1200,200,0,0,-89.351,0.863,-31.479
EX0521-092111,24,C21,prep,511,511,0,1179354.092,0.686,-0.675,0.196,0.188,0,0,0,0,0,0,0,0,0,0.000,0,0,0.049,0.008,0.020,-0.040,0.020,0.016,0.993,0.012,0.000,-0.008,0.000,0.000,0.000,0.000,0.000,0,2,0,2,7,255,1200,200,0,0,-89.351,0.863,-31.479
EX0521-092111,24,C21,prep,536,536,0,1179359.093,0.686,-0.675,0.196,0.188,0,0,0,0,0,0,0,0,0,0.000,0,0,0.049,0.008,0.020,-0.020,-0.040,0.015,0.994,0.012,0.000,-0.008,0.000,0.000,0.000,0.000,0.000,0,2,0,2,7,255,1200,200,0,0,-89.351,0.863,-31.479
EX0521-092111,24,C21,prep,536,536,0,1179364.093,0.686,-0.675,0.196,0.188,0,0,0,0,0,0,0,0,0,0.000,0,0,0.049,0.008,0.020,-0.020,-0.040,0.014,0.993,0.011,0.000,-0.008,-0.004,0.000,0.000,0.000,0.000,0,2,0,2,7,255,1200,200,0,0,-89.351,0.863,-31.479
EX0521-092111,24,C21,prep,564,564,0,1179369.091,0.686,-0.675,0.196,0.188,0,0,0,0,0,0,0,0,0,0.000,0,0,0.060,0.003,-0.040,-0.020,-0.040,0.013,0.992,0.012,-0.002,0.002,-0.004,0.000,0.000,0.000,0.000,0,2,0,2,7,255,1200,200,0,0,-89.351,0.863,-31.479
EX0521-092111,24,C21,prep,564,564,0,1179374.091,0.686,-0.675,0.196,0.188,0,0,0,0,0,0,0,0,0,0.000,0,0,0.049,0.004,0.020,-0.020,-0.040,0.014,0.994,0.012,-0.004,0.002,-0.004,0.000,0.000,0.000,0.000,0,2,0,2,7,255,1200,200,0,0,-89.351,0.863,-31.479
EX0521-092111,24,C21,prep,564,564,0,1179379.092,0.686,-0.675,0.196,0.188,0,0,0,0,0,0,0,0,0,0.000,0,0,0.049,0.004,0.020,-0.020,-0.040,0.014,0.993,0.011,-0.004,0.002,-0.004,0.000,0.000,0.000,0.000,0,2,0,2,7,255,1200,200,0,0,-89.351,0.863,-31.479
EX0521-092111,24,C21,prep,564,564,0,1179384.093,0.686,-0.675,0.196,0.188,0,0,0,0,0,0,0,0,0,0.000,0,0,0.060,0.002,-0.040,-0.020,-0.040,0.015,0.994,0.011,-0.002,0.000,0.002,0.000,0.000,0.000,0.000,0,2,0,2,7,255,1200,200,0,0,-89.351,0.863,-31.479
EX0521-092111,24,C21,prep,564,564,0,1179389.092,0.686,-0.675,0.196,0.188,0,0,0,0,0,0,0,0,0,0.000,0,0,0.060,0.003,-0.040,-0.020,-0.040,0.014,0.995,0.011,0.002,0.002,0.002,0.000,0.000,0.000,0.000,0,2,0,2,7,255,1200,200,0,0,-89.351,0.863,-31.479
EX0521-092111,24,C21,prep,564,564,0,1179394.092,0.686,-0.675,0.196,0.188,0,0,0,0,0,0,0,0,0,0.000,0,0,0.049,0.006,0.020,-0.020,-0.040,0.015,0.994,0.011,0.006,0.002,0.006,0.000,0.000,0.000,0.000,0,2,0,2,7,255,1200,200,0,0,-89.351,0.863,-31.479
EX0521-092111,24,C21,prep,575,575,0,1179399.091,0.686,-0.675,0.196,0.188,0,0,0,0,0,0,0,0,0,0.000,0,0,0.060,0.003,-0.040,-0.020,-0.040,0.015,0.993,0.013,0.002,0.002,0.006,0.000,0.000,0.000,0.000,0,2,0,2,7,255,1200,200,0,0,-89.351,0.863,-31.479
EX0521-092111,24,C21,prep,575,575,0,1179404.091,0.686,-0.675,0.196,0.188,0,0,0,0,0,0,0,0,0,0.000,0,0,0.060,0.002,0.020,0.040,-0.040,0.014,0.993,0.012,-0.002,0.000,-0.004,0.000,0.000,0.000,0.000,0,2,0,2,7,255,1200,200,0,0,-89.351,0.863,-31.479
EX0521-092111,24,C21,prep,575,575,0,1179409.092,0.686,-0.675,0.196,0.188,0,0,0,0,0,0,0,0,0,0.000,0,0,0.069,0.008,-0.040,-0.040,-0.040,0.015,0.994,0.012,-0.002,-0.008,-0.004,0.000,0.000,0.000,0.000,0,2,0,2,7,255,1200,200,0,0,-89.351,0.863,-31.479
EX0521-092111,24,C21,prep,575,575,0,1179414.092,0.686,-0.675,0.196,0.188,0,0,0,0,0,0,0,0,0,0.000,0,0,0.069,0.000,-0.040,-0.040,-0.040,0.014,0.993,0.011,0.000,0.000,-0.004,0.000,0.000,0.000,0.000,0,2,0,2,7,255,1200,200,0,0,-89.351,0.863,-31.479
EX0521-092111,24,C21,prep,575,575,0,1179419.093,0.686,-0.675,0.196,0.188,0,0,0,0,0,0,0,0,0,0.000,0,0,0.060,0.003,0.020,-0.040,-0.040,0.015,0.993,0.011,0.002,-0.002,-0.004,0.000,0.000,0.000,0.000,0,2,0,2,7,255,1200,200,0,0,-89.351,0.863,-31.479
EX0521-092111,24,C21,prep,575,575,0,1179424.091,0.686,-0.675,0.196,0.188,0,0,0,0,0,0,0,0,0,0.000,0,0,0.060,0.004,0.020,-0.040,-0.040,0.014,0.993,0.011,0.004,0.002,-0.008,0.000,0.000,0.000,0.000,0,2,0,2,7,255,1200,200,0,0,-89.351,0.863,-31.479
EX0521-092111,24,C21,prep,595,595,0,1179429.091,0.686,-0.675,0.196,0.188,0,0,0,0,0,0,0,0,0,0.000,0,0,0.049,0.004,0.020,-0.040,0.020,0.014,0.993,0.012,0.004,-0.002,-0.004,0.000,0.000,0.000,0.000,0,2,0,2,7,255,1200,200,0,0,-89.351,0.863,-31.479
EX0521-092111,24,C21,prep,595,595,0,1179434.091,0.686,-0.675,0.196,0.188,0,0,0,0,0,0,0,0,0,0.000,0,0,0.035,0.002,0.020,0.020,0.020,0.014,0.994,0.012,0.000,-0.002,-0.004,0.000,0.000,0.000,0.000,0,2,0,2,7,255,1200,200,0,0,-89.351,0.863,-31.479
EX0521-092111,24,C21,prep,607,607,0,1179439.092,0.686,-0.675,0.196,0.188,0,0,0,0,0,0,0,0,0,0.000,0,0,0.049,0.002,0.020,0.020,-0.040,0.015,0.994,0.011,0.000,-0.002,0.002,0.000,0.000,0.000,0.000,0,2,0,2,7,255,1200,200,0,0,-89.351,0.863,-31.479
EX0521-092111,24,C21,prep,607,607,0,1179444.092,0.686,-0.675,0.196,0.188,0,0,0,0,0,0,0,0,0,0.000,0,0,0.049,0.000,0.020,-0.040,0.020,0.014,0.993,0.011,0.000,0.000,0.002,0.000,0.000,0.000,0.000,0,2,0,2,7,255,1200,200,0,0,-89.351,0.863,-31.479
EX0521-092111,24,C21,prep,607,607,0,1179449.092,0.686,-0.675,0.196,0.188,0,0,0,0,0,0,0,0,0,0.000,0,0,0.060,0.004,-0.040,-0.040,0.020,0.013,0.994,0.012,0.000,0.004,0.002,0.000,0.000,0.000,0.000,0,2,0,2,7,255,1200,200,0,0,-89.351,0.863,-31.479
EX0521-092111,24,C21,prep,607,607,0,1179454.092,0.686,-0.675,0.196,0.188,0,0,0,0,0,0,0,0,0,0.000,0,0,0.092,0.010,0.080,-0.040,0.020,0.013,0.994,0.011,-0.006,0.008,0.006,0.000,0.000,0.000,0.000,0,2,0,2,7,255,1200,200,0,0,-89.351,0.863,-31.479
EX0521-092111,24,C21,prep,632,632,0,1179459.091,0.686,-0.675,0.196,0.188,0,0,0,0,0,0,0,0,0,0.000,0,0,0.060,0.007,0.020,0.040,-0.040,0.014,0.994,0.011,-0.006,0.004,0.006,0.000,0.000,0.000,0.000,0,2,0,2,7,255,1200,200,0,0,-89.351,0.863,-31.479
EX0521-092111,24,C21,prep,632,632,0,1179464.091,0.686,-0.675,0.196,0.188,0,0,0,0,0,0,0,0,0,0.000,0,0,0.060,0.006,0.020,-0.040,-0.040,0.014,0.994,0.011,-0.002,0.006,0.002,0.000,0.000,0.000,0.000,0,2,0,2,7,255,1200,200,0,0,-89.351,0.863,-31.479
EX0521-092111,24,C21,prep,668,668,0,1179469.092,0.686,-0.675,0.196,0.188,0,0,0,0,0,0,0,0,0,0.000,0,0,0.049,0.004,0.020,0.040,0.020,0.014,0.992,0.012,-0.002,0.004,0.002,0.000,0.000,0.000,0.000,0,2,0,2,7,255,1200,200,0,0,-89.351,0.863,-31.479
EX0521-092111,24,C21,prep,668,668,0,1179474.092,0.686,-0.675,0.196,0.188,0,0,0,0,0,0,0,0,0,0.000,0,0,0.060,0.003,0.020,-0.040,-0.040,0.014,0.994,0.011,0.002,0.002,0.002,0.000,0.000,0.000,0.000,0,2,0,2,7,255,1200,200,0,0,-89.351,0.863,-31.479
EX0521-092111,24,C21,prep,668,668,0,1179479.092,0.686,-0.675,0.196,0.188,0,0,0,0,0,0,0,0,0,0.000,0,0,0.115,0.002,-0.040,-0.100,-0.040,0.014,0.993,0.012,0.000,-0.002,-0.004,0.000,0.000,0.000,0.000,0,2,0,2,7,255,1200,200,0,0,-89.351,0.863,-31.479
EX0521-092111,24,C21,prep,668,668,0,1179484.093,0.686,-0.675,0.196,0.188,0,0,0,0,0,0,0,0,0,0.000,0,0,0.069,0.002,-0.040,-0.040,-0.040,0.014,0.993,0.012,0.000,-0.002,-0.004,0.000,0.000,0.000,0.000,0,2,0,2,7,255,1200,200,0,0,-89.351,0.863,-31.479
EX0521-092111,24,C21,prep,668,668,0,1179489.091,0.686,-0.675,0.196,0.188,0,0,0,0,0,0,0,0,0,0.000,0,0,0.060,0.004,0.020,-0.040,-0.040,0.015,0.993,0.012,0.000,-0.004,-0.004,0.000,0.000,0.000,0.000,0,2,0,2,7,255,1200,200,0,0,-89.351,0.863,-31.479
EX0521-092111,24,C21,prep,668,668,0,1179494.091,0.686,-0.675,0.196,0.188,0,0,0,0,0,0,0,0,0,0.000,0,0,0.049,0.006,0.020,-0.040,0.020,0.015,0.994,0.011,0.004,-0.004,-0.004,0.000,0.000,0.000,0.000,0,2,0,2,7,255,1200,200,0,0,-89.351,0.863,-31.479
EX0521-092111,24,C21,prep,668,668,0,1179499.091,0.686,-0.675,0.196,0.188,0,0,0,0,0,0,0,0,0,0.000,0,0,0.049,0.006,0.020,-0.040,0.020,0.015,0.992,0.012,0.004,-0.004,-0.004,0.000,0.000,0.000,0.000,0,2,0,2,7,255,1200,200,0,0,-89.351,0.863,-31.479
EX0521-092111,24,C21,prep,668,668,0,1179504.092,0.686,-0.675,0.196,0.188,0,0,0,0,0,0,0,0,0,0.000,0,0,0.060,0.004,0.020,-0.040,-0.040,0.014,0.993,0.011,0.004,0.002,-0.004,0.000,0.000,0.000,0.000,0,2,0,2,7,255,1200,200,0,0,-89.351,0.863,-31.479
EX0521-092111,24,C21,prep,669,669,0,1179509.092,0.686,-0.675,0.196,0.188,0,0,0,0,0,0,0,0,0,0.000,0,0,0.060,0.004,0.020,0.040,-0.040,0.014,0.994,0.011,0.004,0.002,-0.004,0.000,0.000,0.000,0.000,0,2,0,2,7,255,1200,200,0,0,-89.351,0.863,-31.479
EX0521-092111,24,C21,prep,669,669,0,1179514.092,0.686,-0.675,0.196,0.188,0,0,0,0,0,0,0,0,0,0.000,0,0,0.049,0.004,-0.040,-0.020,0.020,0.014,0.993,0.011,0.002,0.004,-0.004,0.000,0.000,0.000,0.000,0,2,0,2,7,255,1200,200,0,0,-89.351,0.863,-31.479
EX0521-092111,24,C21,prep,701,701,0,1179519.092,0.686,-0.675,0.196,0.188,0,0,0,0,0,0,0,0,0,0.000,0,0,0.069,0.004,-0.040,0.040,-0.040,0.015,0.993,0.011,0.002,0.004,-0.004,0.000,0.000,0.000,0.000,0,2,0,2,7,255,1200,200,0,0,-89.351,0.863,-31.479
EX0521-092111,24,C21,prep,701,701,0,1179524.091,0.686,-0.675,0.196,0.188,0,0,0,0,0,0,0,0,0,0.000,0,0,0.035,0.004,0.020,-0.020,0.020,0.014,0.994,0.012,-0.002,0.004,-0.004,0.000,0.000,0.000,0.000,0,2,0,2,7,255,1200,200,0,0,-89.351,0.863,-31.479
EX0521-092111,24,C21,prep,701,701,0,1179529.091,0.686,-0.675,0.196,0.188,0,0,0,0,0,0,0,0,0,0.000,0,0,0.049,0.009,0.020,-0.020,-0.040,0.015,0.993,0.011,0.008,-0.004,-0.004,0.000,0.000,0.000,0.000,0,2,0,2,7,255,1200,200,0,0,-89.351,0.863,-31.479
EX0521-092111,24,C21,prep,701,701,0,1179534.092,0.686,-0.675,0.196,0.188,0,0,0,0,0,0,0,0,0,0.000,0,0,0.098,0.007,0.080,0.040,-0.040,0.014,0.993,0.010,0.006,-0.004,-0.004,0.000,0.000,0.000,0.000,0,2,0,2,7,255,1200,200,0,0,-89.351,0.863,-31.479
EX0521-092111,24,C21,prep,702,702,0,1179539.092,0.686,-0.675,0.196,0.188,0,0,0,0,0,0,0,0,0,0.000,0,0,0.060,0.009,-0.040,-0.020,-0.040,0.015,0.994,0.012,0.008,-0.004,-0.004,0.000,0.000,0.000,0.000,0,2,0,2,7,255,1200,200,0,0,-89.351,0.863,-31.479
EX0521-092111,24,C21,prep,702,702,0,1179544.092,0.686,-0.675,0.196,0.188,0,0,0,0,0,0,0,0,0,0.000,0,0,0.049,0.011,-0.040,-0.020,0.020,0.015,0.994,0.010,0.008,0.008,0.002,0.000,0.000,0.000,0.000,0,2,0,2,7,255,1200,200,0,0,-89.351,0.863,-31.479
EX0521-092111,24,C21,prep,734,734,0,1179549.091,0.686,-0.675,0.196,0.188,0,0,0,0,0,0,0,0,0,0.000,0,0,0.035,0.008,0.020,-0.020,0.020,0.014,0.993,0.012,0.008,-0.002,0.002,0.000,0.000,0.000,0.000,0,2,0,2,7,255,1200,200,0,0,-89.351,0.863,-31.479
EX0521-092111,24,C21,prep,734,734,0,1179554.091,0.686,-0.675,0.196,0.188,0,0,0,0,0,0,0,0,0,0.000,0,0,0.110,0.002,-0.040,-0.100,0.020,0.014,0.992,0.012,-0.002,0.000,-0.002,0.000,0.000,0.000,0.000,0,2,0,2,7,255,1200,200,0,0,-89.351,0.863,-31.479
EX0521-092111,24,C21,prep,734,734,0,1179559.093,0.686,-0.675,0.196,0.188,0,0,0,0,0,0,0,0,0,0.000,0,0,0.110,0.006,0.020,-0.100,-0.040,0.013,0.993,0.012,-0.006,0.000,-0.008,0.000,0.000,0.000,0.000,0,2,0,2,7,255,1200,200,0,0,-89.351,0.863,-31.479
EX0521-092111,24,C21,prep,734,734,0,1179564.093,0.686,-0.675,0.196,0.188,0,0,0,0,0,0,0,0,0,0.000,0,0,0.060,0.006,-0.040,-0.040,0.020,0.015,0.995,0.011,-0.006,0.000,-0.008,0.000,0.000,0.000,0.000,0,2,0,2,7,255,1200,200,0,0,-89.351,0.863,-31.479
EX0521-092111,24,C21,prep,752,752,0,1179569.092,0.686,-0.675,0.196,0.188,0,0,0,0,0,0,0,0,0,0.000,0,0,0.098,0.002,0.080,0.040,-0.040,0.014,0.994,0.012,-0.002,0.000,0.002,0.000,0.000,0.000,0.000,0,2,0,2,7,255,1200,200,0,0,-89.351,0.863,-31.479
EX0521-092111,24,C21,prep,752,752,0,1179574.092,0.686,-0.675,0.196,0.188,0,0,0,0,0,0,0,0,0,0.000,0,0,0.049,0.003,0.020,-0.040,0.020,0.015,0.994,0.012,0.002,-0.002,0.006,0.000,0.000,0.000,0.000,0,2,0,2,7,255,1200,200,0,0,-89.351,0.863,-31.479
EX0521-092111,24,C21,prep,752,752,0,1179579.092,0.686,-0.675,0.196,0.188,0,0,0,0,0,0,0,0,0,0.000,0,0,0.098,0.004,0.080,-0.040,-0.040,0.015,0.993,0.012,0.000,-0.004,0.002,0.000,0.000,0.000,0.000,0,2,0,2,7,255,1200,200,0,0,-89.351,0.863,-31.479
EX0521-092111,24,C21,prep,752,752,0,1179584.093,0.686,-0.675,0.196,0.188,0,0,0,0,0,0,0,0,0,0.000,0,0,0.060,0.008,0.020,-0.040,-0.040,0.016,0.993,0.012,0.002,-0.008,-0.002,0.000,0.000,0.000,0.000,0,2,0,2,7,255,1200,200,0,0,-89.351,0.863,-31.479
EX0521-092111,24,C21,prep,752,752,0,1179589.091,0.686,-0.675,0.196,0.188,0,0,0,0,0,0,0,0,0,0.000,0,0,0.060,0.008,0.020,0.040,-0.040,0.014,0.993,0.011,0.000,-0.008,-0.008,0.000,0.000,0.000,0.000,0,2,0,2,7,255,1200,200,0,0,-89.351,0.863,-31.479
EX0521-092111,24,C21,prep,752,752,0,1179594.092,0.686,-0.675,0.196,0.188,0,0,0,0,0,0,0,0,0,0.000,0,0,0.049,0.008,0.020,-0.040,0.020,0.015,0.993,0.012,0.000,-0.008,-0.008,0.000,0.000,0.000,0.000,0,2,0,2,7,255,1200,200,0,0,-89.351,0.863,-31.479
EX0521-092111,24,C21,prep,767,767,0,1179599.092,0.686,-0.675,0.196,0.188,0,0,0,0,0,0,0,0,0,0.000,0,0,0.069,0.004,-0.040,-0.040,-0.040,0.015,0.994,0.012,0.000,-0.004,-0.008,0.000,0.000,0.000,0.000,0,2,0,2,7,255,1200,200,0,0,-89.351,0.863,-31.479
EX0521-092111,24,C21,prep,767,767,0,1179604.092,0.686,-0.675,0.196,0.188,0,0,0,0,0,0,0,0,0,0.000,0,0,0.060,0.008,0.020,-0.040,-0.040,0.015,0.993,0.012,0.000,-0.008,-0.002,0.000,0.000,0.000,0.000,0,2,0,2,7,255,1200,200,0,0,-89.351,0.863,-31.479
EX0521-092111,24,C21,prep,767,767,0,1179609.092,0.686,-0.675,0.196,0.188,0,0,0,0,0,0,0,0,0,0.000,0,0,0.115,0.004,-0.040,-0.100,-0.040,0.015,0.993,0.011,0.002,-0.004,-0.002,0.000,0.000,0.000,0.000,0,2,0,2,7,255,1200,200,0,0,-89.351,0.863,-31.479
EX0521-092111,24,C21,prep,767,767,0,1179614.091,0.686,-0.675,0.196,0.188,0,0,0,0,0,0,0,0,0,0.000,0,0,0.049,0.004,0.020,-0.020,-0.040,0.013,0.993,0.013,0.000,-0.004,-0.002,0.000,0.000,0.000,0.000,0,2,0,2,7,255,1200,200,0,0,-89.351,0.863,-31.479
EX0521-092111,24,C21,prep,783,783,0,1179619.092,0.686,-0.675,0.196,0.188,0,0,0,0,0,0,0,0,0,0.000,0,0,0.049,0.009,0.020,-0.020,-0.040,0.014,0.993,0.012,-0.008,-0.004,-0.008,0.000,0.000,0.000,0.000,0,2,0,2,7,255,1200,200,0,0,-89.351,0.863,-31.479
EX0521-092111,24,C21,prep,783,783,0,1179624.092,0.686,-0.675,0.196,0.188,0,0,0,0,0,0,0,0,0,0.000,0,0,0.060,0.011,0.020,0.040,-0.040,0.013,0.993,0.012,-0.010,-0.004,-0.002,0.000,0.000,0.000,0.000,0,2,0,2,7,255,1200,200,0,0,-89.351,0.863,-31.479
EX0521-092111,24,C21,prep,801,801,0,1179629.092,0.686,-0.675,0.196,0.188,0,0,0,0,0,0,0,0,0,0.000,0,0,0.049,0.008,0.020,-0.020,-0.040,0.014,0.993,0.011,-0.008,0.002,-0.002,0.000,0.000,0.000,0.000,0,2,0,2,7,255,1200,200,0,0,-89.351,0.863,-31.479
EX0521-092111,24,C21,prep,801,801,0,1179634.092,0.686,-0.675,0.196,0.188,0,0,0,0,0,0,0,0,0,0.000,0,0,0.035,0.008,0.020,-0.020,0.020,0.014,0.994,0.012,-0.008,0.002,-0.002,0.000,0.000,0.000,0.000,0,2,0,2,7,255,1200,200,0,0,-89.351,0.863,-31.479
EX0521-092111,24,C21,prep,801,801,0,1179639.092,0.686,-0.675,0.196,0.188,0,0,0,0,0,0,0,0,0,0.000,0,0,0.049,0.002,-0.040,-0.020,0.020,0.014,0.994,0.011,0.000,0.002,0.002,0.000,0.000,0.000,0.000,0,2,0,2,7,255,1200,200,0,0,-89.351,0.863,-31.479
EX0521-092111,24,C21,prep,801,801,0,1179644.091,0.686,-0.675,0.196,0.188,0,0,0,0,0,0,0,0,0,0.000,0,0,0.049,0.002,0.020,0.040,0.020,0.015,0.994,0.011,0.000,0.002,0.006,0.000,0.000,0.000,0.000,0,2,0,2,7,255,1200,200,0,0,-89.351,0.863,-31.479
EX0521-092111,24,C21,prep,815,815,0,1179649.091,0.686,-0.675,0.196,0.188,0,0,0,0,0,0,0,0,0,0.000,0,0,0.069,0.008,-0.040,0.040,-0.040,0.013,0.994,0.011,0.000,0.008,0.002,0.000,0.000,0.000,0.000,0,2,0,2,7,255,1200,200,0,0,-89.351,0.863,-31.479
EX0521-092111,24,C21,prep,815,815,0,1179654.092,0.686,-0.675,0.196,0.188,0,0,0,0,0,0,0,0,0,0.000,0,0,0.060,0.006,-0.040,-0.020,-0.040,0.013,0.993,0.012,-0.006,0.002,0.002,0.000,0.000,0.000,0.000,0,2,0,2,7,255,1200,200,0,0,-89.351,0.863,-31.479
EX0521-092111,24,C21,prep,815,815,0,1179659.092,0.686,-0.675,0.196,0.188,0,0,0,0,0,0,0,0,0,0.000,0,0,0.115,0.008,-0.040,-0.040,-0.100,0.014,0.993,0.011,-0.006,0.006,-0.002,0.000,0.000,0.000,0.000,0,2,0,2,7,255,1200,200,0,0,-89.351,0.863,-31.479
EX0521-092111,24,C21,prep,815,815,0,1179664.092,0.686,-0.675,0.196,0.188,0,0,0,0,0,0,0,0,0,0.000,0,0,0.069,0.004,-0.040,-0.040,-0.040,0.015,0.995,0.012,0.004,0.002,-0.002,0.000,0.000,0.000,0.000,0,2,0,2,7,255,1200,200,0,0,-89.351,0.863,-31.479
EX0521-092111,24,C21,prep,847,847,0,1179669.092,0.686,-0.675,0.196,0.188,0,0,0,0,0,0,0,0,0,0.000,0,0,0.069,0.006,-0.040,-0.040,-0.040,0.015,0.994,0.012,0.004,-0.004,0.002,0.000,0.000,0.000,0.000,0,2,0,2,7,255,1200,200,0,0,-89.351,0.863,-31.479
EX0521-092111,24,C21,prep,847,847,0,1179674.091,0.686,-0.675,0.196,0.188,0,0,0,0,0,0,0,0,0,0.000,0,0,0.069,0.007,-0.040,-0.040,-0.040,0.015,0.994,0.012,0.004,-0.006,0.006,0.000,0.000,0.000,0.000,0,2,0,2,7,255,1200,200,0,0,-89.351,0.863,-31.479
EX0521-092111,24,C21,prep,847,847,0,1179679.092,0.686,-0.675,0.196,0.188,0,0,0,0,0,0,0,0,0,0.000,0,0,0.069,0.004,-0.040,-0.040,-0.040,0.013,0.993,0.012,0.000,-0.004,0.002,0.000,0.000,0.000,0.000,0,2,0,2,7,255,1200,200,0,0,-89.351,0.863,-31.479
EX0521-092111,24,C21,prep,847,847,0,1179684.093,0.686,-0.675,0.196,0.188,0,0,0,0,0,0,0,0,0,0.000,0,0,0.049,0.007,0.020,-0.040,0.020,0.014,0.993,0.012,-0.004,-0.006,-0.002,0.000,0.000,0.000,0.000,0,2,0,2,7,255,1200,200,0,0,-89.351,0.863,-31.479
EX0521-092111,24,C21,prep,847,847,0,1179689.092,0.686,-0.675,0.196,0.188,0,0,0,0,0,0,0,0,0,0.000,0,0,0.069,0.004,-0.040,-0.040,-0.040,0.014,0.994,0.011,-0.004,0.002,-0.002,0.000,0.000,0.000,0.000,0,2,0,2,7,255,1200,200,0,0,-89.351,0.863,-31.479
EX0521-092111,24,C21,prep,847,847,0,1179694.092,0.686,-0.675,0.196,0.188,0,0,0,0,0,0,0,0,0,0.000,0,0,0.098,0.003,0.080,-0.040,-0.040,0.014,0.994,0.011,0.002,0.002,0.002,0.000,0.000,0.000,0.000,0,2,0,2,7,255,1200,200,0,0,-89.351,0.863,-31.479
EX0521-092111,24,C21,prep,879,879,0,1179699.092,0.686,-0.675,0.196,0.188,0,0,0,0,0,0,0,0,0,0.000,0,0,0.060,0.003,0.020,-0.040,-0.040,0.014,0.994,0.012,0.002,0.002,0.002,0.000,0.000,0.000,0.000,0,2,0,2,7,255,1200,200,0,0,-89.351,0.863,-31.479
EX0521-092111,24,C21,prep,879,879,0,1179704.091,0.686,-0.675,0.196,0.188,0,0,0,0,0,0,0,0,0,0.000,0,0,0.060,0.000,0.020,-0.040,-0.040,0.014,0.993,0.012,0.000,0.000,0.002,0.000,0.000,0.000,0.000,0,2,0,2,7,255,1200,200,0,0,-89.351,0.863,-31.479
EX0521-092111,24,C21,prep,879,879,0,1179709.091,0.686,-0.675,0.196,0.188,0,0,0,0,0,0,0,0,0,0.000,0,0,0.092,0.002,0.080,-0.020,-0.040,0.015,0.994,0.012,0.000,-0.002,0.002,0.000,0.000,0.000,0.000,0,2,0,2,7,255,1200,200,0,0,-89.351,0.863,-31.479
EX0521-092111,24,C21,prep,879,879,0,1179714.091,0.686,-0.675,0.196,0.188,0,0,0,0,0,0,0,0,0,0.000,0,0,0.049,0.008,0.020,-0.020,-0.040,0.016,0.993,0.012,0.000,-0.008,-0.002,0.000,0.000,0.000,0.000,0,2,0,2,7,255,1200,200,0,0,-89.351,0.863,-31.479
EX0521-092111,24,C21,prep,879,879,0,1179719.092,0.686,-0.675,0.196,0.188,0,0,0,0,0,0,0,0,0,0.000,0,0,0.035,0.011,0.020,-0.020,0.020,0.015,0.993,0.011,0.008,-0.008,-0.002,0.000,0.000,0.000,0.000,0,2,0,2,7,255,1200,200,0,0,-89.351,0.863,-31.479
EX0521-092111,24,C21,prep,879,879,0,1179724.092,0.686,-0.675,0.196,0.188,0,0,0,0,0,0,0,0,0,0.000,0,0,0.035,0.009,0.020,-0.020,0.020,0.014,0.992,0.011,0.008,0.004,-0.008,0.000,0.000,0.000,0.000,0,2,0,2,7,255,1200,200,0,0,-89.351,0.863,-31.479
EX0521-092111,24,C21,prep,899,899,0,1179729.092,0.686,-0.675,0.196,0.188,0,0,0,0,0,0,0,0,0,0.000,0,0,0.092,0.007,0.080,-0.020,-0.040,0.014,0.994,0.011,0.004,0.006,-0.008,0.000,0.000,0.000,0.000,0,2,0,2,7,255,1200,200,0,0,-89.351,0.863,-31.479
EX0521-092111,24,C21,prep,899,899,0,1179734.091,0.686,-0.675,0.196,0.188,0,0,0,0,0,0,0,0,0,0.000,0,0,0.147,0.007,-0.040,-0.100,-0.100,0.014,0.994,0.012,0.004,0.006,0.002,0.000,0.000,0.000,0.000,0,2,0,2,7,255,1200,200,0,0,-89.351,0.863,-31.479
EX0521-092111,24,C21,prep,899,899,0,1179739.091,0.686,-0.675,0.196,0.188,0,0,0,0,0,0,0,0,0,0.000,0,0,0.049,0.002,0.020,0.040,0.020,0.014,0.993,0.012,-0.002,0.000,0.002,0.000,0.000,0.000,0.000,0,2,0,2,7,255,1200,200,0,0,-89.351,0.863,-31.479
EX0521-092111,24,C21,prep,899,899,0,1179744.091,0.686,-0.675,0.196,0.188,0,0,0,0,0,0,0,0,0,0.000,0,0,0.115,0.006,-0.040,-0.100,-0.040,0.014,0.993,0.012,-0.006,0.000,-0.002,0.000,0.000,0.000,0.000,0,2,0,2,7,255,1200,200,0,0,-89.351,0.863,-31.479
EX0521-092111,24,C21,prep,911,911,0,1179749.092,0.686,-0.675,0.196,0.188,0,0,0,0,0,0,0,0,0,0.000,0,0,0.060,0.006,-0.040,-0.020,-0.040,0.014,0.992,0.012,-0.006,0.000,-0.008,0.000,0.000,0.000,0.000,0,2,0,2,7,255,1200,200,0,0,-89.351,0.863,-31.479
EX0521-092111,24,C21,prep,911,911,0,1179754.092,0.686,-0.675,0.196,0.188,0,0,0,0,0,0,0,0,0,0.000,0,0,0.069,0.002,-0.040,0.040,-0.040,0.015,0.994,0.012,0.000,-0.002,-0.008,0.000,0.000,0.000,0.000,0,2,0,2,7,255,1200,200,0,0,-89.351,0.863,-31.479
EX0521-092111,24,C21,prep,928,928,0,1179759.093,0.686,-0.675,0.196,0.188,0,0,0,0,0,0,0,0,0,0.000,0,0,0.104,0.006,0.020,-0.020,-0.100,0.014,0.994,0.012,0.000,-0.006,0.008,0.000,0.000,0.000,0.000,0,2,0,2,7,255,1200,200,0,0,-89.351,0.863,-31.479
EX0521-092111,24,C21,prep,928,928,0,1179764.093,0.686,-0.675,0.196,0.188,0,0,0,0,0,0,0,0,0,0.000,0,0,0.060,0.006,-0.040,-0.020,-0.040,0.014,0.994,0.011,0.002,-0.006,0.008,0.000,0.000,0.000,0.000,0,2,0,2,7,255,1200,200,0,0,-89.351,0.863,-31.479
EX0521-092111,24,C21,prep,962,962,0,1179769.091,0.686,-0.675,0.196,0.188,0,0,0,0,0,0,0,0,0,0.000,0,0,0.060,0.003,-0.040,-0.020,-0.040,0.015,0.993,0.011,0.002,0.002,0.006,0.000,0.000,0.000,0.000,0,2,0,2,7,255,1200,200,0,0,-89.351,0.863,-31.479
EX0521-092111,24,C21,prep,962,962,0,1179774.091,0.686,-0.675,0.196,0.188,0,0,0,0,0,0,0,0,0,0.000,0,0,0.035,0.006,0.020,-0.020,0.020,0.015,0.993,0.012,0.006,0.002,-0.002,0.000,0.000,0.000,0.000,0,2,0,2,7,255,1200,200,0,0,-89.351,0.863,-31.479
EX0521-092111,24,C21,prep,962,962,0,1179779.092,0.686,-0.675,0.196,0.188,0,0,0,0,0,0,0,0,0,0.000,0,0,0.060,0.008,-0.040,-0.020,-0.040,0.015,0.994,0.011,0.008,-0.002,-0.002,0.000,0.000,0.000,0.000,0,2,0,2,7,255,1200,200,0,0,-89.351,0.863,-31.479
EX0521-092111,24,C21,prep,962,962,0,1179784.093,0.686,-0.675,0.196,0.188,0,0,0,0,0,0,0,0,0,0.000,0,0,0.060,0.008,0.020,0.040,-0.040,0.014,0.993,0.012,0.006,-0.006,-0.002,0.000,0.000,0.000,0.000,0,2,0,2,7,255,1200,200,0,0,-89.351,0.863,-31.479
EX0521-092111,24,C21,prep,962,962,0,1179789.092,0.686,-0.675,0.196,0.188,0,0,0,0,0,0,0,0,0,0.000,0,0,0.098,0.008,-0.040,-0.080,-0.040,0.015,0.994,0.011,0.008,-0.002,0.002,0.000,0.000,0.000,0.000,0,2,0,2,7,255,1200,200,0,0,-89.351,0.863,-31.479
EX0521-092111,24,C21,prep,962,962,0,1179794.092,0.686,-0.675,0.196,0.188,0,0,0,0,0,0,0,0,0,0.000,0,0,0.060,0.008,-0.040,-0.020,-0.040,0.015,0.992,0.011,0.008,-0.002,-0.008,0.000,0.000,0.000,0.000,0,2,0,2,7,255,1200,200,0,0,-89.351,0.863,-31.479
EX0521-092111,24,C21,prep,975,975,0,1179799.092,0.686,-0.675,0.196,0.188,0,0,0,0,0,0,0,0,0,0.000,0,0,0.060,0.008,-0.040,-0.020,-0.040,0.015,0.994,0.011,0.008,0.000,0.002,0.000,0.000,0.000,0.000,0,2,0,2,7,255,1200,200,0,0,-89.351,0.863,-31.479
EX0521-092111,24,C21,prep,975,975,0,1179804.091,0.686,-0.675,0.196,0.188,0,0,0,0,0,0,0,0,0,0.000,0,0,0.092,0.006,0.020,-0.080,-0.040,0.014,0.993,0.012,0.006,-0.002,-0.002,0.000,0.000,0.000,0.000,0,2,0,2,7,255,1200,200,0,0,-89.351,0.863,-31.479
EX0521-092111,24,C21,prep,975,975,0,1179809.091,0.686,-0.675,0.196,0.188,0,0,0,0,0,0,0,0,0,0.000,0,0,0.035,0.002,0.020,-0.020,0.020,0.013,0.994,0.011,-0.002,0.000,0.002,0.000,0.000,0.000,0.000,0,2,0,2,7,255,1200,200,0,0,-89.351,0.863,-31.479
EX0521-092111,24,C21,prep,975,975,0,1179814.092,0.686,-0.675,0.196,0.188,0,0,0,0,0,0,0,0,0,0.000,0,0,0.049,0.002,0.020,-0.020,-0.040,0.015,0.993,0.011,-0.002,0.000,-0.002,0.000,0.000,0.000,0.000,0,2,0,2,7,255,1200,200,0,0,-89.351,0.863,-31.479
EX0521-092111,24,C21,prep,997,997,0,1179819.092,0.686,-0.675,0.196,0.188,0,0,0,0,0,0,0,0,0,0.000,0,0,0.049,0.008,0.020,-0.020,-0.040,0.014,0.993,0.011,0.000,0.008,-0.002,0.000,0.000,0.000,0.000,0,2,0,2,7,255,1200,200,0,0,-89.351,0.863,-31.479
EX0521-092111,24,C21,prep,997,997,0,1179824.092,0.686,-0.675,0.196,0.188,0,0,0,0,0,0,0,0,0,0.000,0,0,0.049,0.010,0.020,-0.020,-0.040,0.015,0.994,0.010,0.006,0.008,-0.002,0.000,0.000,0.000,0.000,0,2,0,2,7,255,1200,200,0,0,-89.351,0.863,-31.479
EX0521-092111,24,C21,prep,997,997,0,1179829.091,0.686,-0.675,0.196,0.188,0,0,0,0,0,0,0,0,0,0.000,0,0,0.060,0.008,0.020,0.040,-0.040,0.014,0.993,0.011,0.000,0.008,-0.002,0.000,0.000,0.000,0.000,0,2,0,2,7,255,1200,200,0,0,-89.351,0.863,-31.479
EX0521-092111,24,C21,prep,997,997,0,1179834.091,0.686,-0.675,0.196,0.188,0,0,0,0,0,0,0,0,0,0.000,0,0,0.060,0.006,-0.040,-0.020,-0.040,0.014,0.993,0.012,-0.004,0.004,-0.002,0.000,0.000,0.000,0.000,0,2,0,2,7,255,1200,200,0,0,-89.351,0.863,-31.479
EX0521-092111,24,C21,prep,998,998,0,1179839.091,0.686,-0.675,0.196,0.188,0,0,0,0,0,0,0,0,0,0.000,0,0,0.049,0.007,0.020,-0.020,-0.040,0.015,0.994,0.012,-0.004,-0.006,-0.002,0.000,0.000,0.000,0.000,0,2,0,2,7,255,1200,200,0,0,-89.351,0.863,-31.479
EX0521-092111,24,C21,prep,998,998,0,1179844.092,0.686,-0.675,0.196,0.188,0,0,0,0,0,0,0,0,0,0.000,0,0,0.060,0.006,-0.040,-0.020,-0.040,0.014,0.994,0.012,-0.002,-0.006,0.002,0.000,0.000,0.000,0.000,0,2,0,2,7,255,1200,200,0,0,-89.351,0.863,-31.479
EX0521-092111,24,C21,prep,1031,1031,0,1179849.092,0.686,-0.675,0.196,0.188,0,0,0,0,0,0,0,0,0,0.000,0,0,0.060,0.002,-0.040,0.040,0.020,0.015,0.995,0.011,0.000,-0.002,0.008,0.000,0.000,0.000,0.000,0,2,0,2,7,255,1200,200,0,0,-89.351,0.863,-31.479
EX0521-092111,24,C21,prep,1031,1031,0,1179854.092,0.686,-0.675,0.196,0.188,0,0,0,0,0,0,0,0,0,0.000,0,0,0.060,0.003,-0.040,-0.020,-0.040,0.013,0.994,0.011,-0.002,0.002,0.006,0.000,0.000,0.000,0.000,0,2,0,2,7,255,1200,200,0,0,-89.351,0.863,-31.479
EX0521-092111,24,C21,prep,1031,1031,0,1179859.091,0.686,-0.675,0.196,0.188,0,0,0,0,0,0,0,0,0,0.000,0,0,0.060,0.004,-0.040,-0.020,-0.040,0.014,0.994,0.012,-0.004,0.002,0.006,0.000,0.000,0.000,0.000,0,2,0,2,7,255,1200,200,0,0,-89.351,0.863,-31.479
EX0521-092111,24,C21,prep,1031,1031,0,1179864.091,0.686,-0.675,0.196,0.188,0,0,0,0,0,0,0,0,0,0.000,0,0,0.060,0.011,-0.040,-0.020,-0.040,0.013,0.993,0.011,-0.008,0.008,0.002,0.000,0.000,0.000,0.000,0,2,0,2,7,255,1200,200,0,0,-89.351,0.863,-31.479
EX0521-092111,24,C21,prep,1067,1067,0,1179869.091,0.686,-0.675,0.196,0.188,0,0,0,0,0,0,0,0,0,0.000,0,0,0.049,0.009,0.020,-0.020,-0.040,0.014,0.993,0.011,-0.008,0.004,-0.002,0.000,0.000,0.000,0.000,0,2,0,2,7,255,1200,200,0,0,-89.351,0.863,-31.479
EX0521-092111,24,C21,prep,1067,1067,0,1179874.092,0.686,-0.675,0.196,0.188,0,0,0,0,0,0,0,0,0,0.000,0,0,0.060,0.004,0.020,0.040,-0.040,0.015,0.994,0.012,-0.002,0.004,-0.002,0.000,0.000,0.000,0.000,0,2,0,2,7,255,1200,200,0,0,-89.351,0.863,-31.479
EX0521-092111,24,C21,prep,1067,1067,0,1179879.092,0.686,-0.675,0.196,0.188,0,0,0,0,0,0,0,0,0,0.000,0,0,0.049,0.004,0.020,0.040,0.020,0.014,0.993,0.012,-0.002,-0.004,-0.008,0.000,0.000,0.000,0.000,0,2,0,2,7,255,1200,200,0,0,-89.351,0.863,-31.479
EX0521-092111,24,C21,prep,1067,1067,0,1179884.093,0.686,-0.675,0.196,0.188,0,0,0,0,0,0,0,0,0,0.000,0,0,0.049,0.004,-0.040,-0.020,0.020,0.015,0.993,0.011,0.002,-0.004,-0.002,0.000,0.000,0.000,0.000,0,2,0,2,7,255,1200,200,0,0,-89.351,0.863,-31.479
EX0521-092111,24,C21,prep,1067,1067,0,1179889.091,0.686,-0.675,0.196,0.188,0,0,0,0,0,0,0,0,0,0.000,0,0,0.049,0.002,0.020,-0.020,-0.040,0.014,0.994,0.011,0.002,0.000,-0.002,0.000,0.000,0.000,0.000,0,2,0,2,7,255,1200,200,0,0,-89.351,0.863,-31.479
EX0521-092111,24,C21,prep,1067,1067,0,1179894.091,0.686,-0.675,0.196,0.188,0,0,0,0,0,0,0,0,0,0.000,0,0,0.092,0.002,0.020,-0.080,-0.040,0.015,0.994,0.012,0.002,0.000,0.002,0.000,0.000,0.000,0.000,0,2,0,2,7,255,1200,200,0,0,-89.351,0.863,-31.479
EX0521-092111,24,C21,prep,1067,1067,0,1179899.091,0.686,-0.675,0.196,0.188,0,0,0,0,0,0,0,0,0,0.000,0,0,0.049,0.008,0.020,0.040,0.020,0.015,0.995,0.012,0.000,-0.008,0.008,0.000,0.000,0.000,0.000,0,2,0,2,7,255,1200,200,0,0,-89.351,0.863,-31.479
EX0521-092111,24,C21,prep,1067,1067,0,1179904.092,0.686,-0.675,0.196,0.188,0,0,0,0,0,0,0,0,0,0.000,0,0,0.049,0.008,-0.040,-0.020,0.020,0.015,0.994,0.011,0.000,-0.008,0.008,0.000,0.000,0.000,0.000,0,2,0,2,7,255,1200,200,0,0,-89.351,0.863,-31.479
EX0521-092111,24,C21,prep,1068,1068,0,1179909.092,0.686,-0.675,0.196,0.188,0,0,0,0,0,0,0,0,0,0.000,0,0,0.069,0.006,-0.040,-0.040,-0.040,0.014,0.994,0.012,0.000,-0.006,0.002,0.000,0.000,0.000,0.000,0,2,0,2,7,255,1200,200,0,0,-89.351,0.863,-31.479
EX0521-092111,24,C21,prep,1068,1068,0,1179914.092,0.686,-0.675,0.196,0.188,0,0,0,0,0,0,0,0,0,0.000,0,0,0.060,0.004,-0.040,-0.040,0.020,0.013,0.993,0.011,-0.004,0.000,0.002,0.000,0.000,0.000,0.000,0,2,0,2,7,255,1200,200,0,0,-89.351,0.863,-31.479
EX0521-092111,24,C21,prep,1101,1101,0,1179919.092,0.686,-0.675,0.196,0.188,0,0,0,0,0,0,0,0,0,0.000,0,0,0.069,0.011,-0.040,-0.040,-0.040,0.013,0.994,0.011,-0.004,0.010,0.002,0.000,0.000,0.000,0.000,0,2,0,2,7,255,1200,200,0,0,-89.351,0.863,-31.479
EX0521-092111,24,C21,prep,1101,1101,0,1179924.091,0.686,-0.675,0.196,0.188,0,0,0,0,0,0,0,0,0,0.000,0,0,0.060,0.011,-0.040,-0.040,0.020,0.014,0.994,0.012,-0.004,0.010,0.002,0.000,0.000,0.000,0.000,0,2,0,2,7,255,1200,200,0,0,-89.351,0.863,-31.479
EX0521-092111,24,C21,prep,1101,1101,0,1179929.091,0.686,-0.675,0.196,0.188,0,0,0,0,0,0,0,0,0,0.000,0,0,0.069,0.006,-0.040,-0.040,-0.040,0.014,0.994,0.011,-0.002,0.006,0.002,0.000,0.000,0.000,0.000,0,2,0,2,7,255,1200,200,0,0,-89.351,0.863,-31.479
EX0521-092111,24,C21,prep,1101,1101,0,1179934.092,0.686,-0.675,0.196,0.188,0,0,0,0,0,0,0,0,0,0.000,0,0,0.110,0.007,0.020,-0.100,-0.040,0.014,0.995,0.011,0.004,0.006,0.002,0.000,0.000,0.000,0.000,0,2,0,2,7,255,1200,200,0,0,-89.351,0.863,-31.479
EX0521-092111,24,C21,prep,1101,1101,0,1179939.092,0.686,-0.675,0.196,0.188,0,0,0,0,0,0,0,0,0,0.000,0,0,0.049,0.007,0.020,-0.040,0.020,0.014,0.994,0.013,0.004,0.006,0.002,0.000,0.000,0.000,0.000,0,2,0,2,7,255,1200,200,0,0,-89.351,0.863,-31.479
EX0521-092111,24,C21,prep,1101,1101,0,1179944.092,0.686,-0.675,0.196,0.188,0,0,0,0,0,0,0,0,0,0.000,0,0,0.069,0.008,-0.040,0.040,-0.040,0.013,0.993,0.012,-0.008,0.000,0.002,0.000,0.000,0.000,0.000,0,2,0,2,7,255,1200,200,0,0,-89.351,0.863,-31.479
EX0521-092111,24,C21,prep,1134,1134,0,1179949.092,0.686,-0.675,0.196,0.188,0,0,0,0,0,0,0,0,0,0.000,0,0,0.115,0.011,-0.040,-0.100,-0.040,0.015,0.994,0.012,-0.008,-0.008,0.002,0.000,0.000,0.000,0.000,0,2,0,2,7,255,1200,200,0,0,-89.351,0.863,-31.479
EX0521-092111,24,C21,prep,1134,1134,0,1179954.091,0.686,-0.675,0.196,0.188,0,0,0,0,0,0,0,0,0,0.000,0,0,0.069,0.006,-0.040,-0.040,-0.040,0.015,0.993,0.012,0.000,-0.006,-0.002,0.000,0.000,0.000,0.000,0,2,0,2,7,255,1200,200,0,0,-89.351,0.863,-31.479
EX0521-092111,24,C21,prep,1134,1134,0,1179959.092,0.686,-0.675,0.196,0.188,0,0,0,0,0,0,0,0,0,0.000,0,0,0.110,0.008,-0.100,-0.040,0.020,0.015,0.992,0.010,0.006,-0.006,-0.002,0.000,0.000,0.000,0.000,0,2,0,2,7,255,1200,200,0,0,-89.351,0.863,-31.479
EX0521-092111,24,C21,prep,1134,1134,0,1179964.093,0.686,-0.675,0.196,0.188,0,0,0,0,0,0,0,0,0,0.000,0,0,0.069,0.008,-0.040,-0.040,-0.040,0.014,0.994,0.012,0.006,-0.006,-0.002,0.000,0.000,0.000,0.000,0,2,0,2,7,255,1200,200,0,0,-89.351,0.863,-31.479
EX0521-092111,24,C21,prep,1151,1151,0,1179969.092,0.686,-0.675,0.196,0.188,0,0,0,0,0,0,0,0,0,0.000,0,0,0.060,0.007,0.020,-0.040,-0.040,0.013,0.993,0.011,-0.004,0.006,-0.002,0.000,0.000,0.000,0.000,0,2,0,2,7,255,1200,200,0,0,-89.351,0.863,-31.479
EX0521-092111,24,C21,prep,1151,1151,0,1179974.092,0.686,-0.675,0.196,0.188,0,0,0,0,0,0,0,0,0,0.000,0,0,0.069,0.004,-0.040,-0.040,-0.040,0.015,0.992,0.011,-0.004,0.000,-0.002,0.000,0.000,0.000,0.000,0,2,0,2,7,255,1200,200,0,0,-89.351,0.863,-31.479
EX0521-092111,24,C21,prep,1151,1151,0,1179979.092,0.686,-0.675,0.196,0.188,0,0,0,0,0,0,0,0,0,0.000,0,0,0.049,0.007,0.020,-0.040,0.020,0.014,0.994,0.011,0.004,0.006,-0.002,0.000,0.000,0.000,0.000,0,2,0,2,7,255,1200,200,0,0,-89.351,0.863,-31.479
EX0521-092111,24,C21,prep,1151,1151,0,1179984.093,0.686,-0.675,0.196,0.188,0,0,0,0,0,0,0,0,0,0.000,0,0,0.060,0.004,0.020,-0.040,-0.040,0.015,0.994,0.012,0.004,0.000,0.002,0.000,0.000,0.000,0.000,0,2,0,2,7,255,1200,200,0,0,-89.351,0.863,-31.479
EX0521-092111,24,C21,prep,1151,1151,0,1179989.091,0.686,-0.675,0.196,0.188,0,0,0,0,0,0,0,0,0,0.000,0,0,0.060,0.003,0.020,-0.040,-0.040,0.014,0.994,0.012,0.002,-0.002,0.002,0.000,0.000,0.000,0.000,0,2,0,2,7,255,1200,200,0,0,-89.351,0.863,-31.479
EX0521-092111,24,C21,prep,1151,1151,0,1179994.092,0.686,-0.675,0.196,0.188,0,0,0,0,0,0,0,0,0,0.000,0,0,0.060,0.004,0.020,-0.040,-0.040,0.015,0.994,0.012,0.002,-0.004,0.002,0.000,0.000,0.000,0.000,0,2,0,2,7,255,1200,200,0,0,-89.351,0.863,-31.479
EX0521-092111,24,C21,prep,1168,1168,0,1179999.092,0.686,-0.675,0.196,0.188,0,0,0,0,0,0,0,0,0,0.000,0,0,0.049,0.003,0.020,-0.040,0.020,0.014,0.993,0.012,-0.002,-0.002,0.002,0.000,0.000,0.000,0.000,0,2,0,2,7,255,1200,200,0,0,-89.351,0.863,-31.479
EX0521-092111,24,C21,prep,1168,1168,0,1180004.092,0.686,-0.675,0.196,0.188,0,0,0,0,0,0,0,0,0,0.000,0,0,0.069,0.003,-0.040,-0.040,-0.040,0.013,0.993,0.011,-0.002,-0.002,-0.002,0.000,0.000,0.000,0.000,0,2,0,2,7,255,1200,200,0,0,-89.351,0.863,-31.479
EX0521-092111,24,C21,prep,1183,1183,0,1180009.092,0.686,-0.675,0.196,0.188,0,0,0,0,0,0,0,0,0,0.000,0,0,0.069,0.004,-0.040,-0.040,-0.040,0.014,0.994,0.012,-0.004,0.000,-0.002,0.000,0.000,0.000,0.000,0,2,0,2,7,255,1200,200,0,0,-89.351,0.863,-31.479
EX0521-092111,24,C21,prep,1183,1183,0,1180014.092,0.686,-0.675,0.196,0.188,0,0,0,0,0,0,0,0,0,0.000,0,0,0.060,0.009,0.020,-0.040,-0.040,0.014,0.994,0.011,-0.004,0.008,0.002,0.000,0.000,0.000,0.000,0,2,0,2,7,255,1200,200,0,0,-89.351,0.863,-31.479
EX0521-092111,24,C21,prep,1183,1183,0,1180019.092,0.686,-0.675,0.196,0.188,0,0,0,0,0,0,0,0,0,0.000,0,0,0.115,0.002,-0.100,-0.040,-0.040,0.014,0.995,0.011,0.000,0.002,0.006,0.000,0.000,0.000,0.000,0,2,0,2,7,255,1200,200,0,0,-89.351,0.863,-31.479
EX0521-092111,24,C21,prep,1183,1183,0,1180024.091,0.686,-0.675,0.196,0.188,0,0,0,0,0,0,0,0,0,0.000,0,0,0.049,0.003,0.020,-0.040,0.020,0.015,0.993,0.011,0.002,0.002,0.002,0.000,0.000,0.000,0.000,0,2,0,2,7,255,1200,200,0,0,-89.351,0.863,-31.479
EX0521-092111,24,C21,prep,1199,1199,0,1180029.092,0.686,-0.675,0.196,0.188,0,0,0,0,0,0,0,0,0,0.000,0,0,0.110,0.006,0.020,-0.040,-0.100,0.015,0.994,0.011,0.006,0.000,0.006,0.000,0.000,0.000,0.000,0,2,0,2,7,255,1200,200,0,0,-89.351,0.863,-31.479
EX0521-092111,24,C21,prep,1199,1199,0,1180034.092,0.686,-0.675,0.196,0.188,0,0,0,0,0,0,0,0,0,0.000,0,0,0.110,0.006,0.020,-0.100,-0.040,0.014,0.995,0.011,0.006,0.000,0.006,0.000,0.000,0.000,0.000,0,2,0,2,7,255,1200,200,0,0,-89.351,0.864,-31.479
EX0521-092111,24,C21,prep,1199,1199,0,1180039.092,0.686,-0.675,0.196,0.188,0,0,0,0,0,0,0,0,0,0.000,0,0,0.110,0.006,0.020,-0.100,-0.040,0.014,0.994,0.011,0.004,0.004,0.006,0.000,0.000,0.000,0.000,0,2,0,2,7,255,1200,200,0,0,-89.351,0.864,-31.479
EX0521-092111,24,C21,prep,1199,1199,0,1180044.092,0.686,-0.675,0.196,0.188,0,0,0,0,0,0,0,0,0,0.000,0,0,0.060,0.004,-0.040,-0.040,0.020,0.015,0.994,0.012,0.002,0.004,0.002,0.000,0.000,0.000,0.000,0,2,0,2,7,255,1200,200,0,0,-89.351,0.864,-31.479
EX0521-092111,24,C21,prep,1215,1215,0,1180049.092,0.686,-0.675,0.196,0.188,0,0,0,0,0,0,0,0,0,0.000,0,0,0.060,0.004,0.020,0.040,-0.040,0.015,0.994,0.012,0.000,-0.004,0.002,0.000,0.000,0.000,0.000,0,2,0,2,7,255,1200,200,0,0,-89.351,0.864,-31.479
EX0521-092111,24,C21,prep,1215,1215,0,1180054.091,0.686,-0.675,0.196,0.188,0,0,0,0,0,0,0,0,0,0.000,0,0,0.060,0.006,0.020,-0.040,-0.040,0.016,0.994,0.011,0.002,-0.006,0.002,0.000,0.000,0.000,0.000,0,2,0,2,7,255,1200,200,0,0,-89.351,0.864,-31.479
EX0521-092111,24,C21,prep,1235,1235,0,1180059.092,0.686,-0.675,0.196,0.188,0,0,0,0,0,0,0,0,0,0.000,0,0,0.110,0.007,0.020,-0.100,-0.040,0.015,0.994,0.011,0.004,-0.006,0.002,0.000,0.000,0.000,0.000,0,2,0,2,7,255,1200,200,0,0,-89.351,0.864,-31.479
EX0521-092111,24,C21,prep,1235,1235,0,1180064.092,0.686,-0.675,0.196,0.188,0,0,0,0,0,0,0,0,0,0.000,0,0,0.060,0.014,0.020,-0.040,-0.040,0.016,0.994,0.011,0.014,0.000,0.002,0.000,0.000,0.000,0.000,0,2,0,2,7,255,1200,200,0,0,-89.351,0.864,-31.479
EX0521-092111,24,C21,prep,1266,1266,0,1180069.092,0.686,-0.675,0.196,0.188,0,0,0,0,0,0,0,0,0,0.000,0,0,0.060,0.008,0.020,-0.040,-0.040,0.015,0.994,0.011,0.008,0.000,0.006,0.000,0.000,0.000,0.000,0,2,0,2,7,255,1200,200,0,0,-89.351,0.864,-31.479
EX0521-092111,24,C21,prep,1266,1266,0,1180074.093,0.686,-0.675,0.196,0.188,0,0,0,0,0,0,0,0,0,0.000,0,0,0.069,0.008,-0.040,-0.040,-0.040,0.016,0.993,0.012,0.008,0.000,0.006,0.000,0.000,0.000,0.000,0,2,0,2,7,255,1200,200,0,0,-89.351,0.864,-31.479
EX0521-092111,24,C21,prep,1266,1266,0,1180079.092,0.686,-0.675,0.196,0.188,0,0,0,0,0,0,0,0,0,0.000,0,0,0.069,0.008,-0.040,0.040,-0.040,0.014,0.993,0.011,0.008,0.002,-0.002,0.000,0.000,0.000,0.000,0,2,0,2,7,255,1200,200,0,0,-89.351,0.864,-31.479
EX0521-092111,24,C21,prep,1266,1266,0,1180084.093,0.686,-0.675,0.196,0.188,0,0,0,0,0,0,0,0,0,0.000,0,0,0.060,0.002,0.020,-0.040,-0.040,0.014,0.993,0.011,0.000,0.002,-0.004,0.000,0.000,0.000,0.000,0,2,0,2,7,255,1200,200,0,0,-89.351,0.864,-31.479
EX0521-092111,24,C21,prep,1280,1280,0,1180089.091,0.686,-0.675,0.196,0.188,0,0,0,0,0,0,0,0,0,0.000,0,0,0.060,0.002,0.020,-0.040,-0.040,0.014,0.994,0.011,0.000,0.002,-0.004,0.000,0.000,0.000,0.000,0,2,0,2,7,255,1200,200,0,0,-89.351,0.864,-31.479
EX0521-092111,24,C21,prep,1280,1280,0,1180094.092,0.686,-0.675,0.196,0.188,0,0,0,0,0,0,0,0,0,0.000,0,0,0.060,0.002,-0.040,-0.040,0.020,0.015,0.994,0.012,0.000,0.002,0.002,0.000,0.000,0.000,0.000,0,2,0,2,7,255,1200,200,0,0,-89.351,0.864,-31.479
EX0521-092111,24,C21,prep,1280,1280,0,1180099.092,0.686,-0.675,0.196,0.188,0,0,0,0,0,0,0,0,0,0.000,0,0,0.049,0.002,0.020,0.040,0.020,0.014,0.994,0.011,0.000,0.002,0.002,0.000,0.000,0.000,0.000,0,2,0,2,7,255,1200,200,0,0,-89.351,0.864,-31.479
EX0521-092111,24,C21,prep,1280,1280,0,1180104.092,0.686,-0.675,0.196,0.188,0,0,0,0,0,0,0,0,0,0.000,0,0,0.049,0.007,0.020,-0.040,0.020,0.016,0.993,0.011,0.004,-0.006,0.002,0.000,0.000,0.000,0.000,0,2,0,2,7,255,1200,200,0,0,-89.351,0.864,-31.479
EX0521-092111,24,C21,prep,1280,1280,0,1180109.093,0.686,-0.675,0.196,0.188,0,0,0,0,0,0,0,0,0,0.000,0,0,0.069,0.002,-0.040,-0.040,-0.040,0.014,0.993,0.011,0.000,0.002,-0.004,0.000,0.000,0.000,0.000,0,2,0,2,7,255,1200,200,0,0,-89.351,0.864,-31.479
EX0521-092111,24,C21,prep,1280,1280,0,1180114.091,0.686,-0.675,0.196,0.188,0,0,0,0,0,0,0,0,0,0.000,0,0,0.049,0.004,0.020,-0.040,0.020,0.015,0.993,0.012,0.002,-0.004,-0.004,0.000,0.000,0.000,0.000,0,2,0,2,7,255,1200,200,0,0,-89.351,0.864,-31.479
EX0521-092111,24,C21,prep,1281,1281,0,1180119.092,0.686,-0.675,0.196,0.188,0,0,0,0,0,0,0,0,0,0.000,0,0,0.060,0.003,0.020,-0.040,-0.040,0.014,0.993,0.011,0.002,0.002,-0.004,0.000,0.000,0.000,0.000,0,2,0,2,7,255,1200,200,0,0,-89.351,0.864,-31.479
EX0521-092111,24,C21,prep,1281,1281,0,1180124.092,0.686,-0.675,0.196,0.188,0,0,0,0,0,0,0,0,0,0.000,0,0,0.069,0.006,-0.040,0.040,-0.040,0.014,0.994,0.011,0.002,0.006,-0.004,0.000,0.000,0.000,0.000,0,2,0,2,7,255,1200,200,0,0,-89.351,0.864,-31.479
EX0521-092111,24,C21,prep,1301,1301,0,1180129.092,0.686,-0.675,0.196,0.188,0,0,0,0,0,0,0,0,0,0.000,0,0,0.069,0.006,-0.040,-0.040,-0.040,0.015,0.993,0.012,0.002,0.006,-0.008,0.000,0.000,0.000,0.000,0,2,0,2,7,255,1200,200,0,0,-89.351,0.864,-31.479
EX0521-092111,24,C21,prep,1301,1301,0,1180134.092,0.686,-0.675,0.196,0.188,0,0,0,0,0,0,0,0,0,0.000,0,0,0.060,0.006,0.020,-0.040,-0.040,0.014,0.994,0.012,-0.004,-0.004,0.002,0.000,0.000,0.000,0.000,0,2,0,2,7,255,1200,200,0,0,-89.351,0.864,-31.479
EX0521-092111,24,C21,prep,1302,1302,0,1180139.092,0.686,-0.675,0.196,0.188,0,0,0,0,0,0,0,0,0,0.000,0,0,0.110,0.004,-0.040,-0.100,0.020,0.015,0.995,0.011,0.002,-0.004,0.002,0.000,0.000,0.000,0.000,0,2,0,2,7,255,1200,200,0,0,-89.351,0.864,-31.479
EX0521-092111,24,C21,prep,1302,1302,0,1180144.091,0.686,-0.675,0.196,0.188,0,0,0,0,0,0,0,0,0,0.000,0,0,0.060,0.004,0.020,0.040,-0.040,0.014,0.992,0.011,-0.004,-0.002,0.002,0.000,0.000,0.000,0.000,0,2,0,2,7,255,1200,200,0,0,-89.351,0.864,-31.479
EX0521-092111,24,C21,prep,1311,1311,0,1180149.091,0.686,-0.675,0.196,0.188,0,0,0,0,0,0,0,0,0,0.000,0,0,0.069,0.004,-0.040,-0.040,-0.040,0.014,0.993,0.012,-0.004,-0.002,-0.008,0.000,0.000,0.000,0.000,0,2,0,2,7,255,1200,200,0,0,-89.351,0.864,-31.479
EX0521-092111,24,C21,prep,1311,1311,0,1180154.091,0.686,-0.675,0.196,0.188,0,0,0,0,0,0,0,0,0,0.000,0,0,0.060,0.006,0.020,-0.040,-0.040,0.013,0.995,0.012,-0.004,0.004,-0.008,0.000,0.000,0.000,0.000,0,2,0,2,7,255,1200,200,0,0,-89.351,0.864,-31.479
EX0521-092111,24,C21,prep,1333,1333,0,1180159.092,0.686,-0.675,0.196,0.188,0,0,0,0,0,0,0,0,0,0.000,0,0,0.069,0.011,-0.040,-0.040,-0.040,0.013,0.994,0.011,-0.010,0.004,0.002,0.000,0.000,0.000,0.000,0,2,0,2,7,255,1200,200,0,0,-89.351,0.864,-31.479
EX0521-092111,24,C21,prep,1333,1333,0,1180164.092,0.686,-0.675,0.196,0.188,0,0,0,0,0,0,0,0,0,0.000,0,0,0.060,0.013,0.020,-0.040,-0.040,0.013,0.994,0.011,-0.010,0.008,0.006,0.000,0.000,0.000,0.000,0,2,0,2,7,255,1200,200,0,0,-89.351,0.864,-31.479
EX0521-092111,24,C21,prep,1376,1376,0,1180169.094,0.686,-0.675,0.196,0.188,0,0,0,0,0,0,0,0,0,0.000,0,0,0.060,0.011,-0.040,0.020,-0.040,0.016,0.993,0.012,-0.008,0.008,0.002,0.000,0.000,0.000,0.000,0,2,0,2,7,255,1200,200,0,0,-89.351,0.864,-31.479
EX0521-092111,24,C21,prep,1376,1376,0,1180174.091,0.686,-0.675,0.196,0.188,0,0,0,0,0,0,0,0,0,0.000,0,0,0.110,0.003,0.020,-0.100,-0.040,0.014,0.994,0.012,-0.002,-0.002,0.002,0.000,0.000,0.000,0.000,0,2,0,2,7,255,1200,200,0,0,-89.351,0.864,-31.479
EX0521-092111,24,C21,prep,1376,1376,0,1180179.092,0.686,-0.675,0.196,0.188,0,0,0,0,0,0,0,0,0,0.000,0,0,0.069,0.004,-0.040,-0.040,-0.040,0.014,0.993,0.012,-0.002,-0.004,-0.002,0.000,0.000,0.000,0.000,0,2,0,2,7,255,1200,200,0,0,-89.351,0.864,-31.479
EX0521-092111,24,C21,prep,1376,1376,0,1180184.093,0.686,-0.675,0.196,0.188,0,0,0,0,0,0,0,0,0,0.000,0,0,0.049,0.004,0.020,-0.040,0.020,0.015,0.995,0.012,-0.002,-0.004,0.002,0.000,0.000,0.000,0.000,0,2,0,2,7,255,1200,200,0,0,-89.351,0.864,-31.479
EX0521-092111,24,C21,prep,1376,1376,0,1180189.092,0.686,-0.675,0.196,0.188,0,0,0,0,0,0,0,0,0,0.000,0,0,0.069,0.009,-0.040,-0.040,-0.040,0.013,0.994,0.012,-0.008,-0.004,0.002,0.000,0.000,0.000,0.000,0,2,0,2,7,255,1200,200,0,0,-89.351,0.864,-31.479
EX0521-092111,24,C21,prep,1376,1376,0,1180194.092,0.686,-0.675,0.196,0.188,0,0,0,0,0,0,0,0,0,0.000,0,0,0.104,0.004,0.020,-0.100,0.020,0.014,0.994,0.010,0.000,0.004,0.002,0.000,0.000,0.000,0.000,0,2,0,2,7,255,1200,200,0,0,-89.351,0.864,-31.479
EX0521-092111,24,C21,prep,1376,1376,0,1180199.092,0.686,-0.675,0.196,0.188,0,0,0,0,0,0,0,0,0,0.000,0,0,0.069,0.009,-0.040,-0.040,-0.040,0.015,0.994,0.011,0.008,0.004,0.002,0.000,0.000,0.000,0.000,0,2,0,2,7,255,1200,200,0,0,-89.351,0.864,-31.479
EX0521-092111,24,C21,prep,1376,1376,0,1180204.092,0.686,-0.675,0.196,0.188,0,0,0,0,0,0,0,0,0,0.000,0,0,0.049,0.008,0.020,-0.040,0.020,0.014,0.993,0.012,0.008,0.002,0.002,0.000,0.000,0.000,0.000,0,2,0,2,7,255,1200,200,0,0,-89.351,0.864,-31.479
EX0521-092111,24,C21,prep,1377,1377,0,1180209.091,0.686,-0.675,0.196,0.188,0,0,0,0,0,0,0,0,0,0.000,0,0,0.060,0.004,-0.040,-0.020,-0.040,0.015,0.994,0.011,0.004,0.000,0.002,0.000,0.000,0.000,0.000,0,2,0,2,7,255,1200,200,0,0,-89.351,0.864,-31.479
EX0521-092111,24,C21,prep,1377,1377,0,1180214.091,0.686,-0.675,0.196,0.188,0,0,0,0,0,0,0,0,0,0.000,0,0,0.060,0.004,-0.040,-0.020,-0.040,0.015,0.994,0.011,0.004,0.000,0.002,0.000,0.000,0.000,0.000,0,2,0,2,7,255,1200,200,0,0,-89.351,0.864,-31.479
EX0521-092111,24,C21,prep,1395,1395,0,1180219.092,0.686,-0.675,0.196,0.188,0,0,0,0,0,0,0,0,0,0.000,0,0,0.049,0.004,0.020,-0.020,-0.040,0.015,0.993,0.012,0.004,0.000,0.002,0.000,0.000,0.000,0.000,0,2,0,2,7,255,1200,200,0,0,-89.351,0.864,-31.479
EX0521-092111,24,C21,prep,1395,1395,0,1180224.092,0.686,-0.675,0.196,0.188,0,0,0,0,0,0,0,0,0,0.000,0,0,0.110,0.004,-0.040,-0.020,-0.100,0.015,0.993,0.011,0.004,0.000,-0.004,0.000,0.000,0.000,0.000,0,2,0,2,7,255,1200,200,0,0,-89.351,0.864,-31.479
EX0521-092111,24,C21,prep,1395,1395,0,1180229.092,0.686,-0.675,0.196,0.188,0,0,0,0,0,0,0,0,0,0.000,0,0,0.035,0.004,0.020,-0.020,0.020,0.015,0.994,0.012,0.002,-0.004,-0.004,0.000,0.000,0.000,0.000,0,2,0,2,7,255,1200,200,0,0,-89.351,0.864,-31.479
EX0521-092111,24,C21,prep,1395,1395,0,1180234.092,0.686,-0.675,0.196,0.188,0,0,0,0,0,0,0,0,0,0.000,0,0,0.049,0.004,-0.040,-0.020,0.020,0.015,0.993,0.011,0.004,0.000,-0.004,0.000,0.000,0.000,0.000,0,2,0,2,7,255,1200,200,0,0,-89.351,0.864,-31.479
EX0521-092111,24,C21,prep,1407,1407,0,1180239.091,0.686,-0.675,0.196,0.188,0,0,0,0,0,0,0,0,0,0.000,0,0,0.049,0.004,0.020,-0.020,-0.040,0.013,0.994,0.012,0.002,0.004,0.002,0.000,0.000,0.000,0.000,0,2,0,2,7,255,1200,200,0,0,-89.351,0.864,-31.479
EX0521-092111,24,C21,prep,1407,1407,0,1180244.091,0.686,-0.675,0.196,0.188,0,0,0,0,0,0,0,0,0,0.000,0,0,0.060,0.007,-0.040,-0.020,-0.040,0.014,0.995,0.012,-0.006,0.004,0.002,0.000,0.000,0.000,0.000,0,2,0,2,7,255,1200,200,0,0,-89.351,0.864,-31.479
EX0521-092111,24,C21,prep,1407,1407,0,1180249.091,0.686,-0.675,0.196,0.188,0,0,0,0,0,0,0,0,0,0.000,0,0,0.110,0.006,0.020,-0.100,-0.040,0.014,0.993,0.012,-0.006,0.000,0.002,0.000,0.000,0.000,0.000,0,2,0,2,7,255,1200,200,0,0,-89.351,0.864,-31.479
EX0521-092111,24,C21,prep,1407,1407,0,1180254.092,0.686,-0.675,0.196,0.188,0,0,0,0,0,0,0,0,0,0.000,0,0,0.049,0.002,0.020,-0.020,-0.040,0.014,0.993,0.011,-0.002,0.000,-0.004,0.000,0.000,0.000,0.000,0,2,0,2,7,255,1200,200,0,0,-89.351,0.864,-31.479
EX0521-092111,24,C21,prep,1426,1426,0,1180259.092,0.686,-0.675,0.196,0.188,0,0,0,0,0,0,0,0,0,0.000,0,0,0.069,0.002,-0.040,-0.040,-0.040,0.014,0.994,0.011,0.000,0.002,-0.004,0.000,0.000,0.000,0.000,0,2,0,2,7,255,1200,200,0,0,-89.351,0.864,-31.479
EX0521-092111,24,C21,prep,1426,1426,0,1180264.092,0.686,-0.675,0.196,0.188,0,0,0,0,0,0,0,0,0,0.000,0,0,0.069,0.003,-0.040,-0.040,-0.040,0.015,0.994,0.012,0.002,0.002,0.006,0.000,0.000,0.000,0.000,0,2,0,2,7,255,1200,200,0,0,-89.351,0.864,-31.479
EX0521-092111,24,C21,prep,1464,1464,0,1180269.092,0.686,-0.675,0.196,0.188,0,0,0,0,0,0,0,0,0,0.000,0,0,0.069,0.006,-0.040,-0.040,-0.040,0.014,0.994,0.013,0.002,-0.006,0.006,0.000,0.000,0.000,0.000,0,2,0,2,7,255,1200,200,0,0,-89.351,0.864,-31.479
EX0521-092111,24,C21,prep,1464,1464,0,1180274.091,0.686,-0.675,0.196,0.188,0,0,0,0,0,0,0,0,0,0.000,0,0,0.069,0.008,-0.040,-0.040,-0.040,0.013,0.994,0.011,-0.006,-0.006,0.002,0.000,0.000,0.000,0.000,0,2,0,2,7,255,1200,200,0,0,-89.351,0.864,-31.479
EX0521-092111,24,C21,prep,1464,1464,0,1180279.092,0.686,-0.675,0.196,0.188,0,0,0,0,0,0,0,0,0,0.000,0,0,0.060,0.008,0.020,-0.040,-0.040,0.014,0.994,0.012,-0.006,-0.006,0.002,0.000,0.000,0.000,0.000,0,2,0,2,7,255,1200,200,0,0,-89.351,0.864,-31.479
EX0521-092111,24,C21,prep,1464,1464,0,1180284.093,0.686,-0.675,0.196,0.188,0,0,0,0,0,0,0,0,0,0.000,0,0,0.110,0.007,0.020,-0.040,-0.100,0.014,0.994,0.011,-0.004,0.006,0.002,0.000,0.000,0.000,0.000,0,2,0,2,7,255,1200,200,0,0,-89.351,0.864,-31.479
EX0521-092111,24,C21,prep,1464,1464,0,1180289.092,0.686,-0.675,0.196,0.188,0,0,0,0,0,0,0,0,0,0.000,0,0,0.069,0.004,-0.040,-0.040,-0.040,0.015,0.992,0.011,0.004,0.000,0.002,0.000,0.000,0.000,0.000,0,2,0,2,7,255,1200,200,0,0,-89.351,0.864,-31.479
EX0521-092111,24,C21,prep,1464,1464,0,1180294.092,0.686,-0.675,0.196,0.188,0,0,0,0,0,0,0,0,0,0.000,0,0,0.069,0.006,-0.040,-0.040,-0.040,0.014,0.994,0.011,0.004,0.004,0.002,0.000,0.000,0.000,0.000,0,2,0,2,7,255,1200,200,0,0,-89.351,0.864,-31.479
EX0521-092111,24,C21,prep,1471,1471,0,1180299.092,0.686,-0.675,0.196,0.188,0,0,0,0,0,0,0,0,0,0.000,0,0,0.069,0.004,-0.040,-0.040,-0.040,0.014,0.993,0.012,-0.004,0.000,-0.004,0.000,0.000,0.000,0.000,0,2,0,2,7,255,1200,200,0,0,-89.351,0.864,-31.479
EX0521-092111,24,C21,prep,1471,1471,0,1180304.091,0.686,-0.675,0.196,0.188,0,0,0,0,0,0,0,0,0,0.000,0,0,0.110,0.007,0.020,-0.100,-0.040,0.013,0.993,0.012,-0.006,0.004,-0.004,0.000,0.000,0.000,0.000,0,2,0,2,7,255,1200,200,0,0,-89.351,0.864,-31.479
EX0521-092111,24,C21,prep,1471,1471,0,1180309.091,0.686,-0.675,0.196,0.188,0,0,0,0,0,0,0,0,0,0.000,0,0,0.060,0.006,-0.040,-0.020,-0.040,0.014,0.993,0.012,-0.006,0.000,-0.004,0.000,0.000,0.000,0.000,0,2,0,2,7,255,1200,200,0,0,-89.351,0.864,-31.479
EX0521-092111,24,C21,prep,1471,1471,0,1180314.091,0.686,-0.675,0.196,0.188,0,0,0,0,0,0,0,0,0,0.000,0,0,0.035,0.008,0.020,-0.020,0.020,0.014,0.993,0.010,-0.006,0.006,-0.004,0.000,0.000,0.000,0.000,0,2,0,2,7,255,1200,200,0,0,-89.351,0.864,-31.479
EX0521-092111,24,C21,prep,1501,1501,0,1180319.092,0.686,-0.675,0.196,0.188,0,0,0,0,0,0,0,0,0,0.000,0,0,0.049,0.006,0.020,-0.020,-0.040,0.014,0.994,0.011,-0.004,0.004,-0.004,0.000,0.000,0.000,0.000,0,2,0,2,7,255,1200,200,0,0,-89.351,0.864,-31.479
EX0521-092111,24,C21,prep,1501,1501,0,1180324.092,0.686,-0.675,0.196,0.188,0,0,0,0,0,0,0,0,0,0.000,0,0,0.035,0.004,0.020,-0.020,0.020,0.015,0.994,0.012,0.002,0.004,0.002,0.000,0.000,0.000,0.000,0,2,0,2,7,255,1200,200,0,0,-89.351,0.864,-31.479
EX0521-092111,24,C21,prep,1501,1501,0,1180329.092,0.686,-0.675,0.196,0.188,0,0,0,0,0,0,0,0,0,0.000,0,0,0.092,0.006,0.080,-0.020,-0.040,0.013,0.992,0.011,-0.004,0.004,0.002,0.000,0.000,0.000,0.000,0,2,0,2,7,255,1200,200,0,0,-89.351,0.864,-31.479
EX0521-092111,24,C21,prep,1501,1501,0,1180334.091,0.686,-0.675,0.196,0.188,0,0,0,0,0,0,0,0,0,0.000,0,0,0.049,0.006,0.020,-0.020,-0.040,0.014,0.994,0.011,-0.004,0.004,0.002,0.000,0.000,0.000,0.000,0,2,0,2,7,255,1200,200,0,0,-89.351,0.864,-31.479
EX0521-092111,24,C21,prep,1502,1502,0,1180339.091,0.686,-0.675,0.196,0.188,0,0,0,0,0,0,0,0,0,0.000,0,0,0.035,0.006,0.020,-0.020,0.020,0.015,0.993,0.011,-0.004,0.004,-0.004,0.000,0.000,0.000,0.000,0,2,0,2,7,255,1200,200,0,0,-89.351,0.864,-31.479
EX0521-092111,24,C21,prep,1502,1502,0,1180344.091,0.686,-0.675,0.196,0.188,0,0,0,0,0,0,0,0,0,0.000,0,0,0.049,0.006,0.020,-0.020,-0.040,0.013,0.993,0.011,-0.004,0.004,-0.004,0.000,0.000,0.000,0.000,0,2,0,2,7,255,1200,200,0,0,-89.351,0.864,-31.479
EX0521-092111,24,C21,prep,1531,1531,0,1180349.092,0.686,-0.675,0.196,0.188,0,0,0,0,0,0,0,0,0,0.000,0,0,0.092,0.009,0.080,-0.020,-0.040,0.014,0.993,0.012,-0.008,0.004,-0.008,0.000,0.000,0.000,0.000,0,2,0,2,7,255,1200,200,0,0,-89.351,0.864,-31.479
EX0521-092111,24,C21,prep,1531,1531,0,1180354.092,0.686,-0.675,0.196,0.188,0,0,0,0,0,0,0,0,0,0.000,0,0,0.092,0.009,0.020,-0.080,-0.040,0.015,0.993,0.012,-0.008,-0.004,-0.008,0.000,0.000,0.000,0.000,0,2,0,2,7,255,1200,200,0,0,-89.351,0.864,-31.479
EX0521-092111,24,C21,prep,1532,1532,0,1180359.092,0.686,-0.675,0.196,0.188,0,0,0,0,0,0,0,0,0,0.000,0,0,0.069,0.004,-0.040,0.040,-0.040,0.016,0.993,0.011,0.002,-0.004,-0.008,0.000,0.000,0.000,0.000,0,2,0,2,7,255,1200,200,0,0,-89.351,0.864,-31.479
EX0521-092111,24,C21,prep,1532,1532,0,1180364.093,0.686,-0.675,0.196,0.188,0,0,0,0,0,0,0,0,0,0.000,0,0,0.049,0.015,0.020,-0.020,-0.040,0.016,0.994,0.011,0.014,-0.004,-0.002,0.000,0.000,0.000,0.000,0,2,0,2,7,255,1200,200,0,0,-89.351,0.864,-31.479
EX0521-092111,24,C21,prep,1568,1568,0,1180369.091,0.686,-0.675,0.196,0.188,0,0,0,0,0,0,0,0,0,0.000,0,0,0.069,0.015,-0.040,0.040,-0.040,0.015,0.994,0.012,0.014,-0.004,0.002,0.000,0.000,0.000,0.000,0,2,0,2,7,255,1200,200,0,0,-89.351,0.864,-31.479
EX0521-092111,24,C21,prep,1568,1568,0,1180374.091,0.686,-0.675,0.196,0.188,0,0,0,0,0,0,0,0,0,0.000,0,0,0.060,0.004,-0.040,-0.020,-0.040,0.015,0.993,0.013,0.002,-0.004,0.002,0.000,0.000,0.000,0.000,0,2,0,2,7,255,1200,200,0,0,-89.351,0.864,-31.479
EX0521-092111,24,C21,prep,1568,1568,0,1180379.092,0.686,-0.675,0.196,0.188,0,0,0,0,0,0,0,0,0,0.000,0,0,0.049,0.004,-0.040,-0.020,0.020,0.015,0.993,0.012,0.002,-0.004,-0.002,0.000,0.000,0.000,0.000,0,2,0,2,7,255,1200,200,0,0,-89.351,0.864,-31.479
EX0521-092111,24,C21,prep,1568,1568,0,1180384.093,0.686,-0.675,0.196,0.188,0,0,0,0,0,0,0,0,0,0.000,0,0,0.060,0.006,-0.040,-0.020,-0.040,0.014,0.993,0.012,-0.002,-0.006,-0.002,0.000,0.000,0.000,0.000,0,2,0,2,7,255,1200,200,0,0,-89.351,0.864,-31.479
EX0521-092111,24,C21,prep,1568,1568,0,1180389.092,0.686,-0.675,0.196,0.188,0,0,0,0,0,0,0,0,0,0.000,0,0,0.049,0.006,0.020,-0.020,-0.040,0.014,0.993,0.012,-0.004,-0.004,-0.008,0.000,0.000,0.000,0.000,0,2,0,2,7,255,1200,200,0,0,-89.351,0.864,-31.479
EX0521-092111,24,C21,prep,1568,1568,0,1180394.092,0.686,-0.675,0.196,0.188,0,0,0,0,0,0,0,0,0,0.000,0,0,0.060,0.006,-0.040,-0.020,-0.040,0.015,0.993,0.012,-0.004,-0.004,-0.008,0.000,0.000,0.000,0.000,0,2,0,2,7,255,1200,200,0,0,-89.351,0.864,-31.479
EX0521-092111,24,C21,prep,1569,1569,0,1180399.092,0.686,-0.675,0.196,0.188,0,0,0,0,0,0,0,0,0,0.000,0,0,0.049,0.006,0.020,-0.020,-0.040,0.014,0.994,0.012,-0.004,-0.004,-0.002,0.000,0.000,0.000,0.000,0,2,0,2,7,255,1200,200,0,0,-89.351,0.864,-31.479
EX0521-092111,24,C21,prep,1569,1569,0,1180404.091,0.686,-0.675,0.196,0.188,0,0,0,0,0,0,0,0,0,0.000,0,0,0.115,0.006,-0.040,-0.100,-0.040,0.014,0.993,0.012,-0.004,-0.004,-0.002,0.000,0.000,0.000,0.000,0,2,0,2,7,255,1200,200,0,0,-89.351,0.864,-31.479
EX0521-092111,24,C21,prep,1570,1570,0,1180409.091,0.686,-0.675,0.196,0.188,0,0,0,0,0,0,0,0,0,0.000,0,0,0.060,0.006,0.020,-0.040,-0.040,0.014,0.992,0.012,-0.004,-0.004,-0.002,0.000,0.000,0.000,0.000,0,2,0,2,7,255,1200,200,0,0,-89.351,0.864,-31.479
EX0521-092111,24,C21,prep,1570,1570,0,1180414.092,0.686,-0.675,0.196,0.188,0,0,0,0,0,0,0,0,0,0.000,0,0,0.060,0.003,0.020,-0.040,-0.040,0.014,0.993,0.012,-0.002,-0.002,-0.008,0.000,0.000,0.000,0.000,0,2,0,2,7,255,1200,200,0,0,-89.351,0.864,-31.479
EX0521-092111,24,C21,prep,1583,1583,0,1180419.093,0.686,-0.675,0.196,0.188,0,0,0,0,0,0,0,0,0,0.000,0,0,0.060,0.003,-0.040,-0.040,0.020,0.015,0.993,0.012,-0.002,-0.002,-0.008,0.000,0.000,0.000,0.000,0,2,0,2,7,255,1200,200,0,0,-89.351,0.864,-31.479
EX0521-092111,24,C21,prep,1583,1583,0,1180424.092,0.686,-0.675,0.196,0.188,0,0,0,0,0,0,0,0,0,0.000,0,0,0.069,0.003,-0.040,-0.040,-0.040,0.014,0.994,0.012,-0.002,-0.002,-0.006,0.000,0.000,0.000,0.000,0,2,0,2,7,255,1200,200,0,0,-89.351,0.864,-31.479
EX0521-092111,24,C21,prep,1599,1599,0,1180429.091,0.686,-0.675,0.196,0.188,0,0,0,0,0,0,0,0,0,0.000,0,0,0.049,0.004,0.020,-0.040,0.020,0.014,0.993,0.012,-0.002,-0.004,-0.006,0.000,0.000,0.000,0.000,0,2,0,2,7,255,1200,200,0,0,-89.351,0.864,-31.479
EX0521-092111,24,C21,prep,1599,1599,0,1180434.091,0.686,-0.675,0.196,0.188,0,0,0,0,0,0,0,0,0,0.000,0,0,0.069,0.004,-0.040,-0.040,-0.040,0.015,0.994,0.012,-0.002,-0.004,0.002,0.000,0.000,0.000,0.000,0,2,0,2,7,255,1200,200,0,0,-89.351,0.864,-31.479
EX0521-092111,24,C21,prep,1599,1599,0,1180439.091,0.686,-0.675,0.196,0.188,0,0,0,0,0,0,0,0,0,0.000,0,0,0.060,0.004,0.020,-0.040,-0.040,0.014,0.994,0.011,0.002,-0.004,0.002,0.000,0.000,0.000,0.000,0,2,0,2,7,255,1200,200,0,0,-89.351,0.864,-31.479
EX0521-092111,24,C21,prep,1599,1599,0,1180444.092,0.686,-0.675,0.196,0.188,0,0,0,0,0,0,0,0,0,0.000,0,0,0.060,0.007,-0.040,-0.040,0.020,0.014,0.993,0.011,0.004,0.006,0.002,0.000,0.000,0.000,0.000,0,2,0,2,7,255,1200,200,0,0,-89.351,0.864,-31.479
EX0521-092111,24,C21,prep,1615,1615,0,1180449.092,0.686,-0.675,0.196,0.188,0,0,0,0,0,0,0,0,0,0.000,0,0,0.049,0.007,0.020,-0.040,0.020,0.014,0.993,0.012,0.004,0.006,-0.002,0.000,0.000,0.000,0.000,0,2,0,2,7,255,1200,200,0,0,-89.351,0.864,-31.479
EX0521-092111,24,C21,prep,1615,1615,0,1180454.092,0.686,-0.675,0.196,0.188,0,0,0,0,0,0,0,0,0,0.000,0,0,0.069,0.007,-0.040,-0.040,-0.040,0.014,0.993,0.011,0.004,0.006,-0.008,0.000,0.000,0.000,0.000,0,2,0,2,7,255,1200,200,0,0,-89.351,0.864,-31.479
EX0521-092111,24,C21,prep,1631,1631,0,1180459.092,0.686,-0.675,0.196,0.188,0,0,0,0,0,0,0,0,0,0.000,0,0,0.049,0.006,0.020,-0.020,-0.040,0.014,0.993,0.012,-0.004,-0.004,-0.002,0.000,0.000,0.000,0.000,0,2,0,2,7,255,1200,200,0,0,-89.351,0.864,-31.479
EX0521-092111,24,C21,prep,1631,1631,0,1180464.091,0.686,-0.675,0.196,0.188,0,0,0,0,0,0,0,0,0,0.000,0,0,0.060,0.007,-0.040,-0.020,-0.040,0.013,0.993,0.011,-0.004,0.006,-0.008,0.000,0.000,0.000,0.000,0,2,0,2,7,255,1200,200,0,0,-89.351,0.864,-31.479
EX0521-092111,24,C21,prep,1648,1648,0,1180469.091,0.686,-0.675,0.196,0.188,0,0,0,0,0,0,0,0,0,0.000,0,0,0.049,0.006,0.020,-0.020,-0.040,0.015,0.992,0.011,-0.004,0.004,-0.008,0.000,0.000,0.000,0.000,0,2,0,2,7,255,1200,200,0,0,-89.351,0.864,-31.479
EX0521-092111,24,C21,prep,1648,1648,0,1180474.092,0.686,-0.675,0.196,0.188,0,0,0,0,0,0,0,0,0,0.000,0,0,0.049,0.006,0.020,-0.020,-0.040,0.014,0.993,0.011,-0.004,0.004,-0.008,0.000,0.000,0.000,0.000,0,2,0,2,7,255,1200,200,0,0,-89.351,0.864,-31.479
EX0521-092111,24,C21,prep,1649,1649,0,1180479.093,0.686,-0.675,0.196,0.188,0,0,0,0,0,0,0,0,0,0.000,0,0,0.060,0.006,-0.040,-0.020,-0.040,0.013,0.993,0.012,-0.004,0.004,-0.002,0.000,0.000,0.000,0.000,0,2,0,2,7,255,1200,200,0,0,-89.351,0.864,-31.479
EX0521-092111,24,C21,prep,1649,1649,0,1180484.093,0.686,-0.675,0.196,0.188,0,0,0,0,0,0,0,0,0,0.000,0,0,0.049,0.006,0.020,-0.020,-0.040,0.015,0.992,0.012,-0.004,0.004,-0.002,0.000,0.000,0.000,0.000,0,2,0,2,7,255,1200,200,0,0,-89.351,0.864,-31.479
EX0521-092111,24,C21,prep,1649,1649,0,1180489.092,0.686,-0.675,0.196,0.188,0,0,0,0,0,0,0,0,0,0.000,0,0,0.049,0.004,0.020,-0.020,-0.040,0.015,0.993,0.012,0.000,-0.004,-0.002,0.000,0.000,0.000,0.000,0,2,0,2,7,255,1200,200,0,0,-89.351,0.864,-31.479
EX0521-092111,24,C21,prep,1649,1649,0,1180494.091,0.686,-0.675,0.196,0.188,0,0,0,0,0,0,0,0,0,0.000,0,0,0.060,0.004,-0.040,0.040,0.020,0.014,0.993,0.012,0.000,-0.004,-0.006,0.000,0.000,0.000,0.000,0,2,0,2,7,255,1200,200,0,0,-89.351,0.864,-31.479
EX0521-092111,24,C21,prep,1669,1669,0,1180499.091,0.686,-0.675,0.196,0.188,0,0,0,0,0,0,0,0,0,0.000,0,0,0.092,0.003,-0.040,-0.080,0.020,0.014,0.993,0.012,-0.002,-0.002,-0.002,0.000,0.000,0.000,0.000,0,2,0,2,7,255,1200,200,0,0,-89.351,0.864,-31.479
EX0521-092111,24,C21,prep,1669,1669,0,1180504.091,0.686,-0.675,0.196,0.188,0,0,0,0,0,0,0,0,0,0.000,0,0,0.069,0.002,-0.040,0.040,-0.040,0.015,0.992,0.011,-0.002,0.000,-0.006,0.000,0.000,0.000,0.000,0,2,0,2,7,255,1200,200,0,0,-89.351,0.864,-31.479
EX0521-092111,24,C21,prep,1679,1679,0,1180509.092,0.686,-0.675,0.196,0.188,0,0,0,0,0,0,0,0,0,0.000,0,0,0.069,0.006,-0.040,-0.040,-0.040,0.015,0.992,0.011,0.006,0.000,-0.012,0.000,0.000,0.000,0.000,0,2,0,2,7,255,1200,200,0,0,-89.351,0.864,-31.479
EX0521-092111,24,C21,prep,1679,1679,0,1180514.092,0.686,-0.675,0.196,0.188,0,0,0,0,0,0,0,0,0,0.000,0,0,0.069,0.006,-0.040,-0.040,-0.040,0.015,0.993,0.012,0.006,0.000,-0.012,0.000,0.000,0.000,0.000,0,2,0,2,7,255,1200,200,0,0,-89.351,0.864,-31.479
EX0521-092111,24,C21,prep,1679,1679,0,1180519.092,0.686,-0.675,0.196,0.188,0,0,0,0,0,0,0,0,0,0.000,0,0,0.060,0.003,0.020,-0.040,-0.040,0.014,0.992,0.012,0.002,-0.002,-0.010,0.000,0.000,0.000,0.000,0,2,0,2,7,255,1200,200,0,0,-89.351,0.864,-31.479
EX0521-092111,24,C21,prep,1679,1679,0,1180524.091,0.686,-0.675,0.196,0.188,0,0,0,0,0,0,0,0,0,0.000,0,0,0.049,0.004,0.020,-0.040,0.020,0.015,0.993,0.012,0.000,-0.004,-0.006,0.000,0.000,0.000,0.000,0,2,0,2,7,255,1200,200,0,0,-89.351,0.864,-31.479
EX0521-092111,24,C21,prep,1695,1695,0,1180529.091,0.686,-0.675,0.196,0.188,0,0,0,0,0,0,0,0,0,0.000,0,0,0.060,0.002,-0.040,-0.040,0.020,0.014,0.993,0.011,0.000,-0.002,-0.006,0.000,0.000,0.000,0.000,0,2,0,2,7,255,1200,200,0,0,-89.351,0.864,-31.479
EX0521-092111,24,C21,prep,1695,1695,0,1180534.091,0.686,-0.675,0.196,0.188,0,0,0,0,0,0,0,0,0,0.000,0,0,0.069,0.002,-0.040,0.040,-0.040,0.013,0.993,0.012,0.000,0.002,-0.006,0.000,0.000,0.000,0.000,0,2,0,2,7,255,1200,200,0,0,-89.351,0.864,-31.479
EX0521-092111,24,C21,prep,1711,1711,0,1180539.092,0.686,-0.675,0.196,0.188,0,0,0,0,0,0,0,0,0,0.000,0,0,0.060,0.008,0.020,-0.040,-0.040,0.014,0.993,0.012,-0.008,0.002,-0.006,0.000,0.000,0.000,0.000,0,2,0,2,7,255,1200,200,0,0,-89.351,0.864,-31.479
EX0521-092111,24,C21,prep,1711,1711,0,1180544.092,0.686,-0.675,0.196,0.188,0,0,0,0,0,0,0,0,0,0.000,0,0,0.069,0.008,-0.040,-0.040,-0.040,0.014,0.992,0.011,-0.008,0.002,-0.006,0.000,0.000,0.000,0.000,0,2,0,2,7,255,1200,200,0,0,-89.351,0.864,-31.479
EX0521-092111,24,C21,prep,1711,1711,0,1180549.092,0.686,-0.675,0.196,0.188,0,0,0,0,0,0,0,0,0,0.000,0,0,0.060,0.003,0.020,-0.040,-0.040,0.014,0.993,0.011,0.002,0.002,-0.006,0.000,0.000,0.000,0.000,0,2,0,2,7,255,1200,200,0,0,-89.351,0.864,-31.479
EX0521-092111,24,C21,prep,1711,1711,0,1180554.092,0.686,-0.675,0.196,0.188,0,0,0,0,0,0,0,0,0,0.000,0,0,0.049,0.003,0.020,-0.040,0.020,0.013,0.993,0.012,0.002,0.002,-0.006,0.000,0.000,0.000,0.000,0,2,0,2,7,255,1200,200,0,0,-89.351,0.864,-31.479
EX0521-092111,24,C21,prep,1727,1727,0,1180559.092,0.686,-0.675,0.196,0.188,0,0,0,0,0,0,0,0,0,0.000,0,0,0.060,0.008,0.020,-0.040,-0.040,0.014,0.993,0.012,-0.008,0.002,-0.006,0.000,0.000,0.000,0.000,0,2,0,2,7,255,1200,200,0,0,-89.351,0.864,-31.479
EX0521-092111,24,C21,prep,1727,1727,0,1180564.093,0.686,-0.675,0.196,0.188,0,0,0,0,0,0,0,0,0,0.000,0,0,0.060,0.010,0.020,-0.040,-0.040,0.013,0.993,0.012,-0.010,0.002,-0.006,0.000,0.000,0.000,0.000,0,2,0,2,7,255,1200,200,0,0,-89.351,0.864,-31.479
EX0521-092111,24,C21,prep,1768,1768,0,1180569.091,0.686,-0.675,0.196,0.188,0,0,0,0,0,0,0,0,0,0.000,0,0,0.049,0.008,0.020,0.040,0.020,0.014,0.991,0.011,-0.008,0.002,-0.006,0.000,0.000,0.000,0.000,0,2,0,2,7,255,1200,200,0,0,-89.351,0.864,-31.479
EX0521-092111,24,C21,prep,1768,1768,0,1180574.092,0.686,-0.675,0.196,0.188,0,0,0,0,0,0,0,0,0,0.000,0,0,0.069,0.003,-0.040,-0.040,-0.040,0.014,0.992,0.012,-0.002,0.002,-0.014,0.000,0.000,0.000,0.000,0,2,0,2,7,255,1200,200,0,0,-89.351,0.864,-31.479
EX0521-092111,24,C21,prep,1768,1768,0,1180579.092,0.686,-0.675,0.196,0.188,0,0,0,0,0,0,0,0,0,0.000,0,0,0.110,0.002,0.020,-0.100,-0.040,0.014,0.993,0.012,-0.002,0.000,-0.014,0.000,0.000,0.000,0.000,0,2,0,2,7,255,1200,200,0,0,-89.351,0.864,-31.479
EX0521-092111,24,C21,prep,1768,1768,0,1180584.093,0.686,-0.675,0.196,0.188,0,0,0,0,0,0,0,0,0,0.000,0,0,0.110,0.002,0.020,-0.100,-0.040,0.015,0.991,0.012,0.000,-0.002,-0.014,0.000,0.000,0.000,0.000,0,2,0,2,7,255,1200,200,0,0,-89.351,0.864,-31.479
EX0521-092111,24,C21,prep,1768,1768,0,1180589.091,0.686,-0.675,0.196,0.188,0,0,0,0,0,0,0,0,0,0.000,0,0,0.060,0.000,0.020,-0.040,-0.040,0.014,0.994,0.011,0.000,0.000,0.000,0.000,0.000,0.000,0.000,0,2,0,2,7,255,1200,200,0,0,-89.351,0.864,-31.479
EX0521-092111,24,C21,prep,1768,1768,0,1180594.091,0.686,-0.675,0.196,0.188,0,0,0,0,0,0,0,0,0,0.000,0,0,0.069,0.002,-0.040,-0.040,-0.040,0.015,0.993,0.011,0.002,0.000,0.000,0.000,0.000,0.000,0.000,0,2,0,2,7,255,1200,200,0,0,-89.351,0.864,-31.479
EX0521-092111,24,C21,prep,1768,1768,0,1180599.091,0.686,-0.675,0.196,0.188,0,0,0,0,0,0,0,0,0,0.000,0,0,0.049,0.004,0.020,-0.040,0.020,0.014,0.994,0.011,0.004,0.002,0.004,0.000,0.000,0.000,0.000,0,2,0,2,7,255,1200,200,0,0,-89.351,0.864,-31.479
EX0521-092111,24,C21,prep,1768,1768,0,1180604.092,0.686,-0.675,0.196,0.188,0,0,0,0,0,0,0,0,0,0.000,0,0,0.060,0.004,0.020,-0.040,-0.040,0.014,0.993,0.012,0.004,0.000,0.000,0.000,0.000,0.000,0.000,0,2,0,2,7,255,1200,200,0,0,-89.351,0.864,-31.479
EX0521-092111,24,C21,prep,1770,1770,0,1180609.092,0.686,-0.675,0.196,0.188,0,0,0,0,0,0,0,0,0,0.000,0,0,0.110,0.003,0.020,-0.100,-0.040,0.014,0.993,0.012,-0.002,-0.002,0.000,0.000,0.000,0.000,0.000,0,2,0,2,7,255,1200,200,0,0,-89.351,0.864,-31.479
EX0521-092111,24,C21,prep,1770,1770,0,1180614.092,0.686,-0.675,0.196,0.188,0,0,0,0,0,0,0,0,0,0.000,0,0,0.104,0.003,0.020,-0.100,0.020,0.015,0.993,0.011,-0.002,-0.002,0.000,0.000,0.000,0.000,0.000,0,2,0,2,7,255,1200,200,0,0,-89.351,0.864,-31.479
EX0521-092111,24,C21,prep,1775,1775,0,1180619.092,0.686,-0.675,0.196,0.188,0,0,0,0,0,0,0,0,0,0.000,0,0,0.049,0.003,0.020,-0.040,0.020,0.014,0.991,0.013,-0.002,-0.002,0.000,0.000,0.000,0.000,0.000,0,2,0,2,7,255,1200,200,0,0,-89.351,0.864,-31.479
EX0521-092111,24,C21,prep,1775,1775,0,1180624.091,0.686,-0.675,0.196,0.188,0,0,0,0,0,0,0,0,0,0.000,0,0,0.060,0.006,0.020,-0.040,-0.040,0.015,0.992,0.011,0.006,0.000,-0.014,0.000,0.000,0.000,0.000,0,2,0,2,7,255,1200,200,0,0,-89.351,0.864,-31.479
EX0521-092111,24,C21,prep,1801,1801,0,1180629.091,0.686,-0.675,0.196,0.188,0,0,0,0,0,0,0,0,0,0.000,0,0,0.049,0.006,0.020,-0.040,0.020,0.014,0.993,0.011,0.004,0.004,-0.014,0.000,0.000,0.000,0.000,0,2,0,2,7,255,1200,200,0,0,-89.351,0.864,-31.479
EX0521-092111,24,C21,prep,1801,1801,0,1180634.092,0.686,-0.675,0.196,0.188,0,0,0,0,0,0,0,0,0,0.000,0,0,0.060,0.009,-0.040,-0.040,0.020,0.015,0.992,0.011,0.008,0.004,-0.010,0.000,0.000,0.000,0.000,0,2,0,2,7,255,1200,200,0,0,-89.351,0.864,-31.479
EX0521-092111,24,C21,prep,1807,1807,0,1180639.092,0.686,-0.675,0.196,0.188,0,0,0,0,0,0,0,0,0,0.000,0,0,0.060,0.006,-0.040,0.020,-0.040,0.014,0.993,0.011,0.004,0.004,-0.004,0.000,0.000,0.000,0.000,0,2,0,2,7,255,1200,200,0,0,-89.351,0.864,-31.479
EX0521-092111,24,C21,prep,1807,1807,0,1180644.092,0.686,-0.675,0.196,0.188,0,0,0,0,0,0,0,0,0,0.000,0,0,0.060,0.006,0.020,-0.040,-0.040,0.015,0.992,0.011,0.006,0.000,-0.010,0.000,0.000,0.000,0.000,0,2,0,2,7,255,1200,200,0,0,-89.351,0.864,-31.479
EX0521-092111,24,C21,prep,1807,1807,0,1180649.092,0.686,-0.675,0.196,0.188,0,0,0,0,0,0,0,0,0,0.000,0,0,0.049,0.002,0.020,0.020,-0.040,0.014,0.993,0.012,-0.002,0.000,0.000,0.000,0.000,0.000,0.000,0,2,0,2,7,255,1200,200,0,0,-89.351,0.864,-31.479
EX0521-092111,24,C21,prep,1807,1807,0,1180654.091,0.686,-0.675,0.196,0.188,0,0,0,0,0,0,0,0,0,0.000,0,0,0.069,0.004,-0.040,-0.040,-0.040,0.014,0.993,0.010,0.004,0.000,0.000,0.000,0.000,0.000,0.000,0,2,0,2,7,255,1200,200,0,0,-89.351,0.864,-31.479
EX0521-092111,24,C21,prep,1840,1840,0,1180659.091,0.686,-0.675,0.196,0.188,0,0,0,0,0,0,0,0,0,0.000,0,0,0.060,0.003,-0.040,-0.020,-0.040,0.014,0.993,0.011,0.002,0.002,0.000,0.000,0.000,0.000,0.000,0,2,0,2,7,255,1200,200,0,0,-89.351,0.864,-31.479
EX0521-092111,24,C21,prep,1840,1840,0,1180664.092,0.686,-0.675,0.196,0.188,0,0,0,0,0,0,0,0,0,0.000,0,0,0.069,0.003,-0.040,0.040,-0.040,0.015,0.992,0.012,0.002,0.002,0.000,0.000,0.000,0.000,0.000,0,2,0,2,7,255,1200,200,0,0,-89.351,0.864,-31.479
EX0521-092111,24,C21,prep,1876,1876,0,1180669.092,0.686,-0.675,0.196,0.188,0,0,0,0,0,0,0,0,0,0.000,0,0,0.104,0.003,-0.100,-0.020,0.020,0.014,0.992,0.010,0.002,0.002,-0.010,0.000,0.000,0.000,0.000,0,2,0,2,7,255,1200,200,0,0,-89.351,0.864,-31.479
EX0521-092111,24,C21,prep,1876,1876,0,1180674.092,0.686,-0.675,0.196,0.188,0,0,0,0,0,0,0,0,0,0.000,0,0,0.092,0.004,0.020,-0.080,-0.040,0.015,0.992,0.011,0.004,0.000,-0.010,0.000,0.000,0.000,0.000,0,2,0,2,7,255,1200,200,0,0,-89.351,0.864,-31.479
EX0521-092111,24,C21,prep,1876,1876,0,1180679.092,0.686,-0.675,0.196,0.188,0,0,0,0,0,0,0,0,0,0.000,0,0,0.049,0.004,0.020,-0.020,-0.040,0.014,0.993,0.012,0.004,0.000,-0.010,0.000,0.000,0.000,0.000,0,2,0,2,7,255,1200,200,0,0,-89.351,0.864,-31.479
EX0521-092111,24,C21,prep,1876,1876,0,1180684.093,0.686,-0.675,0.196,0.188,0,0,0,0,0,0,0,0,0,0.000,0,0,0.049,0.004,0.020,-0.020,-0.040,0.014,0.993,0.012,-0.004,0.000,-0.004,0.000,0.000,0.000,0.000,0,2,0,2,7,255,1200,200,0,0,-89.351,0.864,-31.479
EX0521-092111,24,C21,prep,1876,1876,0,1180689.091,0.686,-0.675,0.196,0.188,0,0,0,0,0,0,0,0,0,0.000,0,0,0.035,0.004,0.020,-0.020,0.020,0.014,0.993,0.012,-0.004,-0.002,-0.004,0.000,0.000,0.000,0.000,0,2,0,2,7,255,1200,200,0,0,-89.351,0.864,-31.479
EX0521-092111,24,C21,prep,1876,1876,0,1180694.091,0.686,-0.675,0.196,0.188,0,0,0,0,0,0,0,0,0,0.000,0,0,0.035,0.004,0.020,-0.020,0.020,0.014,0.993,0.012,-0.004,-0.002,-0.004,0.000,0.000,0.000,0.000,0,2,0,2,7,255,1200,200,0,0,-89.351,0.864,-31.479
EX0521-092111,24,C21,prep,1878,1878,0,1180699.092,0.686,-0.675,0.196,0.188,0,0,0,0,0,0,0,0,0,0.000,0,0,0.049,0.002,0.020,-0.020,-0.040,0.015,0.994,0.011,-0.002,0.000,-0.004,0.000,0.000,0.000,0.000,0,2,0,2,7,255,1200,200,0,0,-89.351,0.864,-31.479
EX0521-092111,24,C21,prep,1878,1878,0,1180704.092,0.686,-0.675,0.196,0.188,0,0,0,0,0,0,0,0,0,0.000,0,0,0.060,0.004,-0.040,-0.020,-0.040,0.014,0.993,0.011,-0.002,0.004,0.000,0.000,0.000,0.000,0.000,0,2,0,2,7,255,1200,200,0,0,-89.351,0.864,-31.479
EX0521-092111,24,C21,prep,1879,1879,0,1180709.092,0.686,-0.675,0.196,0.188,0,0,0,0,0,0,0,0,0,0.000,0,0,0.060,0.004,-0.040,-0.020,-0.040,0.014,0.993,0.012,-0.002,0.004,0.000,0.000,0.000,0.000,0.000,0,2,0,2,7,255,1200,200,0,0,-89.351,0.864,-31.479
EX0521-092111,24,C21,prep,1879,1879,0,1180714.091,0.686,-0.675,0.196,0.188,0,0,0,0,0,0,0,0,0,0.000,0,0,0.035,0.003,0.020,-0.020,0.020,0.014,0.992,0.011,-0.002,0.002,-0.004,0.000,0.000,0.000,0.000,0,2,0,2,7,255,1200,200,0,0,-89.351,0.864,-31.479
EX0521-092111,24,C21,prep,1902,1902,0,1180719.092,0.686,-0.675,0.196,0.188,0,0,0,0,0,0,0,0,0,0.000,0,0,0.049,0.002,0.020,-0.020,-0.040,0.014,0.993,0.011,0.000,0.002,-0.004,0.000,0.000,0.000,0.000,0,2,0,2,7,255,1200,200,0,0,-89.351,0.864,-31.479
EX0521-092111,24,C21,prep,1902,1902,0,1180724.091,0.686,-0.675,0.196,0.188,0,0,0,0,0,0,0,0,0,0.000,0,0,0.035,0.002,0.020,-0.020,0.020,0.014,0.993,0.012,0.000,0.002,-0.004,0.000,0.000,0.000,0.000,0,2,0,2,7,255,1200,200,0,0,-89.351,0.864,-31.479
EX0521-092111,24,C21,prep,1902,1902,0,1180729.092,0.686,-0.675,0.196,0.188,0,0,0,0,0,0,0,0,0,0.000,0,0,0.035,0.000,0.020,-0.020,0.020,0.015,0.993,0.011,0.000,0.000,-0.004,0.000,0.000,0.000,0.000,0,2,0,2,7,255,1200,200,0,0,-89.351,0.864,-31.479
EX0521-092111,24,C21,prep,1902,1902,0,1180734.092,0.686,-0.675,0.196,0.188,0,0,0,0,0,0,0,0,0,0.000,0,0,0.049,0.006,-0.040,-0.020,0.020,0.015,0.993,0.012,0.006,0.000,-0.004,0.000,0.000,0.000,0.000,0,2,0,2,7,255,1200,200,0,0,-89.351,0.864,-31.479
EX0521-092111,24,C21,prep,1903,1903,0,1180739.092,0.686,-0.675,0.196,0.188,0,0,0,0,0,0,0,0,0,0.000,0,0,0.143,0.006,-0.100,-0.020,-0.100,0.014,0.991,0.011,0.006,0.000,-0.004,0.000,0.000,0.000,0.000,0,2,0,2,7,255,1200,200,0,0,-89.351,0.864,-31.479
EX0521-092111,24,C21,prep,1903,1903,0,1180744.092,0.686,-0.675,0.196,0.188,0,0,0,0,0,0,0,0,0,0.000,0,0,0.035,0.009,0.020,-0.020,0.020,0.015,0.992,0.012,0.004,-0.008,-0.008,0.000,0.000,0.000,0.000,0,2,0,2,7,255,1200,200,0,0,-89.351,0.864,-31.479
EX0521-092111,24,C21,prep,1923,1923,0,1180749.091,0.686,-0.675,0.196,0.188,0,0,0,0,0,0,0,0,0,0.000,0,0,0.049,0.008,0.020,-0.020,-0.040,0.015,0.992,0.012,0.000,-0.008,-0.008,0.000,0.000,0.000,0.000,0,2,0,2,7,255,1200,200,0,0,-89.351,0.864,-31.479
EX0521-092111,24,C21,prep,1923,1923,0,1180754.091,0.686,-0.675,0.196,0.188,0,0,0,0,0,0,0,0,0,0.000,0,0,0.049,0.008,0.020,-0.020,-0.040,0.013,0.994,0.011,0.000,-0.008,-0.008,0.000,0.000,0.000,0.000,0,2,0,2,7,255,1200,200,0,0,-89.351,0.864,-31.479
EX0521-092111,24,C21,prep,1923,1923,0,1180759.092,0.686,-0.675,0.196,0.188,0,0,0,0,0,0,0,0,0,0.000,0,0,0.060,0.000,0.020,-0.040,-0.040,0.015,0.993,0.011,0.000,0.000,0.002,0.000,0.000,0.000,0.000,0,2,0,2,7,255,1200,200,0,0,-89.351,0.864,-31.479
EX0521-092111,24,C21,prep,1923,1923,0,1180764.093,0.686,-0.675,0.196,0.188,0,0,0,0,0,0,0,0,0,0.000,0,0,0.060,0.002,-0.040,-0.040,0.020,0.015,0.993,0.012,0.002,0.000,0.002,0.000,0.000,0.000,0.000,0,2,0,2,7,255,1200,200,0,0,-89.351,0.864,-31.479
EX0521-092111,24,C21,prep,1966,1966,0,1180769.092,0.686,-0.675,0.196,0.188,0,0,0,0,0,0,0,0,0,0.000,0,0,0.060,0.004,-0.040,0.040,0.020,0.015,0.993,0.012,0.002,-0.004,-0.004,0.000,0.000,0.000,0.000,0,2,0,2,7,255,1200,200,0,0,-89.351,0.864,-31.479
EX0521-092111,24,C21,prep,1966,1966,0,1180774.092,0.686,-0.675,0.196,0.188,0,0,0,0,0,0,0,0,0,0.000,0,0,0.060,0.004,0.020,-0.040,-0.040,0.015,0.994,0.011,0.002,-0.004,-0.004,0.000,0.000,0.000,0.000,0,2,0,2,7,255,1200,200,0,0,-89.351,0.864,-31.479
EX0521-092111,24,C21,prep,1966,1966,0,1180779.093,0.686,-0.675,0.196,0.188,0,0,0,0,0,0,0,0,0,0.000,0,0,0.060,0.006,0.020,-0.040,-0.040,0.014,0.994,0.011,0.004,0.004,0.006,0.000,0.000,0.000,0.000,0,2,0,2,7,255,1200,200,0,0,-89.351,0.864,-31.479
EX0521-092111,24,C21,prep,1966,1966,0,1180784.093,0.686,-0.675,0.196,0.188,0,0,0,0,0,0,0,0,0,0.000,0,0,0.060,0.006,0.020,-0.040,-0.040,0.014,0.992,0.011,0.004,0.004,0.006,0.000,0.000,0.000,0.000,0,2,0,2,7,255,1200,200,0,0,-89.351,0.864,-31.479
EX0521-092111,24,C21,prep,1966,1966,0,1180789.091,0.686,-0.675,0.196,0.188,0,0,0,0,0,0,0,0,0,0.000,0,0,0.069,0.006,-0.040,-0.040,-0.040,0.014,0.992,0.012,-0.004,0.004,-0.014,0.000,0.000,0.000,0.000,0,2,0,2,7,255,1200,200,0,0,-89.351,0.864,-31.479
EX0521-092111,24,C21,prep,1966,1966,0,1180794.092,0.686,-0.675,0.196,0.188,0,0,0,0,0,0,0,0,0,0.000,0,0,0.060,0.004,-0.040,0.040,0.020,0.014,0.993,0.011,-0.004,0.002,-0.014,0.000,0.000,0.000,0.000,0,2,0,2,7,255,1200,200,0,0,-89.351,0.864,-31.479
EX0521-092111,24,C21,prep,1967,1967,0,1180799.092,0.686,-0.675,0.196,0.188,0,0,0,0,0,0,0,0,0,0.000,0,0,0.060,0.008,0.020,-0.040,-0.040,0.013,0.993,0.012,-0.008,0.002,-0.004,0.000,0.000,0.000,0.000,0,2,0,2,7,255,1200,200,0,0,-89.351,0.864,-31.479
EX0521-092111,24,C21,prep,1967,1967,0,1180804.092,0.686,-0.675,0.196,0.188,0,0,0,0,0,0,0,0,0,0.000,0,0,0.060,0.003,0.020,-0.040,-0.040,0.015,0.993,0.012,0.002,0.002,0.002,0.000,0.000,0.000,0.000,0,2,0,2,7,255,1200,200,0,0,-89.351,0.864,-31.479
EX0521-092111,24,C21,prep,1968,1968,0,1180809.091,0.686,-0.675,0.196,0.188,0,0,0,0,0,0,0,0,0,0.000,0,0,0.069,0.010,-0.040,-0.040,-0.040,0.013,0.993,0.012,-0.010,-0.002,0.002,0.000,0.000,0.000,0.000,0,2,0,2,7,255,1200,200,0,0,-89.351,0.864,-31.479
EX0521-092111,24,C21,prep,1968,1968,0,1180814.091,0.686,-0.675,0.196,0.188,0,0,0,0,0,0,0,0,0,0.000,0,0,0.049,0.003,0.020,-0.040,0.020,0.014,0.995,0.011,0.002,-0.002,0.002,0.000,0.000,0.000,0.000,0,2,0,2,7,255,1200,200,0,0,-89.351,0.864,-31.479
EX0521-092111,24,C21,prep,1984,1984,0,1180819.092,0.686,-0.675,0.196,0.188,0,0,0,0,0,0,0,0,0,0.000,0,0,0.069,0.008,-0.040,-0.040,-0.040,0.014,0.993,0.012,-0.008,-0.002,0.002,0.000,0.000,0.000,0.000,0,2,0,2,7,255,1200,200,0,0,-89.351,0.864,-31.479
EX0521-092111,24,C21,prep,1984,1984,0,1180824.092,0.686,-0.675,0.196,0.188,0,0,0,0,0,0,0,0,0,0.000,0,0,0.060,0.006,0.020,0.040,-0.040,0.014,0.993,0.012,-0.004,-0.004,0.002,0.000,0.000,0.000,0.000,0,2,0,2,7,255,1200,200,0,0,-89.351,0.864,-31.479
EX0521-092111,24,C21,prep,2000,2000,0,1180829.092,0.686,-0.675,0.196,0.188,0,0,0,0,0,0,0,0,0,0.000,0,0,0.060,0.007,0.020,-0.040,-0.040,0.013,0.993,0.011,-0.006,-0.004,-0.004,0.000,0.000,0.000,0.000,0,2,0,2,7,255,1200,200,0,0,-89.351,0.864,-31.479
EX0521-092111,24,C21,prep,2000,2000,0,1180834.092,0.686,-0.675,0.196,0.188,0,0,0,0,0,0,0,0,0,0.000,0,0,0.060,0.010,-0.040,-0.040,0.020,0.013,0.993,0.011,-0.006,0.008,-0.004,0.000,0.000,0.000,0.000,0,2,0,2,7,255,1200,200,0,0,-89.351,0.864,-31.479
EX0521-092111,24,C21,prep,2001,2001,0,1180839.091,0.686,-0.675,0.196,0.188,0,0,0,0,0,0,0,0,0,0.000,0,0,0.069,0.010,-0.040,-0.040,-0.040,0.015,0.993,0.011,-0.006,0.008,-0.004,0.000,0.000,0.000,0.000,0,2,0,2,7,255,1200,200,0,0,-89.351,0.864,-31.479
EX0521-092111,24,C21,prep,2001,2001,0,1180844.091,0.686,-0.675,0.196,0.188,0,0,0,0,0,0,0,0,0,0.000,0,0,0.069,0.009,-0.040,-0.040,-0.040,0.015,0.993,0.011,0.008,0.004,-0.004,0.000,0.000,0.000,0.000,0,2,0,2,7,255,1200,200,0,0,-89.351,0.864,-31.479
EX0521-092111,24,C21,prep,2016,2016,0,1180849.091,0.686,-0.675,0.196,0.188,0,0,0,0,0,0,0,0,0,0.000,0,0,0.060,0.008,0.020,-0.040,-0.040,0.015,0.994,0.012,0.008,0.002,-0.004,0.000,0.000,0.000,0.000,0,2,0,2,7,255,1200,200,0,0,-89.351,0.864,-31.479
EX0521-092111,24,C21,prep,2016,2016,0,1180854.092,0.686,-0.675,0.196,0.188,0,0,0,0,0,0,0,0,0,0.000,0,0,0.110,0.009,0.020,-0.100,-0.040,0.016,0.993,0.012,0.008,-0.004,-0.004,0.000,0.000,0.000,0.000,0,2,0,2,7,255,1200,200,0,0,-89.351,0.864,-31.479
EX0521-092111,24,C21,prep,2016,2016,0,1180859.092,0.686,-0.675,0.196,0.188,0,0,0,0,0,0,0,0,0,0.000,0,0,0.060,0.004,0.020,0.040,-0.040,0.014,0.993,0.012,0.002,-0.004,0.002,0.000,0.000,0.000,0.000,0,2,0,2,7,255,1200,200,0,0,-89.351,0.864,-31.479
EX0521-092111,24,C21,prep,2016,2016,0,1180864.092,0.686,-0.675,0.196,0.188,0,0,0,0,0,0,0,0,0,0.000,0,0,0.049,0.010,0.020,-0.020,-0.040,0.015,0.993,0.010,0.010,0.000,0.002,0.000,0.000,0.000,0.000,0,2,0,2,7,255,1200,200,0,0,-89.351,0.864,-31.479
EX0521-092111,24,C21,prep,2048,2048,0,1180869.092,0.686,-0.675,0.196,0.188,0,0,0,0,0,0,0,0,0,0.000,0,0,0.060,0.006,0.020,0.040,-0.040,0.015,0.992,0.012,0.006,0.000,0.002,0.000,0.000,0.000,0.000,0,2,0,2,7,255,1200,200,0,0,-89.351,0.864,-31.479
EX0521-092111,24,C21,prep,2048,2048,0,1180874.091,0.686,-0.675,0.196,0.188,0,0,0,0,0,0,0,0,0,0.000,0,0,0.049,0.008,-0.040,-0.020,0.020,0.014,0.993,0.012,0.006,-0.006,0.002,0.000,0.000,0.000,0.000,0,2,0,2,7,255,1200,200,0,0,-89.351,0.864,-31.479
EX0521-092111,24,C21,prep,2048,2048,0,1180879.092,0.686,-0.675,0.196,0.188,0,0,0,0,0,0,0,0,0,0.000,0,0,0.060,0.008,-0.040,-0.020,-0.040,0.015,0.993,0.012,0.006,-0.006,-0.004,0.000,0.000,0.000,0.000,0,2,0,2,7,255,1200,200,0,0,-89.351,0.864,-31.479
EX0521-092111,24,C21,prep,2048,2048,0,1180884.093,0.686,-0.675,0.196,0.188,0,0,0,0,0,0,0,0,0,0.000,0,0,0.098,0.008,0.080,0.040,-0.040,0.015,0.992,0.011,0.006,-0.006,-0.004,0.000,0.000,0.000,0.000,0,2,0,2,7,255,1200,200,0,0,-89.351,0.864,-31.479
EX0521-092111,24,C21,prep,2048,2048,0,1180889.092,0.686,-0.675,0.196,0.188,0,0,0,0,0,0,0,0,0,0.000,0,0,0.092,0.006,0.080,-0.020,-0.040,0.014,0.994,0.012,0.006,-0.002,-0.004,0.000,0.000,0.000,0.000,0,2,0,2,7,255,1200,200,0,0,-89.351,0.864,-31.479
EX0521-092111,24,C21,prep,2048,2048,0,1180894.092,0.686,-0.675,0.196,0.188,0,0,0,0,0,0,0,0,0,0.000,0,0,0.060,0.002,-0.040,-0.020,-0.040,0.014,0.992,0.011,0.000,-0.002,-0.008,0.000,0.000,0.000,0.000,0,2,0,2,7,255,1200,200,0,0,-89.351,0.864,-31.479
EX0521-092111,24,C21,prep,2069,2069,0,1180899.092,0.686,-0.675,0.196,0.188,0,0,0,0,0,0,0,0,0,0.000,0,0,0.049,0.003,0.020,-0.020,-0.040,0.013,0.992,0.012,-0.002,-0.002,-0.008,0.000,0.000,0.000,0.000,0,2,0,2,7,255,1200,200,0,0,-89.351,0.864,-31.479
EX0521-092111,24,C21,prep,2069,2069,0,1180904.091,0.686,-0.675,0.196,0.188,0,0,0,0,0,0,0,0,0,0.000,0,0,0.049,0.002,0.020,-0.020,-0.040,0.016,0.994,0.012,0.000,-0.002,-0.008,0.000,0.000,0.000,0.000,0,2,0,2,7,255,1200,200,0,0,-89.351,0.864,-31.479
EX0521-092111,24,C21,prep,2070,2070,0,1180909.091,0.686,-0.675,0.196,0.188,0,0,0,0,0,0,0,0,0,0.000,0,0,0.060,0.006,0.020,0.040,-0.040,0.014,0.994,0.012,-0.006,-0.002,0.006,0.000,0.000,0.000,0.000,0,2,0,2,7,255,1200,200,0,0,-89.351,0.864,-31.479
EX0521-092111,24,C21,prep,2070,2070,0,1180914.092,0.686,-0.675,0.196,0.188,0,0,0,0,0,0,0,0,0,0.000,0,0,0.069,0.003,-0.040,0.040,-0.040,0.014,0.993,0.012,-0.002,-0.002,0.006,0.000,0.000,0.000,0.000,0,2,0,2,7,255,1200,200,0,0,-89.351,0.864,-31.479
EX0521-092111,24,C21,prep,2079,2079,0,1180919.093,0.686,-0.675,0.196,0.188,0,0,0,0,0,0,0,0,0,0.000,0,0,0.069,0.002,-0.040,-0.040,-0.040,0.014,0.993,0.011,-0.002,0.000,-0.004,0.000,0.000,0.000,0.000,0,2,0,2,7,255,1200,200,0,0,-89.351,0.864,-31.479
EX0521-092111,24,C21,prep,2079,2079,0,1180924.092,0.686,-0.675,0.196,0.188,0,0,0,0,0,0,0,0,0,0.000,0,0,0.049,0.003,0.020,0.040,0.020,0.015,0.994,0.012,0.002,-0.002,-0.004,0.000,0.000,0.000,0.000,0,2,0,2,7,255,1200,200,0,0,-89.351,0.864,-31.479
EX0521-092111,24,C21,prep,2099,2099,0,1180929.092,0.686,-0.675,0.196,0.188,0,0,0,0,0,0,0,0,0,0.000,0,0,0.060,0.004,0.020,-0.040,-0.040,0.015,0.993,0.011,0.004,-0.002,0.002,0.000,0.000,0.000,0.000,0,2,0,2,7,255,1200,200,0,0,-89.351,0.864,-31.479
EX0521-092111,24,C21,prep,2099,2099,0,1180934.091,0.686,-0.675,0.196,0.188,0,0,0,0,0,0,0,0,0,0.000,0,0,0.069,0.004,-0.040,-0.040,-0.040,0.015,0.992,0.011,0.004,-0.002,0.002,0.000,0.000,0.000,0.000,0,2,0,2,7,255,1200,200,0,0,-89.351,0.864,-31.479
EX0521-092111,24,C21,prep,2100,2100,0,1180939.091,0.686,-0.675,0.196,0.188,0,0,0,0,0,0,0,0,0,0.000,0,0,0.069,0.004,-0.040,-0.040,-0.040,0.014,0.994,0.012,0.004,0.000,0.002,0.000,0.000,0.000,0.000,0,2,0,2,7,255,1200,200,0,0,-89.351,0.864,-31.479
EX0521-092111,24,C21,prep,2100,2100,0,1180944.091,0.686,-0.675,0.196,0.188,0,0,0,0,0,0,0,0,0,0.000,0,0,0.060,0.006,-0.040,-0.040,0.020,0.014,0.991,0.012,-0.006,0.000,-0.008,0.000,0.000,0.000,0.000,0,2,0,2,7,255,1200,200,0,0,-89.351,0.864,-31.479
EX0521-092111,24,C21,prep,2111,2111,0,1180949.092,0.686,-0.675,0.196,0.188,0,0,0,0,0,0,0,0,0,0.000,0,0,0.069,0.006,-0.040,-0.040,-0.040,0.014,0.993,0.011,-0.006,0.000,-0.004,0.000,0.000,0.000,0.000,0,2,0,2,7,255,1200,200,0,0,-89.351,0.864,-31.479
EX0521-092111,24,C21,prep,2111,2111,0,1180954.092,0.686,-0.675,0.196,0.188,0,0,0,0,0,0,0,0,0,0.000,0,0,0.060,0.006,-0.040,-0.040,0.020,0.013,0.993,0.012,-0.006,0.000,-0.004,0.000,0.000,0.000,0.000,0,2,0,2,7,255,1200,200,0,0,-89.351,0.864,-31.479
EX0521-092111,24,C21,prep,2130,2130,0,1180959.092,0.686,-0.675,0.196,0.188,0,0,0,0,0,0,0,0,0,0.000,0,0,0.049,0.004,0.020,-0.040,0.020,0.014,0.993,0.012,-0.004,0.000,-0.004,0.000,0.000,0.000,0.000,0,2,0,2,7,255,1200,200,0,0,-89.351,0.864,-31.479
EX0521-092111,24,C21,prep,2130,2130,0,1180964.093,0.686,-0.675,0.196,0.188,0,0,0,0,0,0,0,0,0,0.000,0,0,0.060,0.010,0.020,-0.040,-0.040,0.013,0.993,0.012,-0.010,0.000,-0.004,0.000,0.000,0.000,0.000,0,2,0,2,7,255,1200,200,0,0,-89.351,0.864,-31.479
EX0521-092111,24,C21,prep,2168,2168,0,1180969.091,0.686,-0.675,0.196,0.188,0,0,0,0,0,0,0,0,0,0.000,0,0,0.060,0.008,0.020,-0.040,-0.040,0.014,0.993,0.013,-0.006,-0.006,-0.004,0.000,0.000,0.000,0.000,0,2,0,2,7,255,1200,200,0,0,-89.351,0.864,-31.479
EX0521-092111,24,C21,prep,2168,2168,0,1180974.091,0.686,-0.675,0.196,0.188,0,0,0,0,0,0,0,0,0,0.000,0,0,0.060,0.006,0.020,0.040,-0.040,0.015,0.992,0.011,-0.006,0.002,-0.004,0.000,0.000,0.000,0.000,0,2,0,2,7,255,1200,200,0,0,-89.351,0.864,-31.479
EX0521-092111,24,C21,prep,2169,2169,0,1180979.092,0.686,-0.675,0.196,0.188,0,0,0,0,0,0,0,0,0,0.000,0,0,0.069,0.004,-0.040,-0.040,-0.040,0.014,0.993,0.011,-0.004,0.002,-0.002,0.000,0.000,0.000,0.000,0,2,0,2,7,255,1200,200,0,0,-89.351,0.864,-31.479
EX0521-092111,24,C21,prep,2169,2169,0,1180984.093,0.686,-0.675,0.196,0.188,0,0,0,0,0,0,0,0,0,0.000,0,0,0.049,0.004,0.020,-0.040,0.020,0.014,0.991,0.013,-0.004,0.002,-0.012,0.000,0.000,0.000,0.000,0,2,0,2,7,255,1200,200,0,0,-89.351,0.864,-31.479
EX0521-092111,24,C21,prep,2169,2169,0,1180989.092,0.686,-0.675,0.196,0.188,0,0,0,0,0,0,0,0,0,0.000,0,0,0.060,0.006,-0.040,-0.040,0.020,0.014,0.992,0.011,-0.004,0.004,-0.008,0.000,0.000,0.000,0.000,0,2,0,2,7,255,1200,200,0,0,-89.351,0.864,-31.479
EX0521-092111,24,C21,prep,2170,2170,0,1180994.091,0.686,-0.675,0.196,0.188,0,0,0,0,0,0,0,0,0,0.000,0,0,0.115,0.004,-0.040,-0.100,-0.040,0.014,0.993,0.011,-0.002,0.004,-0.008,0.000,0.000,0.000,0.000,0,2,0,2,7,255,1200,200,0,0,-89.351,0.864,-31.479
EX0521-092111,24,C21,prep,2170,2170,0,1180999.091,0.686,-0.675,0.196,0.188,0,0,0,0,0,0,0,0,0,0.000,0,0,0.069,0.004,-0.040,-0.040,-0.040,0.015,0.993,0.011,0.000,0.004,-0.002,0.000,0.000,0.000,0.000,0,2,0,2,7,255,1200,200,0,0,-89.351,0.864,-31.479
EX0521-092111,24,C21,prep,2170,2170,0,1181004.091,0.686,-0.675,0.196,0.188,0,0,0,0,0,0,0,0,0,0.000,0,0,0.092,0.004,0.080,-0.040,0.020,0.015,0.993,0.012,0.000,0.004,-0.002,0.000,0.000,0.000,0.000,0,2,0,2,7,255,1200,200,0,0,-89.351,0.864,-31.479
EX0521-092111,24,C21,prep,2175,2175,0,1181009.092,0.686,-0.675,0.196,0.188,0,0,0,0,0,0,0,0,0,0.000,0,0,0.060,0.006,0.020,0.040,-0.040,0.015,0.993,0.011,0.006,0.000,-0.002,0.000,0.000,0.000,0.000,0,2,0,2,7,255,1200,200,0,0,-89.351,0.864,-31.479
EX0521-092111,24,C21,prep,2175,2175,0,1181014.092,0.686,-0.675,0.196,0.188,0,0,0,0,0,0,0,0,0,0.000,0,0,0.049,0.000,0.020,-0.020,-0.040,0.014,0.994,0.012,0.000,0.000,0.002,0.000,0.000,0.000,0.000,0,2,0,2,7,255,1200,200,0,0,-89.351,0.864,-31.479
EX0521-092111,24,C21,prep,2175,2175,0,1181019.092,0.686,-0.675,0.196,0.188,0,0,0,0,0,0,0,0,0,0.000,0,0,0.049,0.004,0.020,-0.020,-0.040,0.014,0.993,0.011,0.004,0.000,-0.002,0.000,0.000,0.000,0.000,0,2,0,2,7,255,1200,200,0,0,-89.351,0.864,-31.479
EX0521-092111,24,C21,prep,2175,2175,0,1181024.091,0.686,-0.675,0.196,0.188,0,0,0,0,0,0,0,0,0,0.000,0,0,0.049,0.007,0.020,-0.020,-0.040,0.014,0.992,0.011,0.004,0.006,-0.002,0.000,0.000,0.000,0.000,0,2,0,2,7,255,1200,200,0,0,-89.351,0.864,-31.479
EX0521-092111,24,C21,prep,2199,2199,0,1181029.091,0.686,-0.675,0.196,0.188,0,0,0,0,0,0,0,0,0,0.000,0,0,0.049,0.007,0.020,-0.020,-0.040,0.015,0.992,0.012,0.004,0.006,-0.008,0.000,0.000,0.000,0.000,0,2,0,2,7,255,1200,200,0,0,-89.351,0.864,-31.479
EX0521-092111,24,C21,prep,2199,2199,0,1181034.091,0.686,-0.675,0.196,0.188,0,0,0,0,0,0,0,0,0,0.000,0,0,0.049,0.004,0.020,-0.020,-0.040,0.015,0.993,0.012,0.002,-0.004,-0.008,0.000,0.000,0.000,0.000,0,2,0,2,7,255,1200,200,0,0,-89.351,0.864,-31.479
EX0521-092111,24,C21,prep,2200,2200,0,1181039.092,0.686,-0.675,0.196,0.188,0,0,0,0,0,0,0,0,0,0.000,0,0,0.035,0.004,0.020,-0.020,0.020,0.013,0.992,0.011,0.002,-0.004,-0.008,0.000,0.000,0.000,0.000,0,2,0,2,7,255,1200,200,0,0,-89.351,0.864,-31.479
EX0521-092111,24,C21,prep,2200,2200,0,1181044.092,0.686,-0.675,0.196,0.188,0,0,0,0,0,0,0,0,0,0.000,0,0,0.035,0.003,0.020,-0.020,0.020,0.015,0.991,0.011,0.002,-0.002,-0.008,0.000,0.000,0.000,0.000,0,2,0,2,7,255,1200,200,0,0,-89.351,0.864,-31.479
EX0521-092111,24,C21,prep,2229,2229,0,1181049.092,0.686,-0.675,0.196,0.188,0,0,0,0,0,0,0,0,0,0.000,0,0,0.060,0.006,-0.040,-0.020,-0.040,0.014,0.992,0.011,-0.004,0.004,-0.012,0.000,0.000,0.000,0.000,0,2,0,2,7,255,1200,200,0,0,-89.351,0.864,-31.479
EX0521-092111,24,C21,prep,2229,2229,0,1181054.091,0.686,-0.675,0.196,0.188,0,0,0,0,0,0,0,0,0,0.000,0,0,0.049,0.009,0.020,-0.020,-0.040,0.015,0.992,0.011,0.008,0.004,-0.012,0.000,0.000,0.000,0.000,0,2,0,2,7,255,1200,200,0,0,-89.351,0.864,-31.479
EX0521-092111,24,C21,prep,2229,2229,0,1181059.091,0.686,-0.675,0.196,0.188,0,0,0,0,0,0,0,0,0,0.000,0,0,0.049,0.004,0.020,-0.040,0.020,0.014,0.993,0.012,-0.002,0.004,-0.012,0.000,0.000,0.000,0.000,0,2,0,2,7,255,1200,200,0,0,-89.351,0.864,-31.479
EX0521-092111,24,C21,prep,2229,2229,0,1181064.092,0.686,-0.675,0.196,0.188,0,0,0,0,0,0,0,0,0,0.000,0,0,0.049,0.002,0.020,-0.040,0.020,0.013,0.993,0.012,-0.002,0.000,-0.002,0.000,0.000,0.000,0.000,0,2,0,2,7,255,1200,200,0,0,-89.351,0.864,-31.479
EX0521-092111,24,C21,prep,2264,2264,0,1181069.092,0.686,-0.675,0.196,0.188,0,0,0,0,0,0,0,0,0,0.000,0,0,0.098,0.002,0.080,-0.040,-0.040,0.014,0.992,0.011,-0.002,0.000,-0.002,0.000,0.000,0.000,0.000,0,2,0,2,7,255,1200,200,0,0,-89.351,0.864,-31.479
EX0521-092111,24,C21,prep,2264,2264,0,1181074.093,0.686,-0.675,0.196,0.188,0,0,0,0,0,0,0,0,0,0.000,0,0,0.069,0.004,-0.040,-0.040,-0.040,0.014,0.992,0.011,-0.004,0.002,-0.006,0.000,0.000,0.000,0.000,0,2,0,2,7,255,1200,200,0,0,-89.351,0.864,-31.479
EX0521-092111,24,C21,prep,2264,2264,0,1181079.092,0.686,-0.675,0.196,0.188,0,0,0,0,0,0,0,0,0,0.000,0,0,0.049,0.004,0.020,-0.040,0.020,0.013,0.993,0.012,-0.004,0.002,-0.006,0.000,0.000,0.000,0.000,0,2,0,2,7,255,1200,200,0,0,-89.351,0.864,-31.479
EX0521-092111,24,C21,prep,2264,2264,0,1181084.093,0.686,-0.675,0.196,0.188,0,0,0,0,0,0,0,0,0,0.000,0,0,0.069,0.013,-0.040,-0.040,-0.040,0.013,0.994,0.011,-0.012,0.004,0.002,0.000,0.000,0.000,0.000,0,2,0,2,7,255,1200,200,0,0,-89.351,0.864,-31.479
EX0521-092111,24,C21,prep,2264,2264,0,1181089.092,0.686,-0.675,0.196,0.188,0,0,0,0,0,0,0,0,0,0.000,0,0,0.049,0.016,0.020,-0.040,0.020,0.013,0.994,0.010,-0.012,0.010,0.008,0.000,0.000,0.000,0.000,0,2,0,2,7,255,1200,200,0,0,-89.351,0.864,-31.479
EX0521-092111,24,C21,prep,2264,2264,0,1181094.091,0.686,-0.675,0.196,0.188,0,0,0,0,0,0,0,0,0,0.000,0,0,0.060,0.010,-0.040,-0.040,0.020,0.015,0.993,0.013,-0.002,0.010,0.008,0.000,0.000,0.000,0.000,0,2,0,2,7,255,1200,200,0,0,-89.351,0.864,-31.479
EX0521-092111,24,C21,prep,2265,2265,0,1181099.092,0.686,-0.675,0.196,0.188,0,0,0,0,0,0,0,0,0,0.000,0,0,0.049,0.003,0.020,-0.040,0.020,0.014,0.993,0.012,-0.002,-0.002,-0.002,0.000,0.000,0.000,0.000,0,2,0,2,7,255,1200,200,0,0,-89.351,0.864,-31.479
EX0521-092111,24,C21,prep,2265,2265,0,1181104.092,0.686,-0.675,0.196,0.188,0,0,0,0,0,0,0,0,0,0.000,0,0,0.115,0.003,-0.040,-0.100,-0.040,0.015,0.993,0.011,-0.002,-0.002,-0.002,0.000,0.000,0.000,0.000,0,2,0,2,7,255,1200,200,0,0,-89.351,0.864,-31.479
EX0521-092111,24,C21,prep,2266,2266,0,1181109.092,0.686,-0.675,0.196,0.188,0,0,0,0,0,0,0,0,0,0.000,0,0,0.060,0.002,0.020,-0.040,-0.040,0.014,0.995,0.011,-0.002,0.000,0.002,0.000,0.000,0.000,0.000,0,2,0,2,7,255,1200,200,0,0,-89.351,0.865,-31.479
EX0521-092111,24,C21,prep,2266,2266,0,1181114.092,0.686,-0.675,0.196,0.188,0,0,0,0,0,0,0,0,0,0.000,0,0,0.060,0.003,0.020,0.040,-0.040,0.014,0.994,0.011,0.002,0.002,0.008,0.000,0.000,0.000,0.000,0,2,0,2,7,255,1200,200,0,0,-89.351,0.865,-31.479
EX0521-092111,24,C21,prep,2299,2299,0,1181119.092,0.686,-0.675,0.196,0.188,0,0,0,0,0,0,0,0,0,0.000,0,0,0.069,0.003,-0.040,-0.040,-0.040,0.014,0.992,0.012,-0.002,0.002,0.008,0.000,0.000,0.000,0.000,0,2,0,2,7,255,1200,200,0,0,-89.351,0.865,-31.479
EX0521-092111,24,C21,prep,2299,2299,0,1181124.091,0.686,-0.675,0.196,0.188,0,0,0,0,0,0,0,0,0,0.000,0,0,0.060,0.004,0.020,-0.040,-0.040,0.014,0.992,0.012,-0.004,0.000,-0.006,0.000,0.000,0.000,0.000,0,2,0,2,7,255,1200,200,0,0,-89.351,0.865,-31.479
EX0521-092111,24,C21,prep,2299,2299,0,1181129.091,0.686,-0.675,0.196,0.188,0,0,0,0,0,0,0,0,0,0.000,0,0,0.049,0.006,0.020,-0.040,0.020,0.013,0.993,0.011,-0.006,0.000,-0.006,0.000,0.000,0.000,0.000,0,2,0,2,7,255,1200,200,0,0,-89.351,0.865,-31.479
EX0521-092111,24,C21,prep,2299,2299,0,1181134.092,0.686,-0.675,0.196,0.188,0,0,0,0,0,0,0,0,0,0.000,0,0,0.060,0.008,0.020,0.040,-0.040,0.013,0.992,0.011,-0.006,0.006,-0.006,0.000,0.000,0.000,0.000,0,2,0,2,7,255,1200,200,0,0,-89.351,0.865,-31.479
EX0521-092111,24,C21,prep,2303,2303,0,1181139.092,0.686,-0.675,0.196,0.188,0,0,0,0,0,0,0,0,0,0.000,0,0,0.049,0.008,0.020,-0.040,0.020,0.015,0.993,0.011,-0.006,0.006,-0.002,0.000,0.000,0.000,0.000,0,2,0,2,7,255,1200,200,0,0,-89.351,0.865,-31.479
EX0521-092111,24,C21,prep,2303,2303,0,1181144.092,0.686,-0.675,0.196,0.188,0,0,0,0,0,0,0,0,0,0.000,0,0,0.060,0.004,0.020,-0.040,-0.040,0.014,0.992,0.011,0.002,0.004,-0.006,0.000,0.000,0.000,0.000,0,2,0,2,7,255,1200,200,0,0,-89.351,0.865,-31.479
EX0521-092111,24,C21,prep,2330,2330,0,1181149.091,0.686,-0.675,0.196,0.188,0,0,0,0,0,0,0,0,0,0.000,0,0,0.060,0.009,0.020,-0.040,-0.040,0.015,0.992,0.011,0.008,0.004,-0.006,0.000,0.000,0.000,0.000,0,2,0,2,7,255,1200,200,0,0,-89.351,0.865,-31.479
EX0521-092111,24,C21,prep,2330,2330,0,1181154.091,0.686,-0.675,0.196,0.188,0,0,0,0,0,0,0,0,0,0.000,0,0,0.110,0.003,0.020,-0.100,-0.040,0.014,0.994,0.012,0.002,0.002,-0.006,0.000,0.000,0.000,0.000,0,2,0,2,7,255,1200,200,0,0,-89.351,0.865,-31.479
EX0521-092111,24,C21,prep,2330,2330,0,1181159.093,0.686,-0.675,0.196,0.188,0,0,0,0,0,0,0,0,0,0.000,0,0,0.134,0.003,0.080,-0.100,-0.040,0.014,0.992,0.012,-0.002,-0.002,-0.006,0.000,0.000,0.000,0.000,0,2,0,2,7,255,1200,200,0,0,-89.351,0.865,-31.479
EX0521-092111,24,C21,prep,2330,2330,0,1181164.093,0.686,-0.675,0.196,0.188,0,0,0,0,0,0,0,0,0,0.000,0,0,0.060,0.004,0.020,-0.040,-0.040,0.014,0.992,0.012,-0.004,-0.002,-0.006,0.000,0.000,0.000,0.000,0,2,0,2,7,255,1200,200,0,0,-89.351,0.865,-31.479
EX0521-092111,24,C21,prep,2374,2374,0,1181169.092,0.686,-0.675,0.196,0.188,0,0,0,0,0,0,0,0,0,0.000,0,0,0.130,0.004,0.080,-0.100,0.020,0.014,0.994,0.011,-0.004,0.000,-0.006,0.000,0.000,0.000,0.000,0,2,0,2,7,255,1200,200,0,0,-89.351,0.865,-31.479
EX0521-092111,24,C21,prep,2374,2374,0,1181174.092,0.686,-0.675,0.196,0.188,0,0,0,0,0,0,0,0,0,0.000,0,0,0.060,0.003,0.020,-0.040,-0.040,0.014,0.993,0.011,0.002,0.002,-0.002,0.000,0.000,0.000,0.000,0,2,0,2,7,255,1200,200,0,0,-89.351,0.865,-31.479
EX0521-092111,24,C21,prep,2374,2374,0,1181179.092,0.686,-0.675,0.196,0.188,0,0,0,0,0,0,0,0,0,0.000,0,0,0.049,0.003,0.020,-0.040,0.020,0.013,0.992,0.012,0.002,0.002,-0.002,0.000,0.000,0.000,0.000,0,2,0,2,7,255,1200,200,0,0,-89.351,0.865,-31.479
EX0521-092111,24,C21,prep,2374,2374,0,1181184.093,0.686,-0.675,0.196,0.188,0,0,0,0,0,0,0,0,0,0.000,0,0,0.060,0.003,-0.040,0.040,0.020,0.014,0.991,0.011,0.002,0.002,-0.006,0.000,0.000,0.000,0.000,0,2,0,2,7,255,1200,200,0,0,-89.351,0.865,-31.479
EX0521-092111,24,C21,prep,2374,2374,0,1181189.091,0.686,-0.675,0.196,0.188,0,0,0,0,0,0,0,0,0,0.000,0,0,0.060,0.006,0.020,-0.040,-0.040,0.013,0.993,0.011,-0.006,0.002,-0.006,0.000,0.000,0.000,0.000,0,2,0,2,7,255,1200,200,0,0,-89.351,0.865,-31.479
EX0521-092111,24,C21,prep,2374,2374,0,1181194.092,0.686,-0.675,0.196,0.188,0,0,0,0,0,0,0,0,0,0.000,0,0,0.049,0.003,0.020,-0.040,0.020,0.015,0.992,0.012,0.002,0.002,-0.006,0.000,0.000,0.000,0.000,0,2,0,2,7,255,1200,200,0,0,-89.351,0.865,-31.479
EX0521-092111,24,C21,prep,2375,2375,0,1181199.092,0.686,-0.675,0.196,0.188,0,0,0,0,0,0,0,0,0,0.000,0,0,0.060,0.009,0.020,-0.040,-0.040,0.015,0.992,0.011,0.008,-0.004,-0.006,0.000,0.000,0.000,0.000,0,2,0,2,7,255,1200,200,0,0,-89.351,0.865,-31.479
EX0521-092111,24,C21,prep,2375,2375,0,1181204.092,0.686,-0.675,0.196,0.188,0,0,0,0,0,0,0,0,0,0.000,0,0,0.069,0.009,-0.040,-0.040,-0.040,0.014,0.993,0.012,0.008,-0.004,-0.006,0.000,0.000,0.000,0.000,0,2,0,2,7,255,1200,200,0,0,-89.351,0.865,-31.479
EX0521-092111,24,C21,prep,2376,2376,0,1181209.091,0.686,-0.675,0.196,0.188,0,0,0,0,0,0,0,0,0,0.000,0,0,0.092,0.004,0.080,-0.040,0.020,0.014,0.994,0.012,-0.002,-0.004,-0.002,0.000,0.000,0.000,0.000,0,2,0,2,7,255,1200,200,0,0,-89.351,0.865,-31.479
EX0521-092111,24,C21,prep,2376,2376,0,1181214.091,0.686,-0.675,0.196,0.188,0,0,0,0,0,0,0,0,0,0.000,0,0,0.060,0.006,0.020,0.040,-0.040,0.016,0.993,0.011,-0.002,-0.006,-0.002,0.000,0.000,0.000,0.000,0,2,0,2,7,255,1200,200,0,0,-89.351,0.865,-31.479
EX0521-092111,24,C21,prep,2377,2377,0,1181219.093,0.686,-0.675,0.196,0.188,0,0,0,0,0,0,0,0,0,0.000,0,0,0.110,0.007,0.020,0.040,-0.100,0.013,0.993,0.012,-0.004,-0.006,0.004,0.000,0.000,0.000,0.000,0,2,0,2,7,255,1200,200,0,0,-89.351,0.865,-31.479
EX0521-092111,24,C21,prep,2377,2377,0,1181224.092,0.686,-0.675,0.196,0.188,0,0,0,0,0,0,0,0,0,0.000,0,0,0.060,0.006,-0.040,-0.040,0.020,0.015,0.993,0.011,0.006,0.000,0.004,0.000,0.000,0.000,0.000,0,2,0,2,7,255,1200,200,0,0,-89.351,0.865,-31.479
EX0521-092111,24,C21,prep,2399,2399,0,1181229.092,0.686,-0.675,0.196,0.188,0,0,0,0,0,0,0,0,0,0.000,0,0,0.049,0.004,0.020,0.040,0.020,0.014,0.994,0.012,-0.004,0.000,0.004,0.000,0.000,0.000,0.000,0,2,0,2,7,255,1200,200,0,0,-89.351,0.865,-31.479
EX0521-092111,24,C21,prep,2399,2399,0,1181234.092,0.686,-0.675,0.196,0.188,0,0,0,0,0,0,0,0,0,0.000,0,0,0.069,0.000,-0.040,-0.040,-0.040,0.014,0.993,0.011,0.000,0.000,0.004,0.000,0.000,0.000,0.000,0,2,0,2,7,255,1200,200,0,0,-89.351,0.865,-31.479
EX0521-092111,24,C21,prep,2399,2399,0,1181239.092,0.686,-0.675,0.196,0.188,0,0,0,0,0,0,0,0,0,0.000,0,0,0.060,0.004,0.020,-0.040,-0.040,0.015,0.992,0.012,0.000,-0.004,0.002,0.000,0.000,0.000,0.000,0,2,0,2,7,255,1200,200,0,0,-89.351,0.865,-31.479
EX0521-092111,24,C21,prep,2399,2399,0,1181244.091,0.686,-0.675,0.196,0.188,0,0,0,0,0,0,0,0,0,0.000,0,0,0.060,0.008,0.020,-0.040,-0.040,0.014,0.992,0.010,0.002,0.008,-0.006,0.000,0.000,0.000,0.000,0,2,0,2,7,255,1200,200,0,0,-89.351,0.865,-31.479
EX0521-092111,24,C21,prep,2415,2415,0,1181249.091,0.686,-0.675,0.196,0.188,0,0,0,0,0,0,0,0,0,0.000,0,0,0.060,0.002,0.020,0.040,-0.040,0.014,0.994,0.012,0.002,0.000,-0.006,0.000,0.000,0.000,0.000,0,2,0,2,7,255,1200,200,0,0,-89.351,0.865,-31.479
EX0521-092111,24,C21,prep,2415,2415,0,1181254.092,0.686,-0.675,0.196,0.188,0,0,0,0,0,0,0,0,0,0.000,0,0,0.069,0.008,-0.040,-0.040,-0.040,0.014,0.993,0.011,0.000,0.008,0.002,0.000,0.000,0.000,0.000,0,2,0,2,7,255,1200,200,0,0,-89.351,0.865,-31.479
EX0521-092111,24,C21,prep,2431,2431,0,1181259.092,0.686,-0.675,0.196,0.188,0,0,0,0,0,0,0,0,0,0.000,0,0,0.049,0.002,0.020,-0.040,0.020,0.014,0.993,0.012,-0.002,0.000,0.002,0.000,0.000,0.000,0.000,0,2,0,2,7,255,1200,200,0,0,-89.351,0.865,-31.479
EX0521-092111,24,C21,prep,2431,2431,0,1181264.092,0.686,-0.675,0.196,0.188,0,0,0,0,0,0,0,0,0,0.000,0,0,0.069,0.006,-0.040,-0.040,-0.040,0.013,0.993,0.011,-0.002,0.006,-0.002,0.000,0.000,0.000,0.000,0,2,0,2,7,255,1200,200,0,0,-89.351,0.865,-31.479
EX0521-092111,24,C21,prep,2468,2468,0,1181269.091,0.686,-0.675,0.196,0.188,0,0,0,0,0,0,0,0,0,0.000,0,0,0.060,0.006,-0.040,-0.040,0.020,0.014,0.993,0.012,-0.006,0.000,-0.002,0.000,0.000,0.000,0.000,0,2,0,2,7,255,1200,200,0,0,-89.351,0.865,-31.479
EX0521-092111,24,C21,prep,2468,2468,0,1181274.091,0.686,-0.675,0.196,0.188,0,0,0,0,0,0,0,0,0,0.000,0,0,0.049,0.008,0.020,-0.040,0.020,0.014,0.993,0.010,-0.006,0.006,-0.002,0.000,0.000,0.000,0.000,0,2,0,2,7,255,1200,200,0,0,-89.351,0.865,-31.479
EX0521-092111,24,C21,prep,2469,2469,0,1181279.092,0.686,-0.675,0.196,0.188,0,0,0,0,0,0,0,0,0,0.000,0,0,0.060,0.006,0.020,-0.040,-0.040,0.013,0.993,0.012,-0.006,0.002,-0.002,0.000,0.000,0.000,0.000,0,2,0,2,7,255,1200,200,0,0,-89.351,0.865,-31.479
EX0521-092111,24,C21,prep,2469,2469,0,1181284.093,0.686,-0.675,0.196,0.188,0,0,0,0,0,0,0,0,0,0.000,0,0,0.110,0.011,0.020,-0.100,-0.040,0.013,0.993,0.011,-0.004,0.010,-0.002,0.000,0.000,0.000,0.000,0,2,0,2,7,255,1200,200,0,0,-89.351,0.865,-31.479
