t_ms,L_q0,L_q1,L_q2,L_q3,L_heel1,L_mid1,L_fore1,L_heel2,L_fore3,L_mid2,L_fore4,L_fore2,L_cadence,L_speed,L_steps,L_zupt,L_gyroNorm,L_accH,L_gyro_x,L_gyro_y,L_gyro_z,L_acc_x,L_acc_y,L_acc_z,L_nav_ax,L_nav_ay,L_nav_az,L_stepVel,L_stepVelj,L_stepDispRaw,L_stepDispZUPT,L_gaitEvent,L_motorMode,L_motorActive,L_motorAlignment,L_motorRegionMask,L_motorAmplitude,L_motorIntervalMs,L_motorDurationMs,L_motorPhaseMs,L_motorCycleMs,L_roll,L_pitch,L_yaw,L_relativeRoll,L_relativePitch,L_relativeYaw
150019.817,0.972,-0.090,-0.205,-0.067,3241,0,0,3384,0,43,0,293,47,0.939,59,0,229.354,24.400,-48.160,-160.480,-156.620,1.503,-1.994,1.690,20.172,-13.728,-5.470,0.532,0.362,1.290,1.206,0,2,1,0,7,255,1000,250,3,1000,-12.650,-22.740,10.408,-12.650,-22.740,10.408
150024.815,0.974,-0.085,-0.198,-0.068,3257,0,0,3413,0,54,0,298,47,0.939,59,0,187.806,26.758,-120.420,-142.160,23.680,0.908,-1.782,1.760,20.172,-17.580,-4.620,0.450,0.280,1.290,1.206,0,2,1,0,7,255,1000,250,8,1000,-12.030,-22.019,10.368,-12.030,-22.019,10.368
150029.816,0.975,-0.079,-0.192,-0.075,3271,0,0,3425,0,71,0,317,47,0.939,60,0,258.165,24.422,-177.360,-120.260,143.980,0.129,-0.945,1.238,16.952,-17.580,-0.962,0.372,0.204,1.290,1.206,1,2,1,0,7,255,1000,250,13,1000,-11.371,-21.283,10.995,-11.371,-21.283,10.995
150034.816,0.976,-0.074,-0.186,-0.084,3288,0,0,3463,0,85,0,327,47,0.939,60,0,277.071,12.265,-177.740,-119.580,175.720,-0.530,-0.046,0.719,7.166,-9.954,-0.962,0.322,0.160,1.290,1.206,1,2,1,0,7,255,1000,250,18,1000,-10.764,-20.527,11.795,-10.764,-20.527,11.795
150039.815,0.977,-0.070,-0.180,-0.090,3299,0,0,3461,10,104,0,327,47,0.939,60,0,208.236,2.594,-112.240,-121.040,126.940,-0.809,0.573,0.526,-1.834,-1.834,-1.478,0.300,0.148,1.290,1.206,1,2,1,0,7,255,1000,250,23,1000,-10.388,-19.815,12.341,-10.388,-19.815,12.341
150044.815,0.978,-0.069,-0.174,-0.092,3299,0,0,3437,20,115,0,338,47,0.939,60,0,137.941,6.581,-37.040,-124.900,45.340,-0.773,0.643,0.671,-5.422,3.730,-1.478,0.290,0.150,1.290,1.206,1,2,1,0,7,255,1000,250,28,1000,-10.239,-19.159,12.458,-10.239,-19.159,12.458
150049.815,0.979,-0.070,-0.169,-0.090,3303,0,0,3463,35,123,0,371,47,0.939,60,0,124.467,6.581,4.340,-122.380,-22.280,-0.418,0.258,1.014,-5.422,3.730,-0.222,0.280,0.148,1.290,1.206,1,2,1,0,7,255,1000,250,33,1000,-10.183,-18.576,12.227,-10.183,-18.576,12.227
150054.815,0.980,-0.071,-0.164,-0.088,3293,0,0,3444,39,155,0,407,47,0.939,60,0,125.633,1.120,14.960,-114.280,-50.000,0.033,-0.140,1.483,-0.542,0.980,1.118,0.260,0.130,1.290,1.206,1,2,1,0,7,255,1000,250,38,1000,-10.140,-18.057,11.862,-10.140,-18.057,11.862
150059.816,0.981,-0.072,-0.162,-0.084,3315,0,0,3445,52,189,0,411,47,0.939,60,0,115.518,6.123,38.200,-72.700,-81.240,0.322,-0.313,1.880,5.602,-2.472,3.394,0.234,0.102,1.290,1.206,1,2,1,0,7,255,1000,250,43,1000,-10.178,-17.769,11.374,-10.178,-17.769,11.374
150064.816,0.981,-0.071,-0.159,-0.083,3290,0,0,3455,61,233,0,457,47,0.939,60,0,67.053,10.206,-25.140,-53.660,-31.380,0.510,-0.301,1.508,9.680,-3.234,3.394,0.214,0.072,1.290,1.206,1,2,1,0,7,255,1000,250,48,1000,-9.985,-17.532,11.162,-9.985,-17.532,11.162
150069.817,0.982,-0.069,-0.157,-0.084,3303,0,0,3447,77,272,0,471,47,0.939,60,0,73.593,10.206,-42.720,-45.920,38.500,0.371,0.217,1.133,9.680,-3.234,2.006,0.206,0.054,1.290,1.206,1,2,1,0,7,255,1000,250,53,1000,-9.815,-17.272,11.319,-9.815,-17.272,11.319
150074.815,0.982,-0.068,-0.155,-0.088,3307,0,0,3461,103,363,0,478,47,0.939,60,0,93.442,7.147,-36.260,-32.920,79.580,-0.212,0.407,0.932,6.880,1.936,-0.022,0.206,0.044,1.290,1.206,1,2,1,0,7,255,1000,250,58,1000,-9.743,-17.041,11.699,-9.743,-17.041,11.699
150079.815,0.982,-0.068,-0.154,-0.090,3311,0,0,3473,107,379,0,539,47,0.939,60,0,68.890,2.018,-28.800,-29.560,55.160,-0.700,0.337,0.828,0.570,1.936,-0.022,0.212,0.040,1.290,1.206,1,2,1,0,7,255,1000,250,63,1000,-9.671,-16.848,11.957,-9.671,-16.848,11.957
150084.815,0.982,-0.067,-0.153,-0.089,3302,0,0,3463,117,421,0,539,47,0.939,60,0,38.537,4.200,-5.680,-31.140,-21.980,-0.710,0.317,0.925,-3.958,1.404,0.292,0.220,0.036,1.290,1.206,1,2,1,0,7,255,1000,250,68,1000,-9.604,-16.724,11.818,-9.604,-16.724,11.818
150089.817,0.982,-0.068,-0.151,-0.086,3303,0,0,3464,115,427,0,568,47,0.939,60,0,81.271,4.200,9.760,-39.020,-70.620,-0.374,0.294,0.943,-3.958,1.404,0.352,0.226,0.030,1.290,1.206,1,2,1,0,7,255,1000,250,73,1000,-9.536,-16.589,11.421,-9.536,-16.589,11.421
150094.816,0.983,-0.067,-0.149,-0.084,3327,0,0,3468,119,424,0,563,47,0.939,60,0,79.043,1.718,-3.360,-54.700,-56.960,-0.060,0.338,1.119,-0.790,1.526,1.180,0.230,0.024,1.290,1.206,1,2,1,0,7,255,1000,250,78,1000,-9.419,-16.365,11.080,-9.419,-16.365,11.080
150099.815,0.983,-0.066,-0.147,-0.083,3307,0,0,3484,131,451,0,595,47,0.939,60,0,51.570,2.955,-28.620,-38.160,-19.600,-0.069,0.149,1.282,2.530,1.526,1.184,0.234,0.022,1.290,1.206,1,2,1,0,7,255,1000,250,83,1000,-9.236,-16.192,10.947,-9.236,-16.192,10.947
150104.816,0.984,-0.064,-0.146,-0.082,3337,0,0,3455,188,465,10,612,47,0.939,60,0,42.622,2.557,-34.800,-19.000,-15.640,-0.326,0.021,0.980,2.530,0.374,1.184,0.236,0.020,1.290,1.206,1,2,1,0,7,255,1000,250,88,1000,-9.021,-16.113,10.850,-9.021,-16.113,10.850
150109.817,0.984,-0.063,-0.146,-0.081,3319,0,0,3480,219,494,18,629,47,0.939,60,0,49.508,0.971,-23.320,-18.500,-39.560,-0.384,0.017,0.914,0.052,-0.970,0.144,0.240,0.018,1.290,1.206,1,2,1,0,7,255,1000,250,93,1000,-8.835,-16.055,10.631,-8.835,-16.055,10.631
150114.815,0.984,-0.062,-0.145,-0.078,3311,0,0,3469,233,505,20,688,47,0.939,60,0,69.941,0.971,-6.100,-18.620,-67.140,-0.204,0.046,0.910,0.052,-0.970,-0.312,0.244,0.016,1.290,1.206,1,2,1,0,7,255,1000,250,98,1000,-8.702,-16.014,10.271,-8.702,-16.014,10.271
150119.816,0.985,-0.062,-0.144,-0.076,3309,0,0,3491,215,503,86,728,47,0.939,60,0,55.650,0.988,-4.160,-26.680,-48.660,-0.097,0.037,0.846,0.904,-0.398,-0.796,0.246,0.016,1.290,1.206,1,2,1,0,7,255,1000,250,103,1000,-8.604,-15.917,10.000,-8.604,-15.917,10.000
150124.816,0.985,-0.061,-0.142,-0.075,3353,0,0,3493,227,525,95,773,47,0.939,60,0,39.809,1.752,-10.200,-34.260,-17.520,-0.021,-0.102,1.094,1.706,-0.398,-0.796,0.248,0.016,1.290,1.206,1,2,1,0,7,255,1000,250,108,1000,-8.499,-15.742,9.879,-8.499,-15.742,9.879
150129.818,0.985,-0.061,-0.142,-0.075,3325,0,0,3484,246,551,97,784,47,0.939,60,0,17.552,2.206,-12.580,-11.540,4.080,-0.168,-0.014,1.141,1.904,-1.114,0.240,0.248,0.018,1.290,1.206,1,2,1,0,7,255,1000,250,113,1000,-8.413,-15.664,9.887,-8.413,-15.664,9.887
150134.817,0.985,-0.060,-0.142,-0.076,3311,0,6,3465,243,573,101,791,47,0.939,60,0,15.989,2.206,-13.680,-5.020,6.580,-0.359,0.160,0.960,1.904,-1.114,0.248,0.252,0.020,1.290,1.206,2,2,1,0,7,255,1000,250,118,1000,-8.355,-15.653,9.919,-8.355,-15.653,9.919
150139.815,0.985,-0.060,-0.141,-0.075,3321,0,25,3436,237,567,143,799,47,0.939,60,0,12.950,0.750,-5.560,-7.040,-9.340,-0.353,0.189,0.943,-0.610,0.436,0.248,0.254,0.022,1.290,1.206,2,2,1,0,7,255,1000,250,123,1000,-8.324,-15.645,9.869,-8.324,-15.645,9.869
150144.815,0.985,-0.060,-0.141,-0.075,3337,0,36,3416,238,581,91,797,47,0.939,60,0,14.851,0.750,3.120,-3.920,-13.980,-0.251,0.088,0.965,-0.610,0.436,0.110,0.254,0.022,1.290,1.206,2,2,1,0,7,255,1000,250,128,1000,-8.300,-15.629,9.792,-8.300,-15.629,9.792
150149.816,0.985,-0.059,-0.141,-0.074,3319,0,40,3417,237,598,115,813,47,0.939,60,0,7.018,0.502,0.120,-4.840,-5.080,-0.227,-0.005,0.982,0.496,-0.076,-0.086,0.254,0.022,1.290,1.206,2,2,1,0,7,255,1000,250,133,1000,-8.245,-15.595,9.756,-8.245,-15.595,9.756
150154.816,0.986,-0.059,-0.141,-0.074,3351,0,45,3415,263,591,137,825,47,0.939,60,0,5.312,1.121,-3.480,-3.860,1.100,-0.260,-0.047,0.976,0.598,-0.948,-0.118,0.252,0.022,1.290,1.206,2,2,1,0,7,255,1000,250,138,1000,-8.170,-15.571,9.754,-8.170,-15.571,9.754
150159.815,0.986,-0.057,-0.141,-0.074,3345,0,46,3387,269,605,125,839,47,0.939,60,1,4.272,1.179,-3.480,-2.460,0.300,-0.291,-0.040,0.947,0.598,-1.016,-0.122,0.248,0.022,1.290,1.206,2,2,1,0,7,255,1000,250,143,1000,-7.996,-15.578,9.740,-7.996,-15.578,9.740
150164.816,0.986,-0.056,-0.140,-0.075,3334,0,51,3401,269,617,115,839,47,0.939,60,1,3.587,1.219,-1.640,-2.700,1.700,-0.252,-0.009,0.939,0.580,-1.072,-0.162,0.246,0.024,1.290,1.206,2,2,1,0,7,255,1000,250,148,1000,-7.868,-15.555,9.735,-7.868,-15.555,9.735
150169.817,0.986,-0.055,-0.140,-0.075,3324,0,59,3400,280,623,142,839,47,0.939,60,1,8.522,1.182,0.800,-2.460,8.120,-0.250,-0.006,0.945,0.566,-1.038,-0.206,0.242,0.024,1.290,1.206,2,2,1,0,7,255,1000,250,153,1000,-7.763,-15.525,9.763,-7.763,-15.525,9.763
150174.815,0.986,-0.055,-0.140,-0.076,3323,0,58,3387,285,633,142,849,47,0.939,60,1,12.952,1.143,3.420,-2.400,12.260,-0.284,-0.001,0.955,0.554,-1.000,-0.242,0.240,0.026,1.290,1.206,2,2,1,0,7,255,1000,250,158,1000,-7.677,-15.519,9.815,-7.677,-15.519,9.815
150179.816,0.986,-0.054,-0.140,-0.076,3320,0,71,3415,288,629,150,848,47,0.939,60,1,13.125,1.086,4.400,-2.640,12.080,-0.301,0.014,0.961,0.488,-0.970,-0.232,0.238,0.026,1.290,1.206,2,2,1,0,7,255,1000,250,163,1000,-7.612,-15.523,9.868,-7.612,-15.523,9.868
150184.816,0.986,-0.053,-0.140,-0.077,3336,0,77,3405,296,631,145,843,47,0.939,60,1,12.569,1.009,5.800,-3.000,10.740,-0.290,0.024,0.946,0.414,-0.920,-0.224,0.234,0.028,1.290,1.206,2,2,1,0,7,255,1000,250,168,1000,-7.563,-15.520,9.915,-7.563,-15.520,9.915
150189.817,0.986,-0.053,-0.140,-0.077,3338,3,73,3385,304,635,148,851,47,0.939,60,1,14.350,0.917,9.880,-2.880,10.000,-0.296,0.029,0.936,0.344,-0.850,-0.222,0.234,0.030,1.290,1.206,2,2,1,0,7,255,1000,250,173,1000,-7.542,-15.525,9.959,-7.542,-15.525,9.959
150194.815,0.986,-0.054,-0.140,-0.077,3349,5,77,3429,308,633,147,828,47,0.939,60,1,14.592,0.832,12.760,-3.380,6.220,-0.300,0.093,0.990,0.284,-0.782,-0.222,0.232,0.030,1.290,1.206,2,2,1,0,7,255,1000,250,178,1000,-7.582,-15.519,9.988,-7.582,-15.519,9.988
150199.817,0.986,-0.054,-0.140,-0.077,3340,5,83,3399,311,631,157,853,47,0.939,60,1,8.799,0.663,8.120,-2.580,2.200,-0.287,0.091,1.010,0.236,-0.620,-0.118,0.232,0.030,1.290,1.206,2,2,1,0,7,255,1000,250,183,1000,-7.592,-15.504,9.994,-7.592,-15.504,9.994
150204.815,0.986,-0.053,-0.140,-0.077,3323,12,83,3396,301,632,149,855,47,0.939,60,1,7.866,0.545,6.660,-3.740,1.880,-0.258,0.059,0.957,0.234,-0.492,-0.032,0.232,0.030,1.290,1.206,2,2,1,0,7,255,1000,250,188,1000,-7.563,-15.477,9.995,-7.563,-15.477,9.995
150209.817,0.986,-0.054,-0.140,-0.077,3331,6,83,3391,312,648,148,853,47,0.939,60,1,10.558,0.452,10.200,-2.220,1.580,-0.284,0.111,0.987,0.232,-0.388,0.024,0.234,0.030,1.290,1.206,2,2,1,0,7,255,1000,250,193,1000,-7.597,-15.470,10.000,-7.597,-15.470,10.000
150214.816,0.986,-0.054,-0.140,-0.077,3335,2,85,3380,312,636,136,845,47,0.939,60,1,10.244,0.348,9.700,-1.060,-3.120,-0.298,0.107,0.977,0.214,-0.274,0.056,0.234,0.030,1.290,1.206,2,2,1,0,7,255,1000,250,198,1000,-7.620,-15.484,9.983,-7.620,-15.484,9.983
150219.815,0.986,-0.054,-0.139,-0.077,3317,2,87,3389,315,651,121,841,47,0.939,60,1,9.656,0.265,8.120,-2.020,-4.820,-0.252,0.106,0.987,0.202,-0.172,0.082,0.236,0.028,1.290,1.206,2,2,1,0,7,255,1000,250,203,1000,-7.630,-15.460,9.954,-7.630,-15.460,9.954
150224.815,0.986,-0.054,-0.139,-0.077,3311,1,85,3373,317,636,143,842,47,0.939,60,1,6.715,0.269,6.520,-0.620,-1.480,-0.238,0.087,0.981,0.250,-0.100,0.096,0.238,0.028,1.290,1.206,2,2,1,0,7,255,1000,250,208,1000,-7.619,-15.430,9.940,-7.619,-15.430,9.940
150229.815,0.986,-0.054,-0.139,-0.077,3335,0,85,3371,320,637,151,840,47,0.939,60,1,6.130,0.295,5.980,-0.860,1.040,-0.254,0.078,0.961,0.288,-0.066,0.084,0.242,0.026,1.290,1.206,2,2,1,0,7,255,1000,250,213,1000,-7.602,-15.414,9.940,-7.602,-15.414,9.940
150234.815,0.986,-0.054,-0.139,-0.077,3318,3,83,3358,319,629,151,840,47,0.939,60,1,5.724,0.318,5.560,0.600,1.220,-0.252,0.082,0.973,0.314,-0.050,0.068,0.244,0.024,1.290,1.206,2,2,1,0,7,255,1000,250,218,1000,-7.586,-15.402,9.941,-7.586,-15.402,9.941
150239.816,0.986,-0.053,-0.139,-0.077,3304,0,82,3359,312,637,137,840,47,0.939,60,1,6.492,0.337,4.280,-0.140,4.880,-0.249,0.061,0.958,0.334,-0.044,0.030,0.248,0.022,1.290,1.206,2,2,1,0,7,255,1000,250,223,1000,-7.552,-15.385,9.959,-7.552,-15.385,9.959
150244.816,0.986,-0.053,-0.139,-0.077,3320,0,79,3372,311,628,143,827,47,0.939,60,1,10.590,0.351,3.780,-0.500,9.880,-0.265,0.081,0.957,0.350,-0.032,0.000,0.252,0.020,1.290,1.206,2,2,1,0,7,255,1000,250,228,1000,-7.540,-15.378,10.006,-7.540,-15.378,10.006
150249.815,0.986,-0.053,-0.139,-0.078,3297,0,75,3373,299,628,133,824,47,0.939,60,1,15.098,0.329,3.840,-1.540,14.520,-0.280,0.126,0.961,0.328,-0.024,-0.026,0.256,0.018,1.290,1.206,2,2,1,0,7,255,1000,250,233,1000,-7.576,-15.370,10.081,-7.576,-15.370,10.081
150254.815,0.986,-0.054,-0.139,-0.079,3303,0,76,3341,303,633,93,825,47,0.939,60,1,18.300,0.281,3.780,-2.280,17.760,-0.286,0.164,0.970,0.274,0.062,-0.018,0.260,0.018,1.290,1.206,2,2,1,0,7,255,1000,250,238,1000,-7.642,-15.356,10.174,-7.642,-15.356,10.174
150259.815,0.986,-0.054,-0.139,-0.080,3287,0,74,3370,307,615,91,823,47,0.939,60,1,20.736,0.289,3.300,-2.940,20.260,-0.290,0.183,0.977,0.212,0.196,0.018,0.266,0.016,1.290,1.206,2,2,1,0,7,255,1000,250,243,1000,-7.716,-15.338,10.279,-7.716,-15.338,10.279
150264.816,0.986,-0.055,-0.138,-0.081,3288,0,72,3367,306,619,95,821,47,0.939,60,1,22.876,0.367,1.280,-3.440,22.580,-0.292,0.203,0.986,0.156,0.332,0.066,0.270,0.016,1.290,1.206,2,2,1,0,7,255,1000,250,248,1000,-7.789,-15.315,10.397,-7.789,-15.315,10.397
150269.816,0.985,-0.055,-0.138,-0.082,3285,0,71,3387,312,619,92,821,47,0.939,60,1,23.631,0.483,-1.580,-3.980,23.240,-0.302,0.217,0.986,0.104,0.472,0.126,0.274,0.016,1.290,1.206,2,2,0,0,7,255,1000,250,253,1000,-7.854,-15.292,10.518,-7.854,-15.292,10.518
150274.817,0.985,-0.056,-0.138,-0.082,3281,0,72,3375,316,621,103,837,47,0.939,60,1,22.716,0.597,-4.160,-4.660,21.840,-0.308,0.215,0.977,0.040,0.596,0.174,0.278,0.018,1.290,1.206,2,2,0,0,7,255,1000,250,258,1000,-7.906,-15.273,10.633,-7.906,-15.273,10.633
150279.815,0.985,-0.056,-0.138,-0.083,3275,0,78,3379,333,624,135,839,47,0.939,60,1,20.942,0.694,-5.560,-5.380,19.460,-0.305,0.202,0.972,-0.022,0.694,0.206,0.284,0.020,1.290,1.206,2,2,0,0,7,255,1000,250,263,1000,-7.944,-15.253,10.734,-7.944,-15.253,10.734
150284.815,0.985,-0.056,-0.138,-0.084,3275,0,82,3379,330,629,138,845,47,0.939,60,1,19.737,0.749,-6.340,-6.180,17.640,-0.294,0.171,0.961,-0.070,0.746,0.216,0.288,0.022,1.290,1.206,2,2,0,0,7,255,1000,250,268,1000,-7.959,-15.228,10.824,-7.959,-15.228,10.824
150289.815,0.985,-0.056,-0.138,-0.085,3261,1,87,3371,339,645,147,840,47,0.939,60,1,19.362,0.737,-6.840,-6.360,16.960,-0.295,0.143,0.962,-0.086,0.732,0.192,0.292,0.024,1.290,1.206,2,2,0,0,7,255,1000,250,273,1000,-7.949,-15.204,10.909,-7.949,-15.204,10.909
150294.815,0.985,-0.056,-0.138,-0.086,3261,0,87,3377,357,628,149,847,47,0.939,60,1,18.474,0.671,-7.880,-6.240,15.500,-0.300,0.130,0.968,-0.094,0.664,0.172,0.294,0.024,1.290,1.206,2,2,0,0,7,255,1000,250,278,1000,-7.927,-15.185,10.986,-7.927,-15.185,10.986
150299.816,0.985,-0.055,-0.138,-0.086,3237,2,87,3355,349,627,148,840,47,0.939,60,1,18.111,0.593,-9.760,-6.420,13.840,-0.303,0.116,0.958,-0.102,0.584,0.150,0.296,0.026,1.290,1.206,2,2,0,0,7,255,1000,250,283,1000,-7.879,-15.172,11.053,-7.879,-15.172,11.053
150304.817,0.985,-0.055,-0.138,-0.087,3237,5,97,3360,356,632,155,851,47,0.939,60,1,17.625,0.507,-10.800,-6.720,12.200,-0.313,0.115,0.943,-0.114,0.494,0.122,0.298,0.026,1.290,1.206,2,2,0,0,7,255,1000,250,288,1000,-7.825,-15.170,11.114,-7.825,-15.170,11.114
150309.816,0.985,-0.054,-0.138,-0.087,3230,10,97,3351,356,638,159,831,47,0.939,60,1,16.145,0.448,-10.440,-8.320,9.080,-0.331,0.128,0.938,-0.150,0.422,0.078,0.298,0.026,1.290,1.206,2,2,0,0,7,255,1000,250,293,1000,-7.781,-15.180,11.159,-7.781,-15.180,11.159
150314.815,0.985,-0.054,-0.138,-0.087,3217,9,104,3341,355,639,157,839,47,0.939,60,1,14.238,0.442,-9.220,-9.720,4.820,-0.340,0.143,0.941,-0.218,0.384,0.044,0.298,0.024,1.290,1.206,2,2,0,0,7,255,1000,250,298,1000,-7.751,-15.191,11.184,-7.751,-15.191,11.184
150319.815,0.985,-0.054,-0.138,-0.087,3223,16,109,3345,379,637,161,844,47,0.939,60,1,14.100,0.478,-8.180,-11.420,-1.220,-0.346,0.152,0.959,-0.292,0.378,0.032,0.300,0.024,1.290,1.206,2,2,0,0,7,255,1000,250,303,1000,-7.722,-15.192,11.177,-7.722,-15.192,11.177
150324.815,0.985,-0.053,-0.138,-0.087,3223,18,123,3341,384,651,167,853,47,0.939,60,1,18.110,0.512,-8.720,-12.700,-9.520,-0.338,0.143,0.975,-0.350,0.374,0.060,0.300,0.022,1.290,1.206,2,2,0,0,7,255,1000,250,308,1000,-7.668,-15.178,11.124,-7.668,-15.178,11.124
150329.816,0.985,-0.053,-0.137,-0.086,3195,21,136,3328,395,637,167,859,47,0.939,60,1,23.747,0.523,-10.500,-12.780,-17.040,-0.296,0.119,0.973,-0.374,0.366,0.084,0.300,0.022,1.290,1.206,2,2,0,0,7,255,1000,250,313,1000,-7.580,-15.142,11.028,-7.580,-15.142,11.028
150334.816,0.986,-0.052,-0.137,-0.086,3181,11,153,3339,405,636,173,879,47,0.939,60,1,26.653,0.453,-12.940,-12.220,-19.840,-0.245,0.080,0.958,-0.308,0.332,0.092,0.300,0.020,1.290,1.206,2,2,0,0,7,255,1000,250,318,1000,-7.453,-15.084,10.914,-7.453,-15.084,10.914
150339.816,0.986,-0.051,-0.136,-0.085,3166,21,170,3335,397,633,177,885,47,0.939,60,1,25.405,0.301,-14.100,-11.360,-17.820,-0.220,0.036,0.941,-0.162,0.254,0.036,0.300,0.018,1.290,1.206,2,2,0,0,7,255,1000,250,323,1000,-7.300,-15.019,10.809,-7.300,-15.019,10.809
150344.815,0.986,-0.049,-0.135,-0.084,3165,25,175,3290,405,638,181,885,47,0.939,60,1,22.524,0.128,-11.960,-10.940,-15.640,-0.241,0.005,0.947,-0.030,0.124,-0.046,0.300,0.018,1.290,1.206,2,2,0,0,7,255,1000,250,328,1000,-7.134,-14.965,10.713,-7.134,-14.965,10.713
150349.815,0.986,-0.048,-0.135,-0.084,3159,22,184,3315,409,651,189,891,47,0.939,60,1,20.962,0.085,-9.520,-11.180,-14.960,-0.254,0.007,0.961,0.076,-0.038,-0.112,0.300,0.016,1.290,1.206,2,2,0,0,7,255,1000,250,333,1000,-6.977,-14.919,10.622,-6.977,-14.919,10.622
150354.815,0.986,-0.047,-0.134,-0.083,3160,27,189,3311,413,655,219,889,47,0.939,60,1,19.677,0.226,-10.380,-10.940,-12.640,-0.235,0.053,0.955,0.154,-0.166,-0.140,0.300,0.014,1.290,1.206,2,2,0,0,7,255,1000,250,338,1000,-6.854,-14.857,10.545,-6.854,-14.857,10.545
150359.815,0.986,-0.046,-0.133,-0.083,3141,19,199,3291,426,649,237,903,47,0.939,60,1,17.078,0.266,-11.540,-9.960,-7.700,-0.240,0.094,0.955,0.204,-0.170,-0.152,0.298,0.012,1.290,1.206,2,2,0,0,7,255,1000,250,343,1000,-6.764,-14.800,10.497,-6.764,-14.800,10.497
150364.817,0.987,-0.046,-0.133,-0.083,3136,25,203,3299,435,651,243,907,47,0.939,60,1,15.272,0.264,-9.520,-9.660,-7.020,-0.284,0.086,0.984,0.232,-0.126,-0.160,0.298,0.012,1.290,1.206,2,2,0,0,7,255,1000,250,348,1000,-6.679,-14.771,10.454,-6.679,-14.771,10.454
150369.816,0.987,-0.045,-0.133,-0.082,3128,19,217,3263,441,653,251,913,47,0.939,60,1,18.514,0.199,-10.380,-10.940,-10.740,-0.314,0.115,0.989,0.190,-0.058,-0.092,0.298,0.010,1.290,1.206,2,2,0,0,7,255,1000,250,353,1000,-6.609,-14.753,10.395,-6.609,-14.753,10.395
150374.815,0.987,-0.045,-0.133,-0.082,3109,21,224,3275,452,647,249,915,47,0.939,60,1,19.819,0.096,-13.360,-11.120,-9.520,-0.303,0.168,0.986,0.096,0.008,-0.006,0.298,0.008,1.290,1.206,2,2,0,0,7,255,1000,250,358,1000,-6.559,-14.726,10.343,-6.559,-14.726,10.343
150379.815,0.987,-0.045,-0.132,-0.081,3089,21,238,3253,466,651,252,916,47,0.939,60,1,23.707,0.153,-13.360,-10.580,-16.480,-0.352,0.168,1.005,0.018,0.152,0.062,0.296,0.006,1.290,1.206,2,2,0,0,7,255,1000,250,363,1000,-6.492,-14.719,10.257,-6.492,-14.719,10.257
150384.815,0.987,-0.044,-0.132,-0.080,3079,22,252,3255,475,657,295,926,47,0.939,60,1,33.251,0.288,-13.980,-11.480,-27.900,-0.312,0.188,1.020,-0.046,0.284,0.174,0.296,0.006,1.290,1.206,2,2,0,0,7,255,1000,250,368,1000,-6.405,-14.689,10.109,-6.405,-14.689,10.109
150389.816,0.987,-0.043,-0.132,-0.079,3063,24,267,3095,493,660,303,927,47,0.939,60,1,36.273,0.385,-18.980,-10.200,-29.180,-0.268,0.146,1.003,-0.098,0.372,0.266,0.296,0.004,1.290,1.206,2,2,0,0,7,255,1000,250,373,1000,-6.279,-14.653,9.954,-6.279,-14.653,9.954
150394.817,0.987,-0.042,-0.131,-0.078,3047,16,279,2750,507,667,316,941,47,0.939,60,1,40.544,0.436,-20.940,-9.040,-33.520,-0.250,0.068,1.004,-0.056,0.432,0.286,0.296,0.002,1.290,1.206,2,2,0,0,7,255,1000,250,378,1000,-6.114,-14.622,9.775,-6.114,-14.622,9.775
150399.816,0.988,-0.040,-0.131,-0.076,3017,20,293,2748,510,663,329,947,47,0.939,60,1,40.829,0.343,-24.600,-9.600,-31.140,-0.252,0.037,0.979,0.020,0.342,0.278,0.296,0.002,1.290,1.206,2,2,0,0,7,255,1000,250,383,1000,-5.926,-14.590,9.608,-5.926,-14.590,9.608
150404.816,0.988,-0.039,-0.130,-0.075,3013,27,305,3242,531,665,332,967,47,0.939,60,1,41.280,0.230,-25.640,-8.980,-31.080,-0.266,0.017,0.957,0.080,0.216,0.220,0.296,0.000,1.290,1.206,2,2,0,0,7,255,1000,250,388,1000,-5.728,-14.564,9.442,-5.728,-14.564,9.442
150409.817,0.988,-0.038,-0.130,-0.074,2983,35,359,3152,535,674,343,964,47,0.939,60,1,42.112,0.148,-22.880,-9.480,-34.060,-0.288,0.033,0.965,0.094,0.114,0.166,0.000,0.000,1.290,1.206,2,2,0,0,7,255,1000,250,393,1000,-5.547,-14.542,9.260,-5.547,-14.542,9.260
150414.815,0.988,-0.036,-0.129,-0.073,2939,27,376,3003,541,664,349,971,47,0.939,60,1,42.253,0.108,-25.200,-9.960,-32.420,-0.259,0.067,0.964,0.104,0.030,0.112,0.000,0.000,1.290,1.206,2,2,0,0,7,255,1000,250,398,1000,-5.367,-14.509,9.088,-5.367,-14.509,9.088
150419.815,0.988,-0.035,-0.129,-0.071,2909,37,394,3259,551,649,363,979,47,0.939,60,1,44.370,0.075,-21.600,-9.160,-37.660,-0.285,0.060,0.978,0.070,0.028,0.078,0.000,0.000,1.290,1.206,2,2,0,0,7,255,1000,250,403,1000,-5.199,-14.486,8.890,-5.199,-14.486,8.890
150424.816,0.989,-0.034,-0.129,-0.070,2873,37,413,2951,565,645,371,979,47,0.939,60,1,44.566,0.090,-25.140,-10.460,-35.280,-0.248,0.054,0.971,0.084,0.032,0.048,0.000,0.000,1.290,1.206,2,2,0,0,7,255,1000,250,408,1000,-5.016,-14.449,8.702,-5.016,-14.449,8.702
150429.816,0.989,-0.032,-0.128,-0.068,2841,41,424,3117,589,655,380,983,47,0.939,60,1,46.013,0.090,-22.580,-9.780,-38.880,-0.272,0.003,0.972,0.086,0.028,0.030,0.000,0.000,1.290,1.206,2,2,0,0,7,255,1000,250,413,1000,-4.833,-14.420,8.497,-4.833,-14.420,8.497
150434.815,0.989,-0.031,-0.128,-0.067,2797,45,455,3054,605,649,397,981,47,0.939,60,1,43.695,0.112,-26.620,-11.740,-32.600,-0.255,0.034,0.981,0.112,0.004,0.014,0.000,0.000,1.290,1.206,2,2,0,0,7,255,1000,250,418,1000,-4.642,-14.374,8.323,-4.642,-14.374,8.323
150439.815,0.989,-0.030,-0.127,-0.065,2747,43,474,2994,625,648,404,999,47,0.939,60,1,48.849,0.117,-26.240,-10.880,-39.740,-0.280,0.020,0.981,0.108,-0.044,0.018,0.000,0.000,1.290,1.206,2,2,0,0,7,255,1000,250,423,1000,-4.448,-14.338,8.113,-4.448,-14.338,8.113
150444.815,0.990,-0.028,-0.127,-0.064,2713,43,472,3044,630,645,416,995,47,0.939,60,1,50.010,0.152,-28.800,-12.460,-38.940,-0.256,0.009,0.984,0.128,-0.082,0.022,0.000,0.000,1.290,1.206,2,2,0,0,7,255,1000,250,428,1000,-4.243,-14.289,7.907,-4.243,-14.289,7.907
150449.815,0.990,-0.026,-0.126,-0.062,2669,51,491,3081,567,659,429,1003,47,0.939,60,1,51.460,0.187,-31.320,-13.020,-38.700,-0.252,-0.026,0.955,0.144,-0.120,0.024,0.000,0.000,1.290,1.206,2,2,0,0,7,255,1000,250,433,1000,-4.026,-14.238,7.702,-4.026,-14.238,7.702
150454.816,0.990,-0.025,-0.125,-0.061,2599,48,583,3093,558,651,445,1005,47,0.939,60,1,49.524,0.238,-29.240,-13.560,-37.600,-0.241,-0.017,0.965,0.156,-0.180,-0.016,0.000,0.000,1.290,1.206,2,2,0,0,7,255,1000,250,438,1000,-3.817,-14.182,7.503,-3.817,-14.182,7.503
150459.816,0.990,-0.023,-0.125,-0.059,2533,53,588,3095,572,637,459,1011,47,0.939,60,1,44.386,0.294,-26.860,-12.100,-33.200,-0.234,-0.005,0.951,0.186,-0.228,-0.066,0.000,0.000,1.290,1.206,2,2,0,0,7,255,1000,250,443,1000,-3.621,-14.131,7.326,-3.621,-14.131,7.326
150464.816,0.990,-0.022,-0.124,-0.058,2463,52,605,3079,582,636,473,1015,47,0.939,60,1,41.618,0.313,-25.140,-12.840,-30.580,-0.248,0.022,0.950,0.208,-0.234,-0.108,0.000,0.000,1.290,1.206,2,2,0,0,7,255,1000,250,448,1000,-3.442,-14.077,7.163,-3.442,-14.077,7.163
150469.817,0.990,-0.021,-0.124,-0.057,2358,57,619,3053,599,645,479,1029,47,0.939,60,1,39.489,0.297,-22.220,-11.740,-30.460,-0.241,0.007,0.963,0.212,-0.208,-0.144,0.000,0.000,1.290,1.206,2,2,0,0,7,255,1000,250,453,1000,-3.271,-14.027,7.002,-3.271,-14.027,7.002
150474.815,0.991,-0.020,-0.123,-0.056,2259,57,651,3031,599,637,491,1043,47,0.939,60,1,37.382,0.262,-22.280,-12.780,-27.160,-0.259,0.012,0.970,0.194,-0.176,-0.150,0.000,0.000,1.290,1.206,2,2,0,0,7,255,1000,250,458,1000,-3.105,-13.976,6.857,-3.105,-13.976,6.857
150479.815,0.991,-0.018,-0.122,-0.055,2171,55,677,3007,615,647,503,1043,47,0.939,60,1,37.425,0.231,-20.940,-12.520,-28.380,-0.259,0.008,0.985,0.172,-0.154,-0.132,0.000,0.000,1.290,1.206,2,2,0,0,7,255,1000,250,463,1000,-2.944,-13.924,6.706,-2.944,-13.924,6.706
150484.816,0.991,-0.017,-0.122,-0.054,2053,54,720,2985,628,635,519,1047,47,0.939,60,1,38.721,0.198,-23.020,-14.060,-27.780,-0.295,0.015,0.984,0.148,-0.132,-0.090,0.000,0.000,1.290,1.206,2,2,0,0,7,255,1000,250,468,1000,-2.779,-13.875,6.559,-2.779,-13.875,6.559
150489.816,0.991,-0.016,-0.121,-0.052,1931,59,729,2950,660,629,533,1043,47,0.939,60,1,43.675,0.123,-23.020,-14.180,-34.300,-0.298,0.041,1.003,0.062,-0.106,-0.042,0.000,0.000,1.290,1.206,2,2,0,0,7,255,1000,250,473,1000,-2.617,-13.821,6.379,-2.617,-13.821,6.379
150494.815,0.991,-0.015,-0.121,-0.051,1803,53,776,2899,679,607,543,1039,47,0.939,60,0,50.047,0.384,-27.400,-14.900,-39.140,-0.273,0.036,1.018,-0.282,0.260,0.356,0.000,0.000,1.267,1.188,3,2,0,0,7,255,1000,250,478,1000,-2.427,-13.754,6.174,-2.427,-13.754,6.174
150499.815,0.991,-0.013,-0.120,-0.049,1700,48,799,2885,683,613,557,1065,47,0.939,60,0,51.696,0.263,-29.960,-15.280,-39.260,-0.250,-0.004,0.979,-0.040,0.260,0.356,0.000,0.000,1.267,1.188,3,2,0,0,7,255,1000,250,483,1000,-2.225,-13.685,5.969,-2.225,-13.685,5.969
150504.816,0.992,-0.012,-0.119,-0.048,1567,53,831,2841,715,615,583,1070,47,0.939,60,0,49.282,0.124,-29.600,-15.700,-36.140,-0.225,-0.017,0.971,0.110,-0.058,-0.002,0.000,0.002,1.267,1.188,3,2,0,0,7,255,1000,250,488,1000,-2.026,-13.612,5.779,-2.026,-13.612,5.779
150509.817,0.992,-0.010,-0.118,-0.047,1429,51,841,2767,740,619,603,1061,47,0.939,60,0,45.737,0.207,-27.840,-15.940,-32.600,-0.241,-0.020,0.974,0.164,-0.126,-0.076,0.002,0.002,1.267,1.188,3,2,0,0,7,255,1000,250,493,1000,-1.840,-13.537,5.608,-1.840,-13.537,5.608
150514.816,0.992,-0.009,-0.118,-0.045,1261,43,867,2715,760,592,615,1080,47,0.939,60,0,46.575,0.207,-28.620,-18.200,-31.920,-0.278,0.008,0.979,0.164,-0.126,-0.076,0.002,0.002,1.267,1.188,3,2,0,0,7,255,1000,250,498,1000,-1.653,-13.452,5.441,-1.653,-13.452,5.441
150519.816,0.992,-0.007,-0.117,-0.044,1133,42,883,2621,785,603,635,1097,47,0.939,60,0,47.697,0.188,-28.880,-18.620,-33.080,-0.272,-0.033,0.989,-0.130,-0.136,0.060,0.004,0.002,1.267,1.188,3,2,0,0,7,255,1000,250,503,1000,-1.463,-13.365,5.268,-1.463,-13.365,5.268
150524.816,0.992,-0.006,-0.116,-0.043,943,40,893,2492,803,589,663,1079,47,0.939,60,0,46.056,0.271,-29.660,-20.880,-28.380,-0.253,-0.066,0.999,-0.130,-0.238,0.134,0.006,0.002,1.267,1.188,3,2,0,0,7,255,1000,250,508,1000,-1.272,-13.264,5.119,-1.272,-13.264,5.119
150529.815,0.992,-0.004,-0.115,-0.042,815,36,920,2358,827,582,669,1097,47,0.939,60,0,43.011,0.271,-28.560,-22.900,-22.580,-0.273,-0.023,1.010,-0.130,-0.238,0.184,0.006,0.002,1.267,1.188,3,2,0,0,7,255,1000,250,513,1000,-1.095,-13.153,5.000,-1.095,-13.153,5.000
150534.815,0.993,-0.003,-0.114,-0.041,655,39,933,2185,837,589,680,1101,47,0.939,60,0,45.095,0.161,-28.620,-24.920,-24.360,-0.292,0.033,1.007,-0.138,-0.082,0.344,0.006,0.002,1.267,1.188,3,2,0,0,7,255,1000,250,518,1000,-0.921,-13.033,4.873,-0.921,-13.033,4.873
150539.815,0.993,-0.002,-0.113,-0.040,527,30,952,2007,855,576,711,1121,47,0.939,60,0,45.649,0.628,-24.300,-26.800,-27.840,-0.307,0.048,1.007,-0.400,0.484,0.368,0.006,0.002,1.267,1.188,3,2,0,0,7,255,1000,250,523,1000,-0.765,-12.903,4.728,-0.765,-12.903,4.728
150544.816,0.993,-0.001,-0.111,-0.039,423,16,957,1770,891,564,719,1115,47,0.939,60,0,47.152,0.762,-23.080,-29.560,-28.580,-0.249,0.064,1.009,-0.400,0.648,0.368,0.006,0.002,1.267,1.188,3,2,0,0,7,255,1000,250,528,1000,-0.616,-12.757,4.579,-0.616,-12.757,4.579
150549.816,0.993,0.000,-0.110,-0.038,309,7,976,1539,927,553,755,1131,47,0.939,60,0,44.821,0.651,-19.220,-31.140,-25.880,-0.243,0.021,1.039,-0.058,0.648,0.400,0.004,0.004,1.267,1.188,3,2,0,0,7,255,1000,250,533,1000,-0.488,-12.602,4.445,-0.488,-12.602,4.445
150554.815,0.993,0.001,-0.108,-0.037,192,0,1005,1263,957,531,789,1135,47,0.939,60,0,43.851,0.485,-20.020,-33.940,-19.240,-0.243,0.000,1.044,0.058,0.482,0.560,0.006,0.004,1.267,1.188,3,2,0,0,7,255,1000,250,538,1000,-0.363,-12.433,4.345,-0.363,-12.433,4.345
150559.815,0.994,0.002,-0.107,-0.037,91,8,1016,1059,987,515,797,1145,47,0.939,60,0,43.253,0.304,-18.680,-35.660,-15.820,-0.268,-0.016,1.033,0.058,0.298,0.560,0.006,0.004,1.267,1.188,3,2,0,0,7,255,1000,250,543,1000,-0.247,-12.257,4.263,-0.247,-12.257,4.263
150564.816,0.994,0.003,-0.105,-0.036,29,0,1024,829,1013,499,813,1157,47,0.939,60,0,44.112,0.262,-15.740,-38.580,-14.480,-0.289,-0.040,1.062,-0.222,0.140,0.604,0.008,0.004,1.267,1.188,3,2,0,0,7,255,1000,250,548,1000,-0.147,-12.066,4.188,-0.147,-12.066,4.188
150569.817,0.994,0.003,-0.103,-0.036,0,1,1041,526,1047,469,851,1151,47,0.939,60,0,44.276,0.392,-6.840,-42.260,-11.300,-0.344,-0.068,1.124,-0.382,-0.090,0.870,0.010,0.002,1.267,1.188,3,2,0,0,7,255,1000,250,553,1000,-0.096,-11.856,4.129,-0.096,-11.856,4.129
150574.816,0.994,0.002,-0.101,-0.036,0,0,1070,360,1064,447,847,1145,47,0.939,60,0,53.940,0.895,14.520,-51.160,9.020,-0.440,-0.082,1.310,-0.806,-0.390,1.568,0.012,0.002,1.267,1.188,3,2,0,0,7,255,1000,250,558,1000,-0.175,-11.599,4.175,-0.175,-11.599,4.175
150579.816,0.994,0.002,-0.098,-0.037,0,0,1082,155,1101,433,875,1167,47,0.939,60,0,65.631,1.394,3.180,-59.580,27.340,-0.442,-0.032,1.409,-1.338,-0.390,3.544,0.016,0.004,1.267,1.188,3,2,0,0,7,255,1000,250,563,1000,-0.215,-11.300,4.313,-0.215,-11.300,4.313
150584.815,0.995,0.003,-0.096,-0.038,0,0,1093,59,1128,439,889,1179,47,0.939,60,0,73.439,1.521,-39.360,-60.860,11.840,-0.463,-0.158,1.214,-1.400,-0.594,3.544,0.018,0.006,1.267,1.188,3,2,0,0,7,255,1000,250,568,1000,-0.026,-10.995,4.372,-0.026,-10.995,4.372
150589.817,0.995,0.006,-0.093,-0.038,0,0,1112,45,1159,362,909,1178,47,0.939,60,0,82.233,2.317,-50.120,-64.840,-6.780,-0.448,-0.320,0.980,-1.884,-1.348,2.650,0.020,0.006,1.267,1.188,3,2,0,0,7,255,1000,250,573,1000,0.234,-10.669,4.338,0.234,-10.669,4.338
150594.815,0.995,0.007,-0.090,-0.038,0,0,1128,26,1183,313,925,1177,47,0.939,60,0,80.107,2.942,-35.220,-71.240,-10.080,-0.356,-0.261,0.906,-1.884,-2.260,0.364,0.022,0.008,1.267,1.188,3,2,0,0,7,255,1000,250,578,1000,0.422,-10.312,4.289,0.422,-10.312,4.289
150599.815,0.996,0.008,-0.086,-0.037,0,0,1133,19,1176,283,949,1174,47,0.939,60,0,79.720,2.697,-18.120,-77.040,-9.580,-0.326,-0.173,0.963,-1.472,-2.260,-0.038,0.024,0.010,1.267,1.188,3,2,0,0,7,255,1000,250,583,1000,0.524,-9.926,4.243,0.524,-9.926,4.243
150604.817,0.996,0.007,-0.083,-0.037,0,0,1152,27,1239,267,953,1184,47,0.939,60,0,81.761,1.823,8.720,-81.260,-2.380,-0.310,-0.053,1.035,-1.220,-1.354,-0.038,0.026,0.010,1.267,1.188,3,2,0,0,7,255,1000,250,588,1000,0.485,-9.518,4.234,0.485,-9.518,4.234
150609.816,0.996,0.006,-0.079,-0.037,0,0,1159,31,1271,232,996,1193,47,0.939,60,0,87.978,1.231,15.800,-86.500,2.860,-0.332,-0.004,1.095,-1.220,-0.166,0.608,0.028,0.012,1.267,1.188,3,2,0,0,7,255,1000,250,593,1000,0.406,-9.085,4.252,0.406,-9.085,4.252
150614.815,0.996,0.005,-0.075,-0.037,0,0,1167,29,1299,215,1003,1183,47,0.939,60,0,93.950,1.338,21.660,-91.320,4.260,-0.360,-0.022,1.144,-1.336,0.070,1.214,0.030,0.012,1.267,1.188,3,2,0,0,7,255,1000,250,598,1000,0.297,-8.628,4.276,0.297,-8.628,4.276
150619.815,0.997,0.004,-0.071,-0.037,0,0,1175,6,1323,181,1021,1197,47,0.939,60,0,97.371,1.478,18.000,-95.660,2.500,-0.345,-0.051,1.190,-1.476,0.070,1.712,0.032,0.016,1.267,1.188,3,2,0,0,7,255,1000,250,603,1000,0.208,-8.149,4.291,0.208,-8.149,4.291
150624.815,0.997,0.004,-0.067,-0.038,0,0,1195,0,1355,158,1048,1213,47,0.939,60,0,100.926,1.491,10.000,-100.420,1.340,-0.319,-0.089,1.176,-1.476,-0.214,1.942,0.036,0.022,1.267,1.188,3,2,0,0,7,255,1000,250,608,1000,0.160,-7.646,4.299,0.160,-7.646,4.299
150629.815,0.997,0.003,-0.062,-0.038,0,0,1195,0,1350,140,1085,1231,47,0.939,60,0,105.659,1.449,7.880,-105.240,5.120,-0.300,-0.101,1.137,-1.324,-0.588,1.942,0.038,0.028,1.267,1.188,3,2,0,0,7,255,1000,250,613,1000,0.121,-7.119,4.326,0.121,-7.119,4.326
150634.816,0.998,0.003,-0.057,-0.038,0,0,1189,0,1405,133,1083,1242,47,0.939,60,0,112.155,1.409,7.620,-111.280,11.720,-0.259,-0.038,1.121,-1.280,-0.588,1.526,0.042,0.036,1.267,1.188,3,2,0,0,7,255,1000,250,618,1000,0.078,-6.561,4.386,0.078,-6.561,4.386
150639.816,0.998,0.002,-0.052,-0.039,0,0,1201,0,1436,111,1114,1213,47,0.939,60,0,117.654,1.066,11.420,-115.500,19.280,-0.234,0.068,1.134,-1.062,-0.088,1.392,0.046,0.044,1.267,1.188,3,2,0,0,7,255,1000,250,623,1000,0.014,-5.983,4.483,0.014,-5.983,4.483
150644.815,0.998,0.001,-0.047,-0.040,0,0,1195,0,1465,88,1127,1198,47,0.939,60,0,125.893,1.421,17.080,-120.800,31.060,-0.242,0.162,1.184,-1.062,0.944,1.392,0.054,0.054,1.267,1.188,3,2,0,0,7,255,1000,250,628,1000,-0.084,-5.378,4.638,-0.084,-5.378,4.638
150649.815,0.998,0.000,-0.041,-0.042,0,0,1191,0,1483,85,1143,1193,47,0.939,60,0,134.148,2.200,17.220,-126.660,40.700,-0.257,0.249,1.261,-1.218,1.832,1.880,0.060,0.062,1.267,1.188,3,2,0,0,7,255,1000,250,633,1000,-0.185,-4.743,4.841,-0.185,-4.743,4.841
150654.815,0.998,-0.000,-0.036,-0.044,0,0,1195,0,1503,69,1171,1208,47,0.939,60,0,134.679,3.035,4.220,-129.220,37.720,-0.242,0.330,1.296,-1.508,2.634,2.632,0.070,0.072,1.267,1.188,3,2,0,0,7,255,1000,250,638,1000,-0.217,-4.096,5.027,-0.217,-4.096,5.027
150659.815,0.999,0.000,-0.030,-0.045,0,0,1193,0,1494,45,1203,1197,47,0.939,60,0,131.458,3.734,-16.000,-128.680,21.600,-0.210,0.430,1.286,-1.508,3.416,2.814,0.076,0.080,1.267,1.188,3,2,0,0,7,255,1000,250,643,1000,-0.141,-3.451,5.133,-0.141,-3.451,5.133
150664.817,0.999,0.001,-0.025,-0.045,0,0,1177,0,1531,31,1206,1187,47,0.939,60,0,130.258,4.654,-30.880,-126.120,10.360,-0.246,0.428,1.245,-1.552,4.388,2.814,0.084,0.088,1.267,1.188,3,2,0,0,7,255,1000,250,648,1000,0.014,-2.819,5.184,0.014,-2.819,5.184
150669.816,0.999,0.002,-0.019,-0.045,0,0,1171,0,1555,23,1222,1163,47,0.939,60,0,130.775,4.822,-22.760,-128.680,5.060,-0.361,0.365,1.231,-2.000,4.388,2.402,0.090,0.094,1.267,1.188,3,2,0,0,7,255,1000,250,653,1000,0.130,-2.175,5.210,0.130,-2.175,5.210
150674.815,0.999,0.002,-0.013,-0.045,0,0,1143,0,1564,19,1239,1141,47,0.939,60,0,138.824,4.889,3.360,-138.740,-3.480,-0.492,0.253,1.327,-3.216,3.682,2.402,0.094,0.098,1.267,1.188,3,2,0,0,7,255,1000,250,658,1000,0.117,-1.480,5.194,0.117,-1.480,5.194
150679.815,0.999,0.000,-0.006,-0.045,0,0,1130,0,1575,21,1251,1119,47,0.939,60,0,152.432,5.144,20.380,-150.220,-15.940,-0.624,0.044,1.544,-4.516,2.462,3.224,0.098,0.100,1.267,1.188,3,2,0,0,7,255,1000,250,663,1000,0.020,-0.728,5.115,0.020,-0.728,5.115
150684.815,0.999,-0.000,0.001,-0.043,0,0,1113,0,1589,11,1270,1062,47,0.939,60,0,168.178,5.773,14.100,-164.940,-29.660,-0.772,-0.160,1.815,-5.766,0.278,5.312,0.100,0.102,1.267,1.188,3,2,0,0,7,255,1000,250,668,1000,-0.047,0.097,4.966,-0.047,0.097,4.966
150689.815,0.999,0.000,0.009,-0.042,0,0,1097,0,1597,11,1293,964,47,0.939,60,0,188.123,7.495,-21.300,-183.480,-35.660,-0.819,-0.174,1.958,-7.258,-1.870,7.878,0.102,0.102,1.267,1.188,3,2,0,0,7,255,1000,250,673,1000,0.061,1.016,4.788,0.061,1.016,4.788
150694.816,0.999,0.002,0.018,-0.040,0,0,1039,0,1580,9,1311,939,47,0.939,60,0,214.366,8.237,-60.920,-202.580,-34.680,-0.830,-0.108,1.979,-8.022,-1.870,9.156,0.104,0.100,1.267,1.188,3,2,0,0,7,255,1000,250,678,1000,0.364,2.030,4.618,0.364,2.030,4.618
150699.816,0.999,0.006,0.028,-0.039,0,0,1007,0,1575,9,1301,903,47,0.939,60,0,239.315,8.637,-83.260,-222.600,-28.080,-0.802,0.071,1.916,-8.542,-1.280,9.156,0.104,0.098,1.267,1.188,3,2,0,0,7,255,1000,250,683,1000,0.778,3.146,4.489,0.778,3.146,4.489
150704.817,0.999,0.009,0.038,-0.038,0,0,925,0,1568,13,1302,841,47,0.939,60,0,253.166,8.774,-76.120,-240.620,-20.020,-0.823,0.124,1.920,-8.752,0.622,8.412,0.108,0.096,1.267,1.188,3,2,0,0,7,255,1000,250,688,1000,1.156,4.351,4.408,1.156,4.351,4.408
150709.815,0.998,0.012,0.050,-0.038,0,0,907,0,1543,12,1291,759,47,0.939,60,0,281.746,9.474,-83.000,-269.240,-1.340,-0.925,0.156,2.062,-9.394,1.230,8.412,0.114,0.098,1.267,1.188,3,2,0,0,7,255,1000,250,693,1000,1.577,5.698,4.434,1.577,5.698,4.434
150714.815,0.997,0.016,0.063,-0.038,0,0,829,0,1523,10,1299,775,47,0.939,60,0,314.773,11.093,-98.700,-298.600,13.360,-1.041,0.316,2.192,-10.978,1.592,9.266,0.126,0.106,1.267,1.188,3,2,0,0,7,255,1000,250,698,1000,2.086,7.188,4.549,2.086,7.188,4.549
150719.815,0.996,0.020,0.078,-0.039,0,0,768,0,1499,6,1245,723,47,0.939,60,0,346.396,13.289,-112.860,-326.560,24.720,-1.139,0.570,2.205,-12.894,3.218,9.466,0.144,0.120,1.267,1.188,3,2,0,0,7,255,1000,250,703,1000,2.680,8.815,4.742,2.680,8.815,4.742
150724.816,0.994,0.025,0.094,-0.040,0,0,757,0,1460,19,1231,645,47,0.939,60,0,382.687,15.717,-118.780,-363.600,11.660,-1.186,0.713,2.314,-14.624,5.760,9.818,0.160,0.136,1.267,1.188,3,2,0,0,7,255,1000,250,708,1000,3.304,10.629,4.897,3.304,10.629,4.897
150729.816,0.993,0.030,0.111,-0.040,0,0,711,0,1397,16,1188,587,47,0.939,60,0,414.132,17.140,-125.680,-394.600,0.780,-1.225,0.578,2.345,-16.010,6.120,9.480,0.182,0.158,1.267,1.188,3,2,0,0,7,255,1000,250,713,1000,3.962,12.599,5.028,3.962,12.599,5.028
150734.815,0.990,0.035,0.129,-0.040,0,0,661,0,1308,21,1128,553,47,0.939,60,0,441.316,18.179,-132.200,-420.920,10.440,-1.244,0.592,2.278,-17.032,6.356,9.480,0.204,0.182,1.267,1.188,3,2,0,0,7,255,1000,250,718,1000,4.677,14.694,5.245,4.677,14.694,5.245
150739.815,0.987,0.038,0.149,-0.041,0,0,598,0,1221,29,1055,467,47,0.939,60,0,458.738,18.878,-107.300,-445.940,8.040,-1.328,0.632,2.389,-17.776,6.356,8.082,0.232,0.212,1.267,1.188,3,2,0,0,7,255,1000,250,723,1000,5.283,16.912,5.487,5.283,16.912,5.487
150744.815,0.984,0.042,0.169,-0.040,0,0,489,0,1111,23,1015,411,47,0.939,60,0,483.459,20.767,-113.160,-469.800,-14.660,-1.316,0.645,2.522,-19.610,6.836,8.082,0.264,0.242,1.267,1.188,3,2,0,0,7,255,1000,250,728,1000,5.902,19.257,5.651,5.902,19.257,5.651
150749.815,0.980,0.046,0.190,-0.038,0,0,431,0,937,27,949,439,47,0.939,60,0,499.741,21.521,-117.060,-483.040,-52.060,-1.159,0.604,2.609,-20.296,7.156,8.452,0.298,0.278,1.267,1.188,3,2,0,0,7,255,1000,250,733,1000,6.492,21.687,5.653,6.492,21.687,5.653
150754.816,0.975,0.050,0.211,-0.036,0,0,429,0,840,21,821,435,47,0.939,60,0,501.966,21.521,-105.900,-488.120,-49.940,-1.062,0.053,2.657,-20.296,7.156,8.894,0.334,0.314,1.267,1.188,3,2,0,0,7,255,1000,250,738,1000,7.041,24.141,5.696,7.041,24.141,5.696
150759.816,0.970,0.054,0.233,-0.035,0,0,312,0,699,26,651,425,47,0.939,60,0,523.672,20.252,-130.800,-506.600,-21.920,-0.820,-0.665,2.452,-20.146,2.070,8.894,0.380,0.360,1.267,1.188,3,2,0,0,7,255,1000,250,743,1000,7.802,26.668,5.938,7.802,26.668,5.938
150764.817,0.964,0.059,0.255,-0.035,0,0,276,0,573,3,507,411,47,0.939,60,0,537.412,18.283,-136.960,-519.660,2.680,-0.658,-0.921,1.973,-17.668,-4.704,8.568,0.426,0.404,1.267,1.188,3,2,0,0,7,255,1000,250,748,1000,8.695,29.238,6.375,8.695,29.238,6.375
150769.815,0.958,0.063,0.277,-0.037,0,0,210,0,469,6,391,403,47,0.939,60,0,532.384,15.498,-99.000,-521.440,41.620,-0.554,-0.645,1.574,-14.700,-4.908,4.820,0.484,0.462,1.267,1.188,3,2,0,0,7,255,1000,250,753,1000,9.557,31.779,7.093,9.557,31.779,7.093
150774.815,0.951,0.063,0.299,-0.041,0,0,160,0,366,0,263,403,47,0.939,60,0,543.264,15.176,1.280,-538.160,74.280,-0.624,-0.414,1.721,-14.360,-4.908,1.062,0.546,0.522,1.267,1.188,3,2,0,0,7,255,1000,250,758,1000,10.091,34.367,8.077,10.091,34.367,8.077
150779.815,0.944,0.059,0.322,-0.048,0,0,69,0,285,0,263,371,47,0.939,60,0,582.437,14.619,104.800,-564.400,98.500,-0.941,-0.239,2.376,-14.360,-2.742,1.062,0.622,0.598,1.267,1.188,3,2,0,0,7,255,1000,250,763,1000,10.278,37.058,9.288,10.278,37.058,9.288
150784.816,0.935,0.055,0.346,-0.056,0,0,52,0,170,0,185,379,47,0.939,60,0,609.484,21.310,102.720,-588.700,119.800,-1.229,0.046,2.953,-21.272,-1.264,3.162,0.700,0.674,1.267,1.188,3,2,0,0,7,255,1000,250,768,1000,10.660,39.845,10.723,10.660,39.845,10.723
150789.817,0.926,0.056,0.369,-0.062,0,0,33,0,117,0,104,341,47,0.939,60,0,585.689,27.879,-2.560,-574.840,112.180,-1.321,0.571,3.025,-27.862,0.960,3.162,0.788,0.760,1.267,1.188,3,2,0,0,7,255,1000,250,773,1000,11.644,42.558,12.193,11.644,42.558,12.193
150794.815,0.916,0.060,0.391,-0.065,0,0,23,0,87,0,53,303,47,0.939,60,0,563.330,28.414,-117.120,-543.720,89.400,-1.465,0.781,2.462,-27.862,5.574,1.902,0.876,0.848,1.267,1.188,3,2,0,0,7,255,1000,250,778,1000,13.213,45.116,13.608,13.213,45.116,13.608
150799.815,0.906,0.066,0.412,-0.067,0,0,20,0,28,0,3,313,47,0.939,60,0,548.697,28.271,-145.320,-523.880,74.160,-1.567,0.678,1.870,-27.716,5.574,-4.734,0.956,0.928,1.267,1.188,3,2,0,0,7,255,1000,250,783,1000,14.989,47.567,15.053,14.989,47.567,15.053
150804.817,0.896,0.072,0.432,-0.071,0,0,17,0,6,0,0,302,47,0.939,60,0,547.153,24.726,-125.560,-518.200,122.800,-1.774,0.488,1.571,-24.132,5.388,-10.456,1.030,1.002,1.267,1.188,3,2,0,0,7,255,1000,250,788,1000,17.109,49.889,17.034,17.109,49.889,17.034
150809.816,0.886,0.082,0.451,-0.075,0,0,0,0,18,0,0,296,47,0.939,60,0,538.787,23.570,-209.660,-465.520,172.120,-1.603,1.306,1.488,-22.946,5.388,-14.636,1.090,1.062,1.267,1.188,3,2,0,0,7,255,1000,250,793,1000,20.074,51.821,19.501,20.074,51.821,19.501
150814.816,0.877,0.100,0.463,-0.074,0,0,2,0,84,0,0,281,47,0.911,60,0,553.884,24.096,-430.120,-311.180,157.960,-0.867,2.374,0.800,-21.568,10.744,-16.504,1.148,1.120,1.267,1.188,4,2,0,0,7,255,1000,250,798,1000,23.935,52.968,21.656,23.935,52.968,21.656
150819.816,0.873,0.123,0.469,-0.062,0,0,0,0,79,0,0,249,47,0.911,60,0,612.387,24.915,-605.780,-89.440,6.960,0.228,3.232,-0.530,-11.922,21.878,-18.058,1.200,1.172,1.267,1.188,4,2,0,0,7,255,1000,250,803,1000,27.266,53.357,22.030,27.266,53.357,22.030
150824.815,0.872,0.143,0.466,-0.044,0,0,0,0,81,0,0,259,47,0.911,60,0,601.810,22.679,-570.680,128.520,-141.360,0.123,1.209,-1.924,5.976,21.878,-19.540,1.256,1.228,1.267,1.188,4,2,0,0,7,255,1000,250,808,1000,28.882,53.124,20.484,28.882,53.124,20.484
150829.815,0.875,0.151,0.458,-0.033,0,0,0,0,0,0,0,261,47,0.911,60,0,375.412,15.816,-275.820,232.460,-104.020,-0.715,-0.672,-2.265,13.624,8.034,-22.296,1.316,1.288,1.267,1.188,4,2,0,0,7,255,1000,250,813,1000,28.928,52.359,18.805,28.928,52.359,18.805
150834.815,0.880,0.149,0.449,-0.034,0,0,0,0,0,0,0,249,47,0.911,60,0,246.086,18.490,87.280,229.420,17.520,-1.584,-1.824,-1.689,13.624,-12.500,-25.384,1.394,1.366,1.267,1.188,4,2,0,0,7,255,1000,250,818,1000,27.898,51.309,18.047,27.898,51.309,18.047
150839.815,0.886,0.140,0.440,-0.040,0,0,0,0,0,0,0,247,47,0.911,60,0,341.494,13.112,269.040,204.520,49.060,-1.957,-1.027,0.103,2.896,-12.788,-25.384,1.474,1.446,1.267,1.188,4,2,0,0,7,255,1000,250,823,1000,26.254,50.288,17.656,26.254,50.288,17.656
150844.816,0.891,0.131,0.432,-0.041,0,0,0,0,0,0,0,246,47,0.911,60,0,304.850,18.118,215.460,213.120,-33.020,-2.012,0.340,1.245,-12.834,-12.788,-21.244,1.564,1.536,1.267,1.188,4,2,0,0,7,255,1000,250,828,1000,24.462,49.397,16.717,24.462,49.397,16.717
150849.816,0.896,0.127,0.423,-0.037,0,0,0,0,0,0,0,217,47,0.911,60,0,275.030,20.452,56.580,250.420,-98.640,-1.595,1.214,1.458,-20.322,2.298,-18.556,1.646,1.618,1.267,1.188,4,2,0,0,7,255,1000,250,833,1000,23.086,48.451,15.263,23.086,48.451,15.263
150854.815,0.901,0.128,0.413,-0.031,0,0,0,0,0,0,0,217,47,0.911,60,0,296.254,23.067,-57.920,272.880,-99.740,-1.000,1.104,0.833,-20.322,10.914,-15.984,1.732,1.702,1.267,1.188,4,2,0,0,7,255,1000,250,838,1000,22.286,47.385,13.791,22.286,47.385,13.791
150859.815,0.906,0.131,0.402,-0.027,0,0,0,0,0,0,0,219,47,0.911,60,0,285.647,16.123,-72.080,274.820,-29.540,-0.657,0.795,0.051,-11.868,10.914,-15.984,1.810,1.780,1.267,1.188,4,2,0,0,7,255,1000,250,843,1000,21.954,46.169,12.836,21.954,46.169,12.836
150864.817,0.910,0.133,0.391,-0.027,0,0,0,0,0,0,0,217,47,0.911,60,0,271.327,8.115,-13.300,267.140,45.580,-0.713,0.499,-0.347,-4.098,7.004,-16.256,1.892,1.862,1.267,1.188,4,2,0,0,7,255,1000,250,848,1000,21.733,44.845,12.429,21.733,44.845,12.429
150869.815,0.915,0.132,0.380,-0.029,0,0,0,0,0,0,0,220,47,0.911,60,0,276.028,5.235,47.600,260.720,77.140,-0.972,0.373,-0.268,-4.098,3.258,-18.362,1.958,1.928,1.267,1.188,0,2,0,0,7,255,1000,250,853,1000,21.382,43.492,12.262,21.382,43.492,12.262
150874.816,0.920,0.131,0.369,-0.031,0,0,0,0,0,0,0,218,47,0.911,60,0,289.272,5.046,82.220,270.680,60.420,-1.130,0.388,-0.075,-4.558,2.164,-18.852,2.014,1.980,1.267,1.188,0,2,0,0,7,255,1000,250,858,1000,20.784,42.121,11.983,20.784,42.121,11.983
150879.816,0.925,0.128,0.357,-0.032,0,0,0,0,0,0,0,214,47,0.911,60,0,299.136,7.498,91.560,284.040,20.500,-1.090,0.323,0.111,-7.212,2.050,-18.852,2.048,2.012,1.267,1.188,0,2,0,0,7,255,1000,250,863,1000,19.978,40.755,11.451,19.978,40.755,11.451
150884.816,0.930,0.124,0.345,-0.032,0,0,0,0,0,0,0,219,47,0.911,60,0,316.943,8.536,100.460,300.580,-3.480,-0.929,0.247,0.252,-8.286,2.050,-16.932,2.070,2.036,1.267,1.188,0,2,0,0,7,255,1000,250,868,1000,19.043,39.346,10.774,19.043,39.346,10.774
150889.815,0.935,0.120,0.332,-0.032,0,0,0,0,0,0,0,209,47,0.911,60,0,335.106,8.635,110.960,316.200,-1.220,-0.824,0.224,0.418,-8.388,2.050,-14.488,2.090,2.054,1.267,1.188,0,2,0,0,7,255,1000,250,873,1000,18.085,37.850,10.123,18.085,37.850,10.123
150894.815,0.940,0.116,0.318,-0.032,0,0,0,0,0,0,0,205,47,0.911,60,0,351.045,8.919,117.680,330.560,10.680,-0.836,0.289,0.608,-8.642,2.204,-12.322,2.116,2.080,1.267,1.188,0,2,0,0,7,255,1000,250,878,1000,17.161,36.260,9.560,17.161,36.260,9.560
150899.815,0.946,0.112,0.304,-0.032,0,0,0,0,0,0,0,205,47,0.911,60,0,364.064,10.420,113.960,345.620,10.120,-0.887,0.432,0.796,-9.918,3.196,-10.836,2.140,2.104,1.267,1.188,0,2,0,0,7,255,1000,250,883,1000,16.275,34.591,9.010,16.275,34.591,9.010
150904.817,0.951,0.108,0.289,-0.032,0,0,0,0,0,0,0,203,47,0.911,60,0,373.284,12.407,98.380,360.040,-5.800,-0.887,0.501,0.913,-11.414,4.864,-9.652,2.162,2.124,1.267,1.188,0,2,0,0,7,255,1000,250,888,1000,15.439,32.868,8.384,15.439,32.868,8.384
150909.816,0.956,0.105,0.274,-0.030,0,0,0,0,0,0,0,215,47,0.911,60,0,382.334,12.609,83.180,372.420,-23.740,-0.823,0.412,0.938,-11.540,5.080,-8.478,2.176,2.138,1.267,1.188,0,2,0,0,7,255,1000,250,893,1000,14.653,31.102,7.680,14.653,31.102,7.680
150914.816,0.960,0.102,0.258,-0.028,0,0,0,0,0,0,0,206,47,0.911,60,0,390.463,12.609,78.980,381.020,-32.360,-0.728,0.273,0.940,-11.540,5.080,-7.332,2.186,2.146,1.267,1.188,0,2,0,0,7,255,1000,250,898,1000,13.896,29.297,6.955,13.896,29.297,6.955
150919.815,0.965,0.098,0.241,-0.026,0,0,0,0,0,0,0,206,47,0.911,60,0,397.187,11.314,81.240,387.380,-33.080,-0.645,0.216,0.986,-10.620,3.902,-6.158,2.196,2.158,1.267,1.188,0,2,0,0,7,255,1000,250,903,1000,13.162,27.454,6.257,13.162,27.454,6.257
150924.815,0.969,0.095,0.225,-0.023,0,0,0,0,0,0,0,213,47,0.911,60,0,402.712,10.693,79.520,393.420,-32.780,-0.581,0.277,1.063,-9.956,3.902,-4.894,2.210,2.170,1.267,1.188,0,2,0,0,7,255,1000,250,908,1000,12.470,25.573,5.591,12.470,25.573,5.591
150929.815,0.974,0.092,0.208,-0.021,0,0,0,0,0,0,0,207,47,0.911,60,0,407.593,10.478,70.620,399.880,-35.220,-0.517,0.351,1.099,-9.534,4.346,-3.708,2.222,2.182,1.267,1.188,0,2,0,0,7,255,1000,250,913,1000,11.848,23.657,4.939,11.848,23.657,4.939
150934.815,0.977,0.090,0.191,-0.018,0,0,0,0,0,0,0,205,47,0.911,60,0,411.314,10.209,62.740,404.780,-37.360,-0.452,0.339,1.055,-8.864,5.064,-2.928,2.234,2.194,1.267,1.188,0,2,0,0,7,255,1000,250,918,1000,11.291,21.712,4.300,11.291,21.712,4.300
150939.816,0.981,0.087,0.174,-0.016,0,0,0,0,0,0,0,203,47,0.911,60,0,412.934,9.325,64.320,406.360,-35.340,-0.396,0.278,0.990,-7.830,5.064,-2.724,2.244,2.202,1.267,1.188,0,2,0,0,7,255,1000,250,923,1000,10.760,19.753,3.699,10.760,19.753,3.699
150944.816,0.984,0.084,0.156,-0.013,0,0,0,0,0,0,0,202,47,0.911,60,0,412.384,8.114,73.000,404.780,-29.740,-0.328,0.208,0.950,-6.806,4.418,-2.720,2.254,2.212,1.267,1.188,0,2,0,0,7,255,1000,250,928,1000,10.223,17.791,3.156,10.223,17.791,3.156
150949.815,0.987,0.080,0.139,-0.011,0,0,0,0,0,0,0,209,47,0.911,60,0,410.075,6.852,83.320,400.800,-24.060,-0.228,0.110,0.901,-5.766,3.702,-2.500,2.264,2.222,1.267,1.188,0,2,0,0,7,255,1000,250,933,1000,9.669,15.839,2.671,9.669,15.839,2.671
150954.815,0.990,0.076,0.122,-0.010,0,0,0,0,0,0,0,203,47,0.911,60,0,405.519,5.176,93.500,394.280,-15.700,-0.145,0.049,0.840,-4.412,2.706,-2.422,2.282,2.238,1.267,1.188,0,2,0,0,7,255,1000,250,938,1000,9.099,13.908,2.258,9.099,13.908,2.258
150959.815,0.992,0.071,0.106,-0.009,0,0,0,0,0,0,0,203,47,0.911,60,0,402.214,3.910,116.020,385.060,-6.660,-0.113,0.079,0.833,-3.208,2.236,-2.340,2.300,2.258,1.267,1.188,0,2,0,0,7,255,1000,250,943,1000,8.447,12.012,1.923,8.447,12.012,1.923
150964.817,0.994,0.065,0.089,-0.009,0,0,0,0,0,0,0,197,47,0.911,60,0,402.178,3.454,151.120,372.660,5.860,-0.090,0.150,0.967,-2.632,2.236,-2.340,2.324,2.280,1.267,1.188,0,2,0,0,7,255,1000,250,948,1000,7.649,10.163,1.686,7.649,10.163,1.686
150969.816,0.996,0.058,0.074,-0.009,0,0,0,0,0,0,0,204,47,0.911,60,0,403.526,3.845,178.900,361.140,20.140,-0.077,0.237,1.129,-2.392,3.010,-1.004,2.350,2.306,1.267,1.188,0,2,0,0,7,255,1000,250,953,1000,6.737,8.361,1.558,6.737,8.361,1.558
150974.816,0.997,0.050,0.058,-0.011,0,0,0,0,0,0,0,199,47,0.911,60,0,397.975,4.585,191.780,346.720,37.280,-0.110,0.250,1.282,-2.392,3.912,0.592,2.378,2.334,1.267,1.188,0,2,0,0,7,255,1000,250,958,1000,5.781,6.618,1.555,5.781,6.618,1.555
150979.815,0.998,0.041,0.043,-0.013,0,0,0,0,0,0,0,204,47,0.911,60,0,401.934,4.582,193.600,348.620,50.340,-0.102,0.259,1.571,-2.228,4.004,2.146,2.408,2.362,1.267,1.188,0,2,0,0,7,255,1000,250,963,1000,4.825,4.861,1.644,4.825,4.861,1.644
150984.815,0.999,0.034,0.027,-0.015,0,0,0,0,0,0,0,209,47,0.911,60,0,403.650,4.671,189.020,351.680,59.380,-0.269,0.244,1.582,-2.406,4.004,5.090,2.440,2.396,1.267,1.188,0,2,0,0,7,255,1000,250,968,1000,3.895,3.086,1.807,3.895,3.086,1.807
150989.817,0.999,0.026,0.012,-0.017,0,0,0,0,0,0,0,211,47,0.911,60,0,402.700,5.010,187.320,350.460,65.240,-0.436,0.234,1.733,-3.384,3.694,5.246,2.476,2.430,1.267,1.188,0,2,0,0,7,255,1000,250,973,1000,2.969,1.318,2.028,2.969,1.318,2.028
150994.815,1.000,0.018,-0.004,-0.019,0,0,0,0,0,0,0,210,47,0.911,60,0,398.943,5.895,180.540,351.480,54.980,-0.572,0.297,1.871,-4.594,3.694,6.848,2.512,2.466,1.267,1.188,0,2,0,0,7,255,1000,250,978,1000,2.072,-0.448,2.225,2.072,-0.448,2.225
150999.816,1.000,0.011,-0.019,-0.020,0,0,0,0,0,0,0,205,47,0.911,60,0,390.675,6.282,166.080,352.700,25.440,-0.617,0.293,1.956,-5.256,3.440,8.370,2.550,2.504,1.267,1.188,0,2,0,0,7,255,1000,250,983,1000,1.242,-2.214,2.301,1.242,-2.214,2.301
151004.817,0.999,0.005,-0.035,-0.020,0,0,0,0,0,0,0,205,47,0.911,60,0,385.488,6.282,150.380,354.780,10.860,-0.522,0.235,1.991,-5.256,3.440,9.424,2.588,2.540,1.267,1.188,0,2,0,0,7,255,1000,250,988,1000,0.492,-3.988,2.328,0.492,-3.988,2.328
151009.816,0.999,-0.001,-0.050,-0.021,0,0,0,0,0,0,0,201,47,0.911,60,0,382.854,4.549,138.360,356.800,11.280,-0.478,0.108,1.938,-3.670,2.688,9.478,2.628,2.580,1.267,1.188,0,2,0,0,7,255,1000,250,993,1000,-0.201,-5.770,2.380,-0.201,-5.770,2.380
151014.815,0.998,-0.006,-0.066,-0.021,0,0,0,0,0,0,0,192,47,0.911,60,0,382.215,2.894,135.260,357.220,13.660,-0.498,0.065,1.873,-2.614,1.242,9.478,2.666,2.618,1.267,1.188,0,2,0,0,7,255,1000,250,998,1000,-0.884,-7.554,2.466,-0.884,-7.554,2.466
151019.815,0.996,-0.012,-0.082,-0.021,0,0,0,0,0,0,0,190,47,0.911,60,0,383.809,2.425,141.360,356.680,10.300,-0.489,0.110,1.786,-2.262,0.874,8.952,2.706,2.656,1.267,1.188,0,2,1,0,7,255,1000,250,3,1000,-1.601,-9.335,2.557,-1.601,-9.335,2.557
151024.815,0.995,-0.018,-0.097,-0.021,0,0,0,0,0,0,0,203,47,0.911,60,0,387.342,1.944,151.240,356.560,5.060,-0.506,0.161,1.848,-1.736,0.874,8.880,2.740,2.690,1.267,1.188,0,2,1,0,7,255,1000,250,8,1000,-2.370,-11.115,2.645,-2.370,-11.115,2.645
151029.816,0.993,-0.025,-0.113,-0.020,0,0,0,0,0,0,0,192,47,0.911,60,0,387.587,1.509,154.840,355.280,-4.960,-0.479,0.115,1.885,-1.230,0.874,8.880,2.774,2.724,1.267,1.188,0,2,1,0,7,255,1000,250,13,1000,-3.154,-12.890,2.707,-3.154,-12.890,2.707
151034.816,0.991,-0.031,-0.128,-0.019,0,0,0,0,0,0,0,189,47,0.911,60,0,385.974,0.530,156.300,352.700,-12.220,-0.420,0.047,1.903,-0.270,0.456,9.182,2.800,2.750,1.267,1.188,0,2,1,0,7,255,1000,250,18,1000,-3.944,-14.652,2.756,-3.944,-14.652,2.756
151039.816,0.989,-0.038,-0.143,-0.018,0,0,0,0,0,0,0,189,47,0.911,60,0,383.753,1.038,160.400,348.320,-14.540,-0.344,0.010,1.893,0.950,-0.418,9.182,2.826,2.774,1.267,1.188,0,2,1,0,7,255,1000,250,23,1000,-4.759,-16.393,2.818,-4.759,-16.393,2.818
151044.815,0.986,-0.045,-0.158,-0.017,0,0,0,0,0,0,0,192,47,0.911,60,0,383.601,2.435,170.720,343.240,-13.800,-0.256,-0.009,1.904,2.230,-0.978,8.804,2.848,2.796,1.267,1.188,0,2,1,0,7,255,1000,250,28,1000,-5.636,-18.107,2.908,-5.636,-18.107,2.908
151049.815,0.983,-0.052,-0.173,-0.016,0,0,0,0,0,0,0,215,47,0.911,60,0,384.998,3.911,185.360,337.260,-11.000,-0.160,-0.018,1.979,3.658,-1.384,8.740,2.870,2.816,1.267,1.188,0,2,1,0,7,255,1000,250,33,1000,-6.603,-19.789,3.040,-6.603,-19.789,3.040
151054.815,0.980,-0.060,-0.187,-0.015,0,0,0,0,0,0,0,237,47,0.911,60,0,386.507,5.628,200.320,330.500,-5.440,-0.049,-0.005,2.107,5.342,-1.770,8.740,2.888,2.834,1.267,1.188,0,2,1,0,7,255,1000,250,38,1000,-7.668,-21.431,3.230,-7.668,-21.431,3.230
151059.815,0.977,-0.069,-0.201,-0.014,0,0,0,0,0,0,0,214,47,0.911,60,0,387.616,7.607,212.640,324.080,-1.540,0.078,0.057,2.279,7.356,-1.938,9.330,2.906,2.852,1.267,1.188,0,2,1,0,7,255,1000,250,43,1000,-8.820,-23.035,3.473,-8.820,-23.035,3.473
151064.817,0.973,-0.078,-0.215,-0.013,0,0,0,0,0,0,0,214,47,0.911,60,0,388.746,9.926,220.820,319.940,0.600,0.179,0.098,2.456,9.714,-2.042,10.196,2.920,2.864,1.267,1.188,0,2,1,0,7,255,1000,250,48,1000,-10.038,-24.612,3.762,-10.038,-24.612,3.762
151069.816,0.969,-0.088,-0.229,-0.013,0,0,0,0,0,0,0,216,47,0.911,60,0,388.950,12.096,224.800,317.240,10.300,0.198,0.039,2.617,11.908,-2.124,11.072,2.936,2.880,1.267,1.188,0,2,1,0,7,255,1000,250,53,1000,-11.322,-26.160,4.143,-11.322,-26.160,4.143
151074.815,0.965,-0.097,-0.242,-0.013,0,0,0,0,0,0,0,200,47,0.911,60,0,387.581,13.769,226.740,313.640,20.920,0.202,-0.025,2.826,13.354,-3.354,11.894,2.952,2.896,1.267,1.188,0,2,1,0,7,255,1000,250,58,1000,-12.669,-27.670,4.623,-12.669,-27.670,4.623
151079.815,0.961,-0.106,-0.255,-0.013,0,0,0,0,0,0,0,192,47,0.911,60,0,373.225,15.673,211.060,307.000,22.400,0.152,0.021,2.950,14.926,-4.782,13.068,2.974,2.916,1.267,1.188,0,2,1,0,7,255,1000,250,63,1000,-13.972,-29.137,5.148,-13.972,-29.137,5.148
151084.815,0.957,-0.114,-0.267,-0.013,0,0,0,0,0,0,0,202,47,0.911,60,0,349.627,16.509,184.820,296.180,18.920,0.117,0.072,3.036,15.718,-5.050,13.930,2.994,2.936,1.267,1.188,0,2,1,0,7,255,1000,250,68,1000,-15.158,-30.546,5.682,-15.158,-30.546,5.682
151089.817,0.953,-0.121,-0.279,-0.012,0,0,0,0,0,0,0,203,47,0.911,60,0,330.677,17.248,166.920,285.320,-8.800,0.237,0.187,3.084,16.492,-5.050,13.948,3.020,2.962,1.267,1.188,0,2,1,0,7,255,1000,250,73,1000,-16.198,-31.931,6.083,-16.198,-31.931,6.083
151094.816,0.948,-0.126,-0.291,-0.010,0,0,0,0,0,0,0,189,47,0.911,60,0,308.512,18.970,139.640,273.360,-30.900,0.464,0.164,3.065,18.388,-4.662,13.948,3.046,2.986,1.267,1.188,0,2,1,0,7,255,1000,250,78,1000,-17.048,-33.284,6.371,-17.048,-33.284,6.371
151099.816,0.944,-0.130,-0.302,-0.008,0,0,0,0,0,0,0,189,47,0.911,60,0,288.103,21.158,117.560,257.920,-51.580,0.750,0.261,3.042,20.694,-4.406,12.014,3.066,3.006,1.267,1.188,0,2,1,0,7,255,1000,250,83,1000,-17.726,-34.591,6.538,-17.726,-34.591,6.538
151104.817,0.941,-0.132,-0.312,-0.006,0,0,1,0,0,0,0,197,47,0.911,60,0,262.316,23.696,81.540,240.580,-65.440,1.109,0.246,2.964,23.412,-3.656,9.956,3.084,3.022,1.267,1.188,0,2,1,0,7,255,1000,250,88,1000,-18.172,-35.835,6.610,-18.172,-35.835,6.610
151109.815,0.937,-0.134,-0.322,-0.003,0,0,0,0,0,0,0,198,47,0.911,60,0,244.929,26.470,54.560,225.460,-78.620,1.457,0.149,2.791,26.216,-3.656,6.724,3.100,3.038,1.267,1.188,0,2,1,0,7,255,1000,250,93,1000,-18.427,-37.027,6.586,-18.427,-37.027,6.586
151114.815,0.934,-0.134,-0.331,-0.001,0,0,0,0,0,0,0,189,47,0.911,60,0,224.026,28.394,25.520,210.060,-73.560,1.833,0.023,2.582,28.150,-3.712,2.586,3.116,3.052,1.267,1.188,0,2,1,0,7,255,1000,250,98,1000,-18.539,-38.139,6.565,-18.539,-38.139,6.565
151119.815,0.932,-0.133,-0.339,0.001,0,0,4,0,1,0,0,197,47,0.911,60,0,197.236,30.164,5.300,187.420,-61.220,2.105,-0.073,2.302,29.886,-4.088,-2.068,3.130,3.066,1.267,1.188,0,2,1,0,7,255,1000,250,103,1000,-18.569,-39.124,6.575,-18.569,-39.124,6.575
151124.816,0.929,-0.133,-0.346,0.002,0,0,0,0,0,0,0,203,47,0.911,60,0,172.882,30.540,9.880,166.060,-47.060,2.402,-0.186,2.083,30.264,-4.098,-6.508,3.140,3.076,1.267,1.188,0,2,1,0,7,255,1000,250,108,1000,-18.649,-39.986,6.629,-18.649,-39.986,6.629
151129.816,0.927,-0.133,-0.352,0.002,0,0,0,0,0,0,0,206,47,0.911,60,0,147.229,31.314,15.200,144.700,-22.520,2.690,-0.248,1.876,31.036,-4.162,-10.662,3.148,3.082,1.267,1.188,0,2,1,0,7,255,1000,250,113,1000,-18.828,-40.706,6.793,-18.828,-40.706,6.793
151134.815,0.925,-0.134,-0.356,0.002,0,0,0,0,0,0,0,202,47,0.911,60,0,118.247,32.070,29.780,114.420,-1.900,2.887,-0.363,1.676,31.772,-4.362,-14.508,3.152,3.086,1.267,1.188,0,2,1,0,7,255,1000,250,118,1000,-19.127,-41.249,7.027,-19.127,-41.249,7.027
151139.815,0.923,-0.136,-0.360,0.001,0,0,0,0,0,0,0,199,47,0.911,60,0,103.682,32.105,49.260,88.740,21.180,3.047,-0.516,1.564,31.780,-4.556,-17.778,3.154,3.088,1.267,1.188,0,2,1,0,7,255,1000,250,123,1000,-19.588,-41.632,7.356,-19.588,-41.632,7.356
151144.815,0.922,-0.140,-0.362,-0.000,0,0,0,0,0,0,0,207,47,0.911,60,0,112.290,32.247,71.040,67.620,54.680,3.125,-0.754,1.408,31.772,-5.514,-20.224,3.154,3.086,1.267,1.188,0,2,1,0,7,255,1000,250,128,1000,-20.272,-41.856,7.854,-20.272,-41.856,7.854
151149.815,0.920,-0.146,-0.363,-0.003,0,0,0,0,0,0,0,211,47,0.911,60,0,152.526,32.074,107.960,42.520,99.000,3.065,-1.015,1.323,31.260,-7.180,-22.622,3.150,3.082,1.267,1.188,0,2,1,0,7,255,1000,250,133,1000,-21.290,-41.878,8.576,-21.290,-41.878,8.576
151154.816,0.919,-0.154,-0.363,-0.006,0,0,0,0,0,0,0,205,47,0.911,60,0,214.168,31.390,154.720,17.740,147.020,2.835,-1.141,1.444,29.988,-9.278,-22.622,3.140,3.072,1.267,1.188,0,2,1,0,7,255,1000,250,138,1000,-22.699,-41.684,9.534,-22.699,-41.684,9.534
151159.816,0.918,-0.165,-0.362,-0.010,0,0,5,0,0,0,0,208,47,0.911,60,0,260.274,30.952,192.940,-1.840,174.680,2.463,-1.055,1.726,29.006,-10.802,-21.862,3.124,3.054,1.267,1.188,0,2,1,0,7,255,1000,250,143,1000,-24.366,-41.327,10.597,-24.366,-41.327,10.597
151164.817,0.916,-0.176,-0.359,-0.014,0,0,0,0,0,0,0,211,47,0.911,60,0,266.537,30.334,206.360,-26.740,166.560,2.084,-0.824,2.126,28.346,-10.802,-17.480,3.100,3.030,1.267,1.188,0,2,1,0,7,255,1000,250,148,1000,-26.002,-40.850,11.521,-26.002,-40.850,11.521
151169.815,0.916,-0.185,-0.356,-0.016,0,0,0,0,0,0,0,209,47,0.911,60,0,241.243,30.274,191.780,-51.100,137.140,1.812,-0.564,2.517,28.346,-10.632,-11.778,3.068,2.998,1.267,1.188,0,2,1,0,7,255,1000,250,153,1000,-27.383,-40.314,12.176,-27.383,-40.314,12.176
151174.815,0.915,-0.193,-0.353,-0.017,0,0,0,0,0,0,0,208,47,0.911,60,0,199.944,30.781,154.900,-73.200,103.080,1.631,-0.355,2.839,29.102,-10.028,-6.632,3.026,2.954,1.267,1.188,0,2,1,0,7,255,1000,250,158,1000,-28.392,-39.748,12.546,-28.392,-39.748,12.546
151179.815,0.916,-0.198,-0.349,-0.017,0,0,0,0,0,0,0,211,47,0.911,60,0,153.547,31.512,98.880,-92.240,72.740,1.516,-0.166,3.115,29.980,-9.706,-2.576,2.976,2.904,1.267,1.188,0,2,1,0,7,255,1000,250,163,1000,-28.964,-39.168,12.672,-28.964,-39.168,12.672
151184.816,0.917,-0.201,-0.343,-0.019,0,0,0,0,0,0,0,200,47,0.911,60,0,148.346,31.512,39.540,-121.420,75.500,0.818,-0.602,3.378,29.980,-9.706,0.814,2.914,2.840,1.267,1.188,0,2,1,0,7,255,1000,250,168,1000,-29.186,-38.454,12.716,-29.186,-38.454,12.716
151189.817,0.918,-0.225,-0.324,-0.028,0,0,0,0,0,0,0,199,47,0.911,60,0,729.721,28.373,416.500,-366.220,474.240,0.076,-0.018,0.640,26.796,-9.328,0.814,2.848,2.774,1.267,1.188,0,2,1,0,7,255,1000,250,173,1000,-32.101,-35.669,14.102,-32.101,-35.669,14.102
151194.815,0.921,-0.233,-0.308,-0.046,0,0,0,0,0,0,0,218,47,0.911,60,0,580.567,5.031,23.320,-276.320,510.060,-0.112,0.115,0.636,4.562,-2.120,-4.416,2.774,2.698,1.267,1.188,0,2,1,0,7,255,1000,250,178,1000,-33.174,-33.131,15.799,-33.174,-33.131,15.799
151199.815,0.930,-0.206,-0.297,-0.070,0,0,0,0,0,0,0,201,47,0.911,60,0,769.060,4.770,-655.360,-143.880,375.840,-0.986,2.341,3.013,4.562,-1.392,-4.416,2.698,2.622,1.267,1.188,0,2,1,0,7,255,1000,250,183,1000,-29.941,-31.535,17.247,-29.941,-31.535,17.247
151204.817,0.938,-0.172,-0.288,-0.085,211,0,0,0,0,0,0,205,47,0.911,60,0,674.506,9.102,-655.360,-120.500,104.600,-0.173,2.651,0.369,3.032,8.582,3.410,2.612,2.534,1.267,1.188,0,2,1,0,7,255,1000,250,188,1000,-25.568,-30.758,17.459,-25.568,-30.758,17.459
151209.815,0.944,-0.145,-0.283,-0.092,1035,0,0,155,0,0,0,204,47,0.911,60,0,655.539,12.052,-652.040,-67.640,-0.180,0.125,1.192,-0.160,-0.720,12.030,3.410,2.528,2.448,1.267,1.188,0,2,1,0,7,255,1000,250,193,1000,-22.226,-30.448,17.300,-22.226,-30.448,17.300
151214.816,0.946,-0.130,-0.280,-0.099,1975,0,0,701,0,0,0,202,47,0.911,60,0,375.429,12.055,-371.640,-11.800,51.880,-0.492,0.388,-2.329,-0.770,12.030,-7.964,2.434,2.354,1.267,1.188,0,2,1,0,7,255,1000,250,198,1000,-20.493,-30.298,17.554,-20.493,-30.298,17.554
151219.816,0.948,-0.128,-0.274,-0.105,2526,0,0,1419,0,0,0,205,47,0.911,60,0,212.261,8.671,-112.120,-135.520,118.820,-0.423,0.300,-0.257,-5.012,7.076,-9.044,2.338,2.256,1.267,1.188,0,2,1,0,7,255,1000,250,203,1000,-20.114,-29.455,17.925,-20.114,-29.455,17.925
151224.816,0.948,-0.132,-0.267,-0.112,2813,0,0,2120,0,6,0,205,47,0.911,60,0,251.564,8.671,39.480,-146.140,200.920,-0.490,1.321,0.391,-5.012,7.076,-9.044,2.240,2.158,1.267,1.188,0,2,1,0,7,255,1000,250,208,1000,-20.688,-28.420,18.709,-20.688,-28.420,18.709
151229.815,0.948,-0.138,-0.256,-0.128,3065,0,0,2683,0,15,0,212,47,0.911,60,0,464.639,8.327,-18.680,-190.320,423.460,-1.590,1.382,0.746,-5.012,6.650,-0.436,2.144,2.060,1.267,1.188,0,2,1,0,7,255,1000,250,213,1000,-21.445,-26.770,20.551,-21.445,-26.770,20.551
151234.815,0.950,-0.135,-0.244,-0.143,3144,0,0,2997,0,14,0,238,47,0.911,60,0,435.934,13.191,-169.560,-216.020,338.560,-2.775,1.661,1.113,-11.392,6.650,7.620,2.036,1.950,1.267,1.188,0,2,1,0,7,255,1000,250,218,1000,-21.170,-25.148,21.868,-21.170,-25.148,21.868
151239.815,0.953,-0.126,-0.233,-0.145,3193,0,0,3179,0,26,0,248,47,0.911,60,0,353.982,20.957,-267.100,-230.300,30.380,-3.396,1.135,0.967,-20.538,4.172,15.236,1.932,1.844,1.267,1.188,0,2,1,0,7,255,1000,250,223,1000,-19.713,-24.015,21.582,-19.713,-24.015,21.582
151244.815,0.959,-0.112,-0.224,-0.134,3223,0,0,3277,0,22,0,248,47,0.911,60,0,474.690,20.645,-286.500,-216.880,-310.180,-2.513,0.685,0.777,-20.538,-2.098,15.236,1.818,1.728,1.267,1.188,0,2,1,0,7,255,1000,250,228,1000,-17.478,-23.482,19.598,-17.478,-23.482,19.598
151249.816,0.965,-0.098,-0.215,-0.111,3261,0,0,3340,0,23,0,266,47,0.911,60,0,668.444,19.130,-236.640,-228.600,-581.860,-0.903,0.045,0.854,-19.008,-2.154,8.430,1.708,1.618,1.267,1.188,0,2,1,0,7,255,1000,250,233,1000,-14.948,-23.195,16.208,-14.948,-23.195,16.208
151254.816,0.971,-0.085,-0.209,-0.083,3273,0,0,3382,0,23,0,291,47,0.911,60,0,706.330,4.856,-167.240,-203.560,-655.360,0.776,-0.814,1.077,-4.056,-2.670,1.120,1.588,1.496,1.267,1.188,0,2,1,0,7,255,1000,250,238,1000,-12.573,-23.028,12.296,-12.573,-23.028,12.296
151259.815,0.974,-0.078,-0.204,-0.058,3307,0,0,3423,0,35,0,295,47,0.911,60,0,602.768,14.422,-72.380,-160.720,-576.420,2.104,-1.966,0.895,12.446,-7.286,-5.000,1.470,1.376,1.267,1.188,0,2,1,0,7,255,1000,250,243,1000,-10.945,-22.828,9.056,-10.945,-22.828,9.056
151264.817,0.976,-0.075,-0.198,-0.041,3303,0,0,3425,0,49,0,311,47,0.911,60,0,422.759,29.308,8.660,-168.480,-387.640,2.418,-2.440,1.512,24.100,-16.678,-9.314,1.346,1.252,1.267,1.188,0,2,1,0,7,255,1000,250,248,1000,-10.128,-22.353,6.824,-10.128,-22.353,6.824
151269.815,0.978,-0.072,-0.190,-0.035,3320,0,0,3467,0,63,0,327,47,0.911,61,0,240.411,32.249,-59.260,-186.780,-139.280,1.677,-2.176,1.851,24.100,-21.428,-9.314,1.224,1.128,1.267,1.188,1,2,0,0,7,255,1000,250,253,1000,-9.488,-21.551,5.913,-9.488,-21.551,5.913
151274.815,0.981,-0.064,-0.179,-0.040,3320,0,0,3449,0,77,0,334,47,0.911,61,0,338.133,31.523,-210.200,-245.320,99.840,0.766,-1.279,1.513,23.120,-21.428,-2.570,1.096,0.996,1.267,1.188,1,2,0,0,7,255,1000,250,258,1000,-8.548,-20.260,6.234,-8.548,-20.260,6.234
151279.816,0.982,-0.056,-0.172,-0.050,3334,0,0,3465,0,91,0,331,47,0.911,61,0,330.332,18.445,-229.180,-139.120,192.980,-0.069,0.117,1.590,13.178,-12.906,-0.494,0.976,0.876,1.267,1.188,1,2,0,0,7,255,1000,250,263,1000,-7.708,-19.434,7.145,-7.708,-19.434,7.145
151284.816,0.983,-0.049,-0.165,-0.058,3324,0,0,3476,0,108,0,380,47,0.911,61,0,288.259,4.814,-198.420,-142.720,152.820,-1.041,0.961,0.559,4.814,-0.018,-0.414,0.846,0.742,1.267,1.188,1,2,0,0,7,255,1000,250,268,1000,-6.943,-18.628,7.850,-6.943,-18.628,7.850
151289.815,0.985,-0.044,-0.159,-0.060,3335,0,0,3469,0,120,9,379,47,0.911,61,0,193.909,11.643,-128.960,-138.920,40.880,-1.220,0.991,0.520,-8.508,7.948,-0.388,0.728,0.620,1.267,1.188,1,2,0,0,7,255,1000,250,273,1000,-6.336,-17.914,7.979,-6.336,-17.914,7.979
151294.815,0.985,-0.043,-0.155,-0.055,3315,0,0,3491,0,141,18,406,47,0.911,61,0,153.209,11.643,4.640,-105.480,-111.020,-0.692,0.661,1.087,-8.508,7.948,-0.388,0.608,0.496,1.267,1.188,1,2,0,0,7,255,1000,250,278,1000,-6.161,-17.449,7.339,-6.161,-17.449,7.339
151299.815,0.986,-0.046,-0.152,-0.043,3306,0,0,3467,0,173,133,423,47,0.911,61,0,288.860,6.323,102.600,-65.500,-261.960,-0.062,-0.451,1.542,-3.560,5.226,2.902,0.518,0.402,1.267,1.188,1,2,0,0,7,255,1000,250,283,1000,-6.253,-17.264,5.937,-6.253,-17.264,5.937
151304.817,0.987,-0.046,-0.150,-0.033,3296,0,0,3483,39,211,150,442,47,0.911,61,0,230.309,6.934,32.600,-73.140,-215.940,0.615,-0.781,1.575,4.518,-5.260,2.902,0.452,0.332,1.267,1.188,1,2,0,0,7,255,1000,250,288,1000,-6.069,-17.016,4.772,-6.069,-17.016,4.772
151309.816,0.988,-0.044,-0.147,-0.028,3278,0,0,3483,53,246,97,429,47,0.911,61,0,143.545,12.692,-30.460,-68.560,-122.380,0.763,-0.630,1.517,10.934,-6.444,2.240,0.410,0.288,1.267,1.188,1,2,0,0,7,255,1000,250,293,1000,-5.719,-16.737,4.099,-5.719,-16.737,4.099
151314.816,0.988,-0.040,-0.145,-0.029,3291,0,0,3453,75,333,113,452,47,0.911,61,0,107.015,12.692,-98.260,-41.460,8.840,0.494,-0.639,1.050,10.934,-6.444,1.526,0.390,0.266,1.267,1.188,1,2,0,0,7,255,1000,250,298,1000,-5.231,-16.525,4.124,-5.231,-16.525,4.124
151319.815,0.988,-0.036,-0.144,-0.034,3284,0,1,3436,91,351,122,477,47,0.911,61,0,141.870,10.215,-104.060,-24.060,93.380,0.009,-0.631,0.560,8.074,-6.258,-1.998,0.404,0.280,1.267,1.188,1,2,0,0,7,255,1000,250,303,1000,-4.842,-16.363,4.598,-4.842,-16.363,4.598
151324.815,0.988,-0.035,-0.143,-0.038,3279,0,11,3432,156,371,146,523,47,0.911,61,0,108.829,6.504,-47.060,-20.040,96.060,-0.387,-0.093,0.622,2.186,-6.126,-3.086,0.430,0.306,1.267,1.188,1,2,0,0,7,255,1000,250,308,1000,-4.741,-16.223,5.087,-4.741,-16.223,5.087
151329.815,0.988,-0.035,-0.142,-0.040,3299,0,20,3445,165,376,148,543,47,0.911,61,0,49.175,2.056,8.720,-15.520,45.840,-0.523,0.468,0.866,-1.656,-1.218,-3.086,0.458,0.332,1.267,1.188,1,2,0,0,7,255,1000,250,313,1000,-4.856,-16.131,5.319,-4.856,-16.131,5.319
151334.815,0.989,-0.036,-0.141,-0.040,3284,0,33,3447,153,394,163,596,47,0.911,61,0,28.075,4.305,20.620,-18.380,-5.020,-0.422,0.726,1.080,-1.656,3.974,0.018,0.486,0.360,1.267,1.188,1,2,0,0,7,255,1000,250,318,1000,-4.946,-16.041,5.285,-4.946,-16.041,5.285
151339.816,0.989,-0.037,-0.141,-0.038,3292,0,55,3465,187,419,177,619,47,0.911,61,0,34.775,4.176,16.240,-13.680,-27.540,-0.175,0.340,1.069,-1.284,3.974,0.886,0.516,0.390,1.267,1.188,1,2,0,0,7,255,1000,250,323,1000,-5.001,-15.974,5.137,-5.001,-15.974,5.137
151344.816,0.989,-0.037,-0.140,-0.038,3295,0,72,3446,179,415,173,650,47,0.911,61,0,19.112,3.143,10.860,-11.240,-11.000,-0.027,-0.049,1.059,1.258,2.880,0.886,0.550,0.424,1.267,1.188,1,2,0,0,7,255,1000,250,328,1000,-5.005,-15.871,5.069,-5.005,-15.871,5.069
151349.816,0.989,-0.037,-0.139,-0.038,3311,0,95,3444,189,445,183,659,47,0.911,61,0,11.264,2.560,0.980,-4.720,10.180,-0.104,-0.146,1.152,2.436,-0.786,0.886,0.584,0.456,1.267,1.188,1,2,0,0,7,255,1000,250,333,1000,-4.991,-15.819,5.115,-4.991,-15.819,5.115
151354.815,0.989,-0.036,-0.139,-0.039,3302,0,111,3411,213,464,201,667,47,0.911,61,0,25.715,2.882,-21.720,-1.120,13.720,-0.247,-0.105,1.138,2.436,-1.540,1.080,0.618,0.490,1.267,1.188,1,2,0,0,7,255,1000,250,338,1000,-4.882,-15.801,5.183,-4.882,-15.801,5.183
151359.815,0.989,-0.035,-0.139,-0.039,3320,7,169,3415,101,454,211,683,47,0.911,61,0,32.053,1.849,-31.440,-0.500,6.220,-0.263,0.023,0.990,1.024,-1.540,1.080,0.646,0.518,1.267,1.188,1,2,0,0,7,255,1000,250,343,1000,-4.720,-15.795,5.214,-4.720,-15.795,5.214
151364.817,0.989,-0.034,-0.139,-0.040,3305,5,176,3398,94,484,219,685,47,0.911,61,0,21.105,0.626,-20.700,3.400,2.320,-0.222,0.047,0.931,0.596,-0.192,0.126,0.666,0.542,1.267,1.188,1,2,0,0,7,255,1000,250,348,1000,-4.610,-15.801,5.227,-4.610,-15.801,5.227
151369.815,0.989,-0.033,-0.139,-0.040,3340,9,181,3256,107,488,223,692,47,0.911,61,0,14.176,0.588,-13.360,3.220,3.480,-0.239,-0.034,0.955,0.556,-0.192,-0.310,0.666,0.544,1.267,1.188,1,2,0,0,7,255,1000,250,353,1000,-4.513,-15.806,5.242,-4.513,-15.806,5.242
151374.816,0.989,-0.032,-0.139,-0.040,3342,11,198,2967,105,503,243,694,47,0.911,61,0,16.100,0.871,-14.520,2.420,6.520,-0.266,-0.048,1.000,0.556,-0.670,-0.310,0.632,0.510,1.267,1.188,1,2,0,0,7,255,1000,250,358,1000,-4.414,-15.811,5.274,-4.414,-15.811,5.274
151379.816,0.989,-0.031,-0.139,-0.041,3336,15,205,3145,122,507,279,703,47,0.911,61,0,14.973,0.928,-13.920,3.900,3.900,-0.290,-0.046,0.993,0.438,-0.818,0.176,0.572,0.452,1.267,1.188,2,2,0,0,7,255,1000,250,363,1000,-4.315,-15.830,5.292,-4.315,-15.830,5.292
151384.815,0.989,-0.030,-0.139,-0.041,3315,12,211,3054,136,507,295,723,47,0.911,61,0,15.172,0.916,-13.980,2.920,5.120,-0.253,0.013,0.962,0.412,-0.818,0.176,0.482,0.360,1.267,1.188,2,2,0,0,7,255,1000,250,368,1000,-4.232,-15.836,5.318,-4.232,-15.836,5.318
151389.817,0.989,-0.029,-0.139,-0.041,3324,21,214,3148,157,509,299,738,47,0.911,61,1,12.207,0.803,-6.280,3.280,9.940,-0.253,0.014,0.958,0.408,-0.692,0.108,0.396,0.278,1.267,1.188,2,2,0,0,7,255,1000,250,373,1000,-4.161,-15.834,5.365,-4.161,-15.834,5.365
151394.815,0.989,-0.029,-0.139,-0.042,3339,26,217,3221,163,522,301,733,47,0.911,61,1,14.329,0.715,-1.160,2.920,13.980,-0.278,-0.033,0.965,0.404,-0.590,0.052,0.326,0.212,1.267,1.188,2,2,0,0,7,255,1000,250,378,1000,-4.081,-15.843,5.430,-4.081,-15.843,5.430
151399.815,0.989,-0.028,-0.139,-0.043,3325,22,211,3197,136,515,310,727,47,0.911,61,1,18.397,0.699,0.860,2.240,18.240,-0.313,-0.069,1.005,0.366,-0.596,0.022,0.290,0.182,1.267,1.188,2,2,0,0,7,255,1000,250,383,1000,-4.019,-15.863,5.518,-4.019,-15.863,5.518
151404.819,0.989,-0.027,-0.140,-0.044,3343,35,219,3219,137,507,312,728,47,0.911,61,1,15.669,0.728,-1.400,1.200,15.560,-0.318,-0.065,0.995,0.298,-0.664,0.070,0.278,0.174,1.267,1.188,2,2,0,0,7,255,1000,250,388,1000,-3.934,-15.885,5.591,-3.934,-15.885,5.591
151409.816,0.989,-0.027,-0.140,-0.044,3339,25,216,3235,139,520,312,731,47,0.911,61,1,19.472,0.760,-2.260,-0.020,19.340,-0.298,-0.031,0.970,0.244,-0.720,0.110,0.276,0.174,1.267,1.188,2,2,0,0,7,255,1000,250,393,1000,-3.874,-15.893,5.685,-3.874,-15.893,5.685
151414.815,0.989,-0.026,-0.140,-0.045,3323,23,215,3262,140,507,304,741,47,0.911,61,1,19.568,0.719,0.860,-1.060,19.520,-0.288,-0.021,0.933,0.202,-0.690,0.088,0.272,0.170,1.267,1.188,2,2,0,0,7,255,1000,250,398,1000,-3.839,-15.895,5.780,-3.839,-15.895,5.780
151419.815,0.989,-0.026,-0.140,-0.046,3323,25,216,3300,145,497,309,741,47,0.911,61,1,28.041,0.661,6.460,-1.900,27.220,-0.260,-0.014,0.933,0.172,-0.638,-0.004,0.254,0.154,1.267,1.188,2,2,0,0,7,255,1000,250,403,1000,-3.864,-15.872,5.917,-3.864,-15.872,5.917
151424.815,0.989,-0.027,-0.139,-0.048,3325,23,218,3300,140,480,302,748,47,0.911,61,1,33.426,0.598,11.840,-2.940,31.120,-0.282,-0.011,0.938,0.154,-0.578,-0.078,0.226,0.126,1.267,1.188,2,2,0,0,7,255,1000,250,408,1000,-3.929,-15.853,6.074,-3.929,-15.853,6.074
151429.815,0.989,-0.027,-0.139,-0.049,3315,25,211,3307,143,472,297,744,47,0.911,61,1,37.247,0.549,14.400,-3.980,34.120,-0.323,0.012,0.971,0.142,-0.530,-0.126,0.198,0.096,1.267,1.188,2,2,0,0,7,255,1000,250,413,1000,-4.027,-15.835,6.248,-4.027,-15.835,6.248
151434.816,0.989,-0.028,-0.139,-0.050,3317,20,211,3316,137,467,294,744,47,0.911,61,1,32.712,0.465,14.280,-4.780,29.040,-0.347,0.040,0.970,0.068,-0.460,-0.078,0.176,0.070,1.267,1.188,2,2,0,0,7,255,1000,250,418,1000,-4.123,-15.828,6.397,-4.123,-15.828,6.397
151439.816,0.988,-0.029,-0.139,-0.051,3293,39,217,3403,138,446,283,749,47,0.911,61,1,27.669,0.360,13.860,-6.240,23.120,-0.361,0.075,0.978,-0.040,-0.358,-0.026,0.166,0.054,1.267,1.188,2,2,0,0,7,255,1000,250,423,1000,-4.222,-15.826,6.517,-4.222,-15.826,6.517
151444.816,0.988,-0.030,-0.139,-0.052,3292,23,231,3406,139,460,256,749,47,0.911,61,1,22.539,0.252,13.300,-7.040,16.780,-0.341,0.118,0.971,-0.126,-0.218,0.024,0.166,0.050,1.267,1.188,2,2,0,0,7,255,1000,250,428,1000,-4.338,-15.820,6.605,-4.338,-15.820,6.605
151449.815,0.988,-0.030,-0.139,-0.052,3277,25,225,3391,137,459,252,747,47,0.911,61,1,18.785,0.195,13.680,-7.880,10.180,-0.324,0.124,0.972,-0.194,-0.022,0.064,0.172,0.052,1.267,1.188,2,2,0,0,7,255,1000,250,433,1000,-4.453,-15.806,6.659,-4.453,-15.806,6.659
151454.815,0.988,-0.031,-0.139,-0.052,3261,22,233,3402,133,448,280,748,47,0.911,61,1,16.826,0.255,12.320,-8.560,7.620,-0.305,0.114,0.988,-0.216,0.136,0.096,0.176,0.052,1.267,1.188,2,2,0,0,7,255,1000,250,438,1000,-4.548,-15.774,6.698,-4.548,-15.774,6.698
151459.815,0.988,-0.032,-0.139,-0.053,3247,25,235,3403,150,445,277,745,47,0.911,61,1,14.067,0.313,9.940,-8.500,5.180,-0.294,0.098,0.986,-0.188,0.250,0.120,0.178,0.048,1.267,1.188,2,2,0,0,7,255,1000,250,443,1000,-4.616,-15.740,6.722,-4.616,-15.740,6.722
151464.817,0.988,-0.032,-0.139,-0.053,3243,22,232,3384,167,447,250,748,47,0.911,61,1,11.755,0.341,7.940,-8.500,1.700,-0.284,0.082,0.995,-0.146,0.308,0.148,0.178,0.044,1.267,1.188,2,2,0,0,7,255,1000,250,448,1000,-4.654,-15.696,6.727,-4.654,-15.696,6.727
151469.817,0.988,-0.032,-0.138,-0.053,3235,22,235,3372,172,463,264,745,47,0.911,61,1,9.783,0.335,5.180,-8.200,1.280,-0.260,0.064,0.986,-0.086,0.324,0.162,0.176,0.040,1.267,1.188,2,2,0,0,7,255,1000,250,453,1000,-4.664,-15.640,6.729,-4.664,-15.640,6.729
151474.816,0.989,-0.032,-0.138,-0.053,3217,18,233,3353,171,438,273,749,47,0.911,61,1,9.287,0.306,3.120,-7.640,4.260,-0.248,0.045,0.970,0.002,0.306,0.150,0.174,0.036,1.267,1.188,2,2,0,0,7,255,1000,250,458,1000,-4.651,-15.580,6.744,-4.651,-15.580,6.744
151479.815,0.989,-0.032,-0.137,-0.053,3192,20,247,3352,174,430,267,753,47,0.911,61,1,10.902,0.268,2.260,-7.700,7.380,-0.258,0.045,0.967,0.072,0.258,0.102,0.170,0.032,1.267,1.188,2,2,0,0,7,255,1000,250,463,1000,-4.638,-15.528,6.775,-4.638,-15.528,6.775
151484.815,0.989,-0.032,-0.137,-0.053,3187,20,247,3355,170,439,289,757,47,0.911,61,1,13.324,0.253,0.860,-8.000,10.620,-0.276,0.058,0.966,0.122,0.222,0.062,0.164,0.026,1.267,1.188,2,2,0,0,7,255,1000,250,468,1000,-4.634,-15.488,6.825,-4.634,-15.488,6.825
151489.815,0.989,-0.032,-0.137,-0.054,3163,21,249,3365,200,436,287,757,47,0.911,61,1,15.882,0.243,-0.740,-8.920,13.120,-0.303,0.082,0.962,0.122,0.210,0.040,0.158,0.018,1.267,1.188,2,2,0,0,7,255,1000,250,473,1000,-4.645,-15.464,6.891,-4.645,-15.464,6.891
151494.815,0.989,-0.032,-0.136,-0.055,3150,23,263,3339,203,432,303,765,47,0.911,61,1,16.175,0.248,-1.460,-10.520,12.200,-0.320,0.125,0.961,0.064,0.240,0.032,0.154,0.012,1.267,1.188,2,2,0,0,7,255,1000,250,478,1000,-4.688,-15.444,6.955,-4.688,-15.444,6.955
151499.816,0.989,-0.033,-0.136,-0.055,3129,24,261,3317,202,437,302,760,47,0.911,61,1,14.096,0.343,-0.980,-11.480,8.120,-0.332,0.151,0.965,-0.022,0.342,0.040,0.152,0.010,1.267,1.188,2,2,0,0,7,255,1000,250,483,1000,-4.747,-15.427,6.999,-4.747,-15.427,6.999
151504.816,0.989,-0.033,-0.136,-0.055,3124,21,269,3320,209,441,311,783,47,0.911,61,1,13.116,0.471,-1.580,-12.580,3.360,-0.323,0.150,0.978,-0.092,0.462,0.064,0.150,0.008,1.267,1.188,2,2,0,0,7,255,1000,250,488,1000,-4.791,-15.397,7.017,-4.791,-15.397,7.017
151509.817,0.989,-0.033,-0.136,-0.055,3099,25,281,3307,215,457,329,789,47,0.911,61,1,13.680,0.578,-3.180,-13.080,-2.440,-0.293,0.120,0.981,-0.150,0.558,0.088,0.148,0.008,1.267,1.188,2,2,0,0,7,255,1000,250,493,1000,-4.797,-15.347,7.002,-4.797,-15.347,7.002
151514.815,0.989,-0.033,-0.135,-0.055,3079,24,281,3289,203,459,333,789,47,0.911,61,1,15.050,0.597,-5.620,-12.700,-5.800,-0.255,0.056,0.972,-0.132,0.582,0.108,0.146,0.010,1.267,1.188,2,2,0,0,7,255,1000,250,498,1000,-4.734,-15.276,6.964,-4.734,-15.276,6.964
151519.815,0.989,-0.032,-0.134,-0.055,3059,25,296,3277,216,485,343,801,47,0.911,61,1,15.358,0.488,-8.480,-11.980,-4.520,-0.229,-0.018,0.963,-0.042,0.486,0.076,0.142,0.012,1.267,1.188,2,2,0,0,7,255,1000,250,503,1000,-4.595,-15.191,6.926,-4.595,-15.191,6.926
151524.815,0.989,-0.030,-0.133,-0.055,3055,21,311,3193,218,473,342,803,47,0.911,61,1,16.225,0.290,-11.300,-11.620,-0.740,-0.228,-0.055,0.952,0.082,0.278,0.008,0.138,0.016,1.267,1.188,2,2,0,0,7,255,1000,250,508,1000,-4.423,-15.110,6.907,-4.423,-15.110,6.907
151529.816,0.989,-0.029,-0.133,-0.055,3031,20,318,3136,216,475,347,807,47,0.911,61,1,16.943,0.197,-12.640,-11.180,1.520,-0.235,-0.043,0.942,0.182,0.076,-0.070,0.136,0.020,1.267,1.188,2,2,0,0,7,255,1000,250,513,1000,-4.264,-15.039,6.901,-4.264,-15.039,6.901
151534.816,0.989,-0.028,-0.132,-0.055,3016,26,331,3163,227,486,357,811,47,0.911,61,1,16.821,0.251,-12.460,-11.060,2.320,-0.235,-0.020,0.926,0.236,-0.086,-0.144,0.132,0.024,1.267,1.188,2,2,0,0,7,255,1000,250,518,1000,-4.132,-14.972,6.902,-4.132,-14.972,6.902
151539.815,0.989,-0.027,-0.132,-0.055,2999,25,341,3189,233,507,365,821,47,0.911,61,1,16.103,0.331,-10.620,-10.940,5.180,-0.251,-0.042,0.901,0.264,-0.200,-0.230,0.130,0.028,1.267,1.188,2,2,0,0,7,255,1000,250,523,1000,-4.003,-14.922,6.918,-4.003,-14.922,6.918
151544.815,0.989,-0.026,-0.131,-0.056,2979,25,351,3184,235,506,368,838,47,0.911,61,1,18.548,0.355,-8.540,-13.260,9.760,-0.268,-0.015,0.935,0.246,-0.256,-0.298,0.126,0.032,1.267,1.188,2,2,0,0,7,255,1000,250,528,1000,-3.907,-14.864,6.959,-3.907,-14.864,6.959
151549.815,0.989,-0.025,-0.131,-0.056,2953,22,359,3197,241,503,368,854,47,0.911,61,1,15.569,0.355,-7.940,-12.220,5.480,-0.325,0.037,0.954,0.208,-0.288,-0.314,0.124,0.034,1.267,1.188,2,2,0,0,7,255,1000,250,533,1000,-3.847,-14.856,6.983,-3.847,-14.856,6.983
151554.815,0.990,-0.025,-0.131,-0.056,2928,30,377,3204,275,529,387,855,47,0.911,61,1,19.910,0.237,-10.380,-15.880,6.040,-0.326,0.104,0.976,0.072,-0.226,-0.258,0.124,0.036,1.267,1.188,2,2,0,0,7,255,1000,250,538,1000,-3.825,-14.814,7.013,-3.825,-14.814,7.013
151559.816,0.990,-0.025,-0.130,-0.056,2900,27,377,3159,293,523,392,863,47,0.911,61,1,19.822,0.064,-7.080,-18.500,-0.740,-0.350,0.129,0.900,-0.042,-0.048,-0.212,0.122,0.038,1.267,1.188,2,2,0,0,7,255,1000,250,543,1000,-3.836,-14.796,7.010,-3.836,-14.796,7.010
151564.816,0.990,-0.026,-0.130,-0.056,2875,33,400,3118,311,551,408,876,47,0.911,61,1,20.988,0.171,3.060,-18.380,-9.660,-0.308,0.108,0.928,-0.134,0.106,-0.224,0.122,0.040,1.267,1.188,2,2,0,0,7,255,1000,250,548,1000,-3.868,-14.748,6.958,-3.868,-14.748,6.958
151569.817,0.990,-0.026,-0.129,-0.055,2835,37,427,3123,319,569,417,885,47,0.911,61,1,24.343,0.300,3.300,-19.780,-13.800,-0.282,0.057,1.004,-0.198,0.226,-0.234,0.122,0.040,1.267,1.188,2,2,0,0,7,255,1000,250,553,1000,-3.855,-14.661,6.880,-3.855,-14.661,6.880
151574.815,0.990,-0.025,-0.128,-0.055,2788,38,441,3133,350,565,428,896,47,0.911,61,1,24.331,0.273,-4.020,-20.040,-13.200,-0.251,-0.039,1.009,-0.154,0.226,-0.136,0.122,0.040,1.267,1.188,2,2,0,0,7,255,1000,250,558,1000,-3.751,-14.558,6.800,-3.751,-14.558,6.800
151579.815,0.990,-0.024,-0.127,-0.054,2765,40,456,3133,367,585,425,917,47,0.911,61,1,25.749,0.088,-10.500,-21.380,-9.780,-0.261,-0.071,0.984,-0.074,0.048,-0.056,0.124,0.040,1.267,1.188,2,2,0,0,7,255,1000,250,563,1000,-3.599,-14.454,6.735,-3.599,-14.454,6.735
151584.815,0.990,-0.023,-0.126,-0.054,2712,44,475,3127,375,595,425,933,47,0.911,61,1,26.374,0.095,-10.680,-20.940,-11.960,-0.263,-0.041,0.977,-0.010,-0.094,-0.040,0.124,0.040,1.267,1.188,2,2,0,0,7,255,1000,250,568,1000,-3.463,-14.359,6.662,-3.463,-14.359,6.662
151589.816,0.990,-0.022,-0.125,-0.053,2665,45,525,3124,419,603,431,937,47,0.911,61,1,26.816,0.202,-10.800,-21.500,-11.840,-0.238,-0.018,0.969,0.042,-0.198,-0.034,0.126,0.038,1.267,1.188,2,2,0,0,7,255,1000,250,573,1000,-3.341,-14.248,6.590,-3.341,-14.248,6.590
151594.816,0.991,-0.021,-0.124,-0.053,2591,47,548,3123,477,612,445,946,47,0.911,61,1,25.387,0.246,-11.240,-21.980,-5.920,-0.224,-0.010,0.958,0.098,-0.226,-0.054,0.128,0.038,1.267,1.188,2,2,0,0,7,255,1000,250,578,1000,-3.229,-14.128,6.549,-3.229,-14.128,6.549
151599.817,0.991,-0.020,-0.123,-0.053,2535,53,573,3101,495,631,461,951,47,0.911,61,1,24.740,0.270,-10.020,-22.600,0.960,-0.248,-0.002,0.961,0.144,-0.228,-0.076,0.128,0.038,1.267,1.188,2,2,0,0,7,255,1000,250,583,1000,-3.138,-14.017,6.544,-3.138,-14.017,6.544
151604.815,0.991,-0.020,-0.123,-0.053,2445,51,599,3082,535,637,471,968,47,0.911,61,1,25.328,0.261,-7.760,-23.940,2.860,-0.296,0.031,0.976,0.146,-0.216,-0.094,0.130,0.036,1.267,1.188,2,2,0,0,7,255,1000,250,588,1000,-3.084,-13.925,6.552,-3.084,-13.925,6.552
151609.817,0.991,-0.019,-0.122,-0.053,2336,48,651,3077,584,649,491,986,47,0.911,61,1,25.953,0.161,-5.980,-24.920,-4.100,-0.326,0.058,1.009,0.054,-0.152,-0.056,0.132,0.036,1.267,1.188,2,2,0,0,7,255,1000,250,593,1000,-3.045,-13.834,6.525,-3.045,-13.834,6.525
151614.815,0.991,-0.019,-0.121,-0.053,2210,51,675,3012,608,666,499,1011,47,0.911,61,1,28.959,0.072,-8.800,-25.960,-9.340,-0.299,0.047,1.034,-0.018,-0.070,0.054,0.134,0.034,1.267,1.188,2,2,0,0,7,255,1000,250,598,1000,-2.982,-13.723,6.471,-2.982,-13.723,6.471
151619.815,0.991,-0.018,-0.120,-0.052,2063,51,697,2981,632,663,520,1024,47,0.911,61,1,32.712,0.067,-12.940,-27.420,-12.280,-0.302,0.065,1.060,-0.066,0.010,0.174,0.136,0.034,1.267,1.188,2,2,0,0,7,255,1000,250,603,1000,-2.900,-13.599,6.401,-2.900,-13.599,6.401
151624.816,0.991,-0.018,-0.118,-0.052,1901,57,749,2937,681,657,531,1033,47,0.911,61,1,37.679,0.124,-18.860,-28.220,-16.360,-0.321,0.052,1.054,-0.104,0.068,0.314,0.138,0.032,1.267,1.188,2,2,0,0,7,255,1000,250,608,1000,-2.781,-13.475,6.310,-2.781,-13.475,6.310
151629.816,0.992,-0.016,-0.117,-0.051,1733,53,788,2871,735,663,566,1059,47,0.911,61,1,43.743,0.193,-24.300,-29.740,-20.940,-0.306,0.042,1.037,-0.156,0.114,0.428,0.140,0.030,1.267,1.188,2,2,0,0,7,255,1000,250,613,1000,-2.628,-13.340,6.195,-2.628,-13.340,6.195
151634.815,0.992,-0.015,-0.116,-0.050,1513,45,815,2805,765,663,593,1085,47,0.911,61,0,48.837,0.438,-25.340,-29.740,-29.300,-0.286,-0.002,1.010,-0.368,0.238,0.666,0.000,0.000,1.417,1.284,3,2,0,0,7,255,1000,250,618,1000,-2.461,-13.199,6.038,-2.461,-13.199,6.038
151639.815,0.992,-0.014,-0.114,-0.049,1317,39,841,2683,791,659,609,1101,47,0.911,61,0,50.750,0.265,-25.820,-31.380,-30.400,-0.260,-0.023,1.030,-0.226,-0.138,0.472,0.000,0.002,1.417,1.284,3,2,0,0,7,255,1000,250,623,1000,-2.290,-13.048,5.875,-2.290,-13.048,5.875
151644.815,0.992,-0.013,-0.113,-0.048,1075,33,861,2549,823,665,627,1095,47,0.911,61,0,51.986,0.288,-28.680,-32.180,-29.060,-0.253,-0.026,1.050,0.048,-0.284,0.472,0.000,0.002,1.417,1.284,3,2,0,0,7,255,1000,250,628,1000,-2.107,-12.892,5.719,-2.107,-12.892,5.719
151649.815,0.993,-0.011,-0.111,-0.047,857,23,874,2365,828,647,632,1109,47,0.911,61,0,51.476,0.288,-30.280,-34.140,-23.820,-0.265,-0.021,1.042,0.048,-0.284,0.606,0.002,0.002,1.417,1.284,3,2,0,0,7,255,1000,250,633,1000,-1.923,-12.725,5.591,-1.923,-12.725,5.591
151654.816,0.993,-0.010,-0.110,-0.046,627,20,892,2120,883,621,660,1123,47,0.911,61,0,49.324,0.220,-27.280,-36.020,-19.780,-0.257,0.005,1.049,-0.006,-0.220,0.648,0.002,0.004,1.417,1.284,3,2,0,0,7,255,1000,250,638,1000,-1.759,-12.548,5.483,-1.759,-12.548,5.483
151659.816,0.993,-0.009,-0.108,-0.045,468,16,913,1833,924,633,713,1127,47,0.911,61,0,50.510,0.082,-25.020,-39.560,-18.980,-0.280,0.061,1.037,-0.036,0.074,0.610,0.002,0.004,1.417,1.284,3,2,0,0,7,255,1000,250,643,1000,-1.609,-12.353,5.380,-1.609,-12.353,5.380
151664.817,0.993,-0.008,-0.106,-0.044,295,4,933,1456,954,619,729,1139,47,0.911,61,0,50.441,0.710,-18.680,-42.180,-20.400,-0.319,0.139,1.066,-0.342,0.622,0.658,0.002,0.006,1.417,1.284,3,2,0,0,7,255,1000,250,648,1000,-1.491,-12.145,5.270,-1.491,-12.145,5.270
151669.817,0.994,-0.007,-0.104,-0.043,123,4,949,1113,988,607,787,1147,47,0.911,61,0,56.848,1.563,-16.420,-46.280,-28.640,-0.341,0.209,1.130,-0.760,1.366,0.988,0.002,0.008,1.417,1.284,3,2,0,0,7,255,1000,250,653,1000,-1.374,-11.917,5.117,-1.374,-11.917,5.117
151674.815,0.994,-0.006,-0.102,-0.042,37,0,996,828,1018,619,858,1175,47,0.911,61,0,63.341,2.215,-16.960,-50.680,-34.000,-0.327,0.252,1.154,-0.834,2.052,1.658,0.004,0.010,1.417,1.284,3,2,0,0,7,255,1000,250,658,1000,-1.249,-11.666,4.937,-1.249,-11.666,4.937
151679.815,0.994,-0.006,-0.100,-0.040,0,3,1031,508,1051,585,880,1181,47,0.911,61,0,71.633,2.257,-13.740,-55.260,-43.460,-0.400,0.167,1.178,-0.940,2.052,1.854,0.004,0.010,1.417,1.284,3,2,0,0,7,255,1000,250,663,1000,-1.132,-11.394,4.710,-1.132,-11.394,4.710
151684.816,0.995,-0.006,-0.097,-0.039,0,0,1036,225,995,569,880,1195,47,0.911,61,0,71.508,2.205,10.740,-66.000,-25.340,-0.587,-0.013,1.314,-1.474,1.640,2.206,0.006,0.012,1.417,1.284,3,2,0,0,7,255,1000,250,668,1000,-1.156,-11.065,4.573,-1.156,-11.065,4.573
151689.816,0.995,-0.009,-0.093,-0.039,0,0,1048,37,1023,535,931,1216,47,0.911,61,0,104.018,2.961,59.080,-85.520,3.960,-0.860,-0.127,1.683,-2.948,-0.278,3.822,0.008,0.012,1.417,1.284,3,2,0,0,7,255,1000,250,673,1000,-1.450,-10.637,4.583,-1.450,-10.637,4.583
151694.815,0.995,-0.011,-0.089,-0.039,0,0,1072,29,1063,471,967,1240,47,0.911,61,0,111.008,3.383,32.780,-103.600,22.700,-0.700,0.042,1.840,-3.372,-0.278,7.814,0.008,0.010,1.417,1.284,3,2,0,0,7,255,1000,250,678,1000,-1.629,-10.115,4.684,-1.629,-10.115,4.684
151699.815,0.996,-0.007,-0.084,-0.038,0,0,1080,31,1080,435,1000,1234,47,0.911,61,0,130.012,3.486,-73.480,-102.980,-29.980,-0.458,-0.079,1.508,-3.372,-0.886,7.814,0.010,0.010,1.417,1.284,3,2,0,0,7,255,1000,250,683,1000,-1.230,-9.603,4.519,-1.230,-9.603,4.519
151704.815,0.996,-0.003,-0.079,-0.037,0,0,1107,39,1111,341,1015,1247,47,0.911,61,0,154.728,2.167,-109.260,-103.100,-37.060,-0.419,-0.333,1.053,-1.978,-0.886,5.390,0.012,0.008,1.417,1.284,3,2,0,0,7,255,1000,250,688,1000,-0.649,-9.090,4.322,-0.649,-9.090,4.322
151709.817,0.997,0.000,-0.074,-0.037,0,0,1103,31,1132,308,1043,1240,47,0.911,61,0,132.868,3.585,-64.020,-115.860,-11.480,-0.390,-0.318,0.879,-1.978,-2.990,0.886,0.014,0.008,1.417,1.284,3,2,0,0,7,255,1000,250,693,1000,-0.315,-8.510,4.259,-0.315,-8.510,4.259
151714.816,0.997,0.001,-0.069,-0.037,0,0,1117,13,1256,256,1079,1257,47,0.911,61,0,127.817,3.585,-21.120,-126.060,0.360,-0.352,-0.292,0.821,-1.978,-2.990,-0.848,0.016,0.008,1.417,1.284,3,2,0,0,7,255,1000,250,698,1000,-0.206,-7.879,4.256,-0.206,-7.879,4.256
151719.816,0.997,-0.000,-0.063,-0.037,0,0,1111,0,1371,214,1118,1252,47,0.911,61,0,133.034,3.401,15.320,-132.100,3.600,-0.394,-0.251,0.918,-2.076,-2.694,-0.848,0.018,0.008,1.417,1.284,3,2,0,0,7,255,1000,250,703,1000,-0.282,-7.217,4.271,-0.282,-7.217,4.271
151724.815,0.998,-0.002,-0.057,-0.037,0,0,1107,0,1387,183,1131,1263,47,0.911,61,0,147.351,3.297,41.800,-141.120,7.080,-0.395,-0.135,1.081,-2.316,-2.346,-0.516,0.020,0.010,1.417,1.284,3,2,0,0,7,255,1000,250,708,1000,-0.491,-6.511,4.302,-0.491,-6.511,4.302
151729.815,0.998,-0.004,-0.051,-0.037,0,0,1111,0,1430,147,1168,1274,47,0.911,61,0,154.859,2.634,44.680,-148.020,8.660,-0.327,0.038,1.271,-2.316,-1.254,1.030,0.024,0.014,1.417,1.284,3,2,0,0,7,255,1000,250,713,1000,-0.715,-5.769,4.337,-0.715,-5.769,4.337
151734.815,0.998,-0.006,-0.044,-0.038,0,0,1104,0,1452,127,1188,1251,47,0.911,61,0,156.962,1.806,31.060,-153.020,16.040,-0.261,0.180,1.359,-1.754,0.430,2.798,0.030,0.022,1.417,1.284,3,2,0,0,7,255,1000,250,718,1000,-0.874,-5.002,4.407,-0.874,-5.002,4.407
151739.815,0.999,-0.007,-0.037,-0.039,0,0,1112,0,1449,101,1216,1228,47,0.911,61,0,159.716,2.232,14.520,-156.560,28.060,-0.216,0.300,1.365,-1.306,1.810,3.598,0.036,0.030,1.417,1.284,3,2,0,0,7,255,1000,250,723,1000,-0.953,-4.216,4.535,-0.953,-4.216,4.535
151744.816,0.999,-0.007,-0.030,-0.041,0,0,1097,0,1501,63,1265,1211,47,0.911,61,0,162.245,3.191,-11.100,-158.880,30.940,-0.146,0.452,1.308,-1.146,2.978,3.598,0.046,0.040,1.417,1.284,3,2,0,0,7,255,1000,250,728,1000,-0.904,-3.419,4.677,-0.904,-3.419,4.677
151749.816,0.999,-0.006,-0.023,-0.042,0,0,1068,0,1521,52,1277,1175,47,0.911,61,0,160.161,4.665,-30.280,-155.480,23.680,-0.195,0.548,1.253,-1.146,4.522,3.034,0.054,0.052,1.417,1.284,3,2,0,0,7,255,1000,250,733,1000,-0.755,-2.639,4.784,-0.755,-2.639,4.784
151754.816,0.999,-0.005,-0.017,-0.042,0,0,1045,0,1527,41,1295,1173,47,0.911,61,0,155.287,5.471,-17.100,-153.580,15.320,-0.395,0.544,1.224,-1.578,5.238,2.512,0.064,0.062,1.417,1.284,3,2,0,0,7,255,1000,250,738,1000,-0.669,-1.869,4.851,-0.669,-1.869,4.851
151759.815,0.999,-0.007,-0.010,-0.042,0,0,1035,0,1555,26,1307,1141,47,0.911,61,0,164.992,6.420,28.560,-162.420,-5.140,-0.655,0.518,1.346,-3.712,5.238,2.512,0.072,0.070,1.417,1.284,3,2,0,0,7,255,1000,250,743,1000,-0.808,-1.056,4.814,-0.808,-1.056,4.814
151764.815,0.999,-0.010,-0.002,-0.040,0,0,993,0,1560,24,1311,1095,47,0.911,61,0,196.817,7.925,69.400,-180.800,-35.100,-0.995,0.249,1.771,-6.372,4.712,3.458,0.080,0.076,1.417,1.284,3,2,0,0,7,255,1000,250,748,1000,-1.150,-0.155,4.623,-1.150,-0.155,4.623
151769.816,0.999,-0.013,0.007,-0.038,0,0,949,0,1581,18,1326,1084,47,0.911,61,0,226.551,9.793,70.620,-207.840,-56.040,-1.298,-0.211,2.291,-9.652,1.658,7.510,0.088,0.082,1.417,1.284,3,2,0,0,7,255,1000,250,753,1000,-1.501,0.879,4.319,-1.501,0.879,4.319
151774.817,0.999,-0.015,0.018,-0.036,0,0,885,0,1583,12,1342,991,47,0.911,61,0,254.139,13.058,36.320,-246.900,-48.040,-1.437,-0.543,2.760,-12.640,-3.276,12.278,0.096,0.090,1.417,1.284,3,2,0,0,7,255,1000,250,758,1000,-1.687,2.107,4.044,-1.687,2.107,4.044
151779.816,0.999,-0.015,0.030,-0.034,0,0,792,0,1581,17,1307,926,47,0.911,61,0,284.665,15.336,-16.960,-283.220,-23.080,-1.494,-0.374,3.054,-14.410,-5.248,16.438,0.102,0.098,1.417,1.284,3,2,0,0,7,255,1000,250,763,1000,-1.607,3.520,3.887,-1.607,3.520,3.887
151784.816,0.998,-0.012,0.044,-0.034,0,0,732,0,1551,19,1279,875,47,0.911,61,0,332.799,16.765,-80.080,-322.880,9.520,-1.489,0.335,3.059,-15.922,-5.248,18.708,0.110,0.104,1.417,1.284,3,2,0,0,7,255,1000,250,768,1000,-1.203,5.136,3.895,-1.203,5.136,3.895
151789.816,0.997,-0.007,0.061,-0.036,0,0,672,0,1534,26,1254,851,47,0.911,61,0,392.833,17.284,-122.680,-371.480,35.640,-1.562,1.027,3.024,-17.186,1.840,18.708,0.116,0.110,1.417,1.284,3,2,0,0,7,255,1000,250,773,1000,-0.570,6.996,4.045,-0.570,6.996,4.045
151794.817,0.996,-0.001,0.079,-0.037,0,0,629,0,1477,19,1192,792,47,0.911,61,0,443.640,21.181,-147.640,-415.720,46.860,-1.711,1.314,3.038,-19.274,8.784,17.742,0.122,0.114,1.417,1.284,3,2,0,0,7,255,1000,250,778,1000,0.204,9.077,4.275,0.204,9.077,4.275
151799.815,0.994,0.005,0.099,-0.038,0,0,599,0,1418,23,1161,683,47,0.911,61,0,481.367,24.300,-153.200,-454.600,39.780,-1.996,1.170,2.982,-21.984,10.354,16.802,0.128,0.116,1.417,1.284,3,2,0,0,7,255,1000,250,783,1000,1.013,11.347,4.501,1.013,11.347,4.501
151804.816,0.992,0.013,0.121,-0.039,0,0,549,0,1307,23,1112,632,47,0.911,61,0,535.419,27.590,-195.980,-497.460,28.260,-2.069,1.043,2.812,-25.574,10.354,14.698,0.132,0.118,1.417,1.284,3,2,0,0,7,255,1000,250,788,1000,2.042,13.831,4.714,2.042,13.831,4.714
151809.816,0.989,0.021,0.144,-0.037,0,0,465,0,1197,29,1065,596,47,0.911,61,0,560.193,27.451,-206.920,-520.280,-17.580,-1.931,0.886,2.604,-25.800,9.376,11.626,0.138,0.120,1.417,1.284,3,2,0,0,7,255,1000,250,793,1000,3.088,16.434,4.743,3.088,16.434,4.743
151814.817,0.985,0.027,0.167,-0.035,0,0,379,0,1049,22,967,484,47,0.911,61,0,561.351,27.099,-164.860,-534.620,-46.020,-1.705,0.357,2.489,-25.800,8.290,8.730,0.148,0.122,1.417,1.284,3,2,0,0,7,255,1000,250,798,1000,3.894,19.117,4.672,3.894,19.117,4.672
151819.815,0.980,0.031,0.191,-0.032,0,0,329,0,893,28,839,454,47,0.911,61,0,577.623,24.110,-137.580,-558.980,-47.560,-1.306,-0.171,2.470,-23.846,3.560,7.816,0.158,0.128,1.417,1.284,3,2,0,0,7,255,1000,250,803,1000,4.573,21.921,4.639,4.573,21.921,4.639
151824.815,0.975,0.034,0.216,-0.031,0,0,256,0,759,19,675,445,47,0.911,61,0,576.561,20.730,-71.540,-571.660,-22.580,-1.050,-0.826,2.380,-20.702,-1.082,7.508,0.176,0.142,1.417,1.284,3,2,0,0,7,255,1000,250,808,1000,4.988,24.779,4.776,4.988,24.779,4.776
151829.815,0.969,0.034,0.242,-0.033,0,0,195,0,619,25,470,436,47,0.911,61,0,603.965,21.942,-18.500,-602.980,29.100,-1.153,-0.824,2.472,-20.702,-7.272,7.508,0.196,0.158,1.417,1.284,3,2,0,0,7,255,1000,250,813,1000,5.288,27.769,5.239,5.288,27.769,5.239
151834.815,0.962,0.033,0.267,-0.038,0,0,160,0,489,9,317,423,47,0.911,61,0,617.649,22.021,19.340,-612.560,76.720,-1.479,-0.531,2.594,-20.786,-7.272,6.820,0.220,0.182,1.417,1.284,3,2,0,0,7,255,1000,250,818,1000,5.571,30.782,6.008,5.571,30.782,6.008
151839.816,0.954,0.031,0.294,-0.044,0,0,59,0,378,3,236,420,47,0.911,61,0,667.111,25.558,63.840,-652.240,124.680,-1.807,-0.423,2.781,-25.058,-5.030,4.836,0.248,0.210,1.417,1.284,3,2,0,0,7,255,1000,250,823,1000,5.854,33.966,7.127,5.854,33.966,7.127
151844.816,0.945,0.026,0.322,-0.052,0,0,41,0,159,1,170,395,47,0.911,61,0,676.611,29.873,115.660,-655.360,122.180,-1.752,-0.205,3.039,-29.500,-4.708,3.392,0.280,0.242,1.417,1.284,3,2,0,0,7,255,1000,250,828,1000,5.969,37.329,8.310,5.969,37.329,8.310
151849.815,0.935,0.021,0.350,-0.058,0,0,23,0,139,0,109,346,47,0.911,61,0,674.472,31.215,125.680,-655.360,98.080,-1.452,0.380,3.143,-31.056,-3.146,3.392,0.316,0.278,1.417,1.284,3,2,0,0,7,255,1000,250,833,1000,6.031,40.701,9.400,6.031,40.701,9.400
151854.815,0.924,0.019,0.376,-0.065,0,0,24,0,133,0,53,347,47,0.911,61,0,669.174,31.136,51.140,-654.980,127.200,-1.609,0.802,2.625,-31.056,2.226,3.392,0.356,0.318,1.417,1.284,3,2,0,0,7,255,1000,250,838,1000,6.683,43.886,10.744,6.683,43.886,10.744
151859.815,0.912,0.025,0.402,-0.076,0,0,8,0,60,0,17,335,47,0.911,61,0,690.213,30.035,-68.180,-626.420,281.680,-2.227,0.748,1.756,-29.784,3.872,-3.102,0.398,0.360,1.417,1.284,3,2,0,0,7,255,1000,250,843,1000,8.868,46.799,13.331,8.868,46.799,13.331
151864.815,0.901,0.041,0.423,-0.086,0,0,9,0,58,0,0,335,47,0.911,61,0,706.723,28.470,-290.900,-527.420,369.680,-2.048,1.999,0.895,-27.900,5.668,-14.968,0.450,0.410,1.417,1.284,3,2,0,0,7,255,1000,250,848,1000,12.887,49.041,16.781,12.887,49.041,16.781
151869.816,0.892,0.067,0.438,-0.087,0,0,8,0,90,0,0,327,47,0.911,61,0,723.691,21.868,-571.360,-336.020,290.460,-0.113,0.396,-0.010,-21.516,3.908,-14.968,0.506,0.464,1.417,1.284,3,2,0,0,7,255,1000,250,853,1000,17.921,50.276,19.633,17.921,50.276,19.633
151874.817,0.888,0.097,0.442,-0.077,0,0,9,0,93,0,0,301,47,0.911,61,0,664.985,4.510,-655.360,-66.540,91.000,-0.078,0.462,-0.138,-0.780,4.442,-12.402,0.574,0.530,1.417,1.284,3,2,0,0,7,255,1000,250,858,1000,22.174,50.433,20.482,22.174,50.433,20.482
151879.815,0.889,0.117,0.437,-0.068,0,0,5,0,80,0,0,291,47,0.911,61,0,521.576,4.480,-487.420,182.120,36.000,-1.430,2.409,-1.792,0.582,4.442,-12.402,0.644,0.600,1.417,1.284,3,2,0,0,7,255,1000,250,863,1000,24.381,49.527,20.180,24.381,49.527,20.180
151884.815,0.896,0.119,0.423,-0.067,0,0,3,0,75,0,0,279,47,0.911,61,0,341.020,4.480,-24.120,339.960,11.840,-2.713,0.545,-1.822,0.582,4.442,-37.310,0.728,0.682,1.417,1.284,4,2,0,0,7,255,1000,250,868,1000,23.776,47.952,19.210,23.776,47.952,19.210
151889.815,0.901,0.108,0.414,-0.070,0,0,4,0,72,0,0,261,47,1.142,61,0,368.216,2.088,292.420,222.040,-27.780,-0.394,-0.097,-0.116,-1.406,-1.544,-37.310,0.810,0.762,1.417,1.284,4,2,0,0,7,255,1000,250,873,1000,21.710,46.983,18.386,21.710,46.983,18.386
151894.815,0.906,0.092,0.408,-0.073,0,0,6,0,71,0,0,249,47,1.142,61,0,414.667,4.294,381.040,137.440,-88.700,-3.420,-0.861,1.489,-2.898,-3.168,-22.846,0.908,0.858,1.417,1.284,4,2,0,0,7,255,1000,250,878,1000,19.112,46.495,17.430,19.112,46.495,17.430
151899.816,0.910,0.081,0.402,-0.068,0,0,2,0,0,0,0,245,47,1.142,61,0,318.297,32.477,207.400,155.940,-184.340,-2.766,-0.021,2.202,-32.340,-2.984,-15.066,1.004,0.952,1.417,1.284,4,2,0,0,7,255,1000,250,883,1000,16.910,46.039,15.814,16.910,46.039,15.814
151904.816,0.913,0.078,0.395,-0.059,0,0,6,0,0,0,0,247,47,1.142,61,0,282.924,32.477,-0.740,182.420,-216.260,-1.674,0.971,1.869,-32.340,-2.984,-15.066,1.108,1.054,1.417,1.284,4,2,0,0,7,255,1000,250,888,1000,15.589,45.467,13.960,15.589,45.467,13.960
151909.816,0.917,0.080,0.387,-0.050,0,0,4,0,0,0,0,245,47,1.142,61,0,301.038,26.298,-118.780,227.160,-157.840,-0.882,1.359,0.838,-24.828,8.668,-12.818,1.204,1.152,1.417,1.284,4,2,0,0,7,255,1000,250,893,1000,15.123,44.582,12.458,15.123,44.582,12.458
151914.817,0.922,0.084,0.376,-0.046,0,0,0,0,0,0,0,237,47,1.142,61,0,295.468,17.779,-102.120,274.280,-40.540,-0.484,1.649,-0.016,-12.118,13.010,-12.818,1.294,1.240,1.417,1.284,4,2,0,0,7,255,1000,250,898,1000,15.104,43.311,11.690,15.104,43.311,11.690
151919.815,0.926,0.088,0.365,-0.045,0,0,0,0,0,0,0,238,47,1.142,61,0,297.623,13.780,-69.340,287.580,32.700,-0.505,1.508,-0.610,-3.414,13.350,-16.362,1.370,1.316,1.417,1.284,4,2,0,0,7,255,1000,250,903,1000,15.253,41.882,11.393,15.253,41.882,11.393
151924.815,0.930,0.090,0.353,-0.046,0,0,0,0,0,0,0,228,47,1.142,61,0,304.455,13.655,-9.400,296.560,68.240,-0.895,1.013,-0.570,-2.868,13.350,-20.430,1.446,1.392,1.417,1.284,4,2,0,0,7,255,1000,250,908,1000,15.250,40.363,11.312,15.250,40.363,11.312
151929.816,0.936,0.090,0.338,-0.048,0,0,0,0,0,0,0,215,47,1.142,61,0,359.354,8.519,37.960,351.120,66.400,-1.291,0.477,-0.322,-2.868,8.022,-21.146,1.530,1.476,1.417,1.284,4,2,0,0,7,255,1000,250,913,1000,14.950,38.582,11.135,14.950,38.582,11.135
151934.816,0.941,0.089,0.322,-0.049,0,0,0,0,0,0,0,221,47,1.142,61,0,386.911,8.052,60.060,380.480,36.440,-1.500,0.114,-0.099,-7.624,2.590,-21.146,1.632,1.578,1.417,1.284,4,2,0,0,7,255,1000,250,918,1000,14.417,36.697,10.748,14.417,36.697,10.748
151939.815,0.947,0.087,0.305,-0.049,0,0,0,0,0,0,0,217,47,1.142,61,0,413.684,10.867,85.820,404.640,5.980,-1.497,0.072,0.077,-10.832,-0.876,-19.692,1.732,1.678,1.417,1.284,0,2,0,0,7,255,1000,250,923,1000,13.660,34.728,10.180,13.660,34.728,10.180
151944.815,0.953,0.083,0.288,-0.048,0,0,0,0,0,0,0,218,47,1.142,61,0,428.788,12.180,106.200,414.960,-19.720,-1.332,0.258,0.312,-12.148,-0.876,-17.824,1.858,1.804,1.417,1.284,0,2,0,0,7,255,1000,250,928,1000,12.751,32.732,9.494,12.751,32.732,9.494
151949.815,0.958,0.079,0.270,-0.047,0,0,0,0,0,0,0,213,47,1.142,61,0,438.442,12.232,117.560,421.500,-27.360,-1.087,0.463,0.525,-12.148,1.432,-14.952,1.982,1.926,1.417,1.284,0,2,0,0,7,255,1000,250,933,1000,11.807,30.703,8.811,11.807,30.703,8.811
151954.815,0.964,0.074,0.252,-0.046,0,0,0,0,0,0,0,211,47,1.142,61,0,439.713,12.461,121.160,422.160,-21.180,-0.899,0.565,0.707,-11.780,4.064,-11.834,2.110,2.052,1.417,1.284,0,2,0,0,7,255,1000,250,938,1000,10.908,28.655,8.213,10.908,28.655,8.213
151959.816,0.969,0.070,0.234,-0.045,0,0,0,0,0,0,0,207,47,1.142,61,0,435.375,12.465,117.740,419.000,-11.300,-0.783,0.552,0.821,-11.166,5.540,-9.100,2.228,2.170,1.417,1.284,0,2,0,0,7,255,1000,250,943,1000,10.094,26.607,7.719,10.094,26.607,7.719
151964.816,0.973,0.066,0.217,-0.045,0,0,0,0,0,0,0,206,47,1.142,61,0,425.415,11.975,106.500,411.860,-2.640,-0.652,0.479,0.977,-10.616,5.540,-7.124,2.342,2.282,1.417,1.284,0,2,0,0,7,255,1000,250,948,1000,9.391,24.580,7.318,9.391,24.580,7.318
151969.816,0.977,0.063,0.199,-0.045,0,0,0,0,0,0,0,205,47,1.142,61,0,419.752,11.275,92.100,409.480,5.980,-0.579,0.382,0.989,-9.950,5.304,-4.690,2.424,2.362,1.417,1.284,0,2,0,0,7,255,1000,250,953,1000,8.806,22.555,6.997,8.806,22.555,6.997
151974.817,0.980,0.061,0.182,-0.045,0,0,0,0,0,0,0,203,47,1.142,61,0,412.279,10.100,76.960,404.640,17.820,-0.480,0.305,1.007,-9.070,4.444,-3.782,2.470,2.404,1.417,1.284,0,2,0,0,7,255,1000,250,958,1000,8.340,20.542,6.767,8.340,20.542,6.767
151979.815,0.984,0.059,0.164,-0.046,0,0,0,0,0,0,0,204,47,1.142,61,0,411.903,8.826,71.220,404.640,29.300,-0.461,0.240,0.955,-7.958,3.816,-2.874,2.476,2.408,1.417,1.284,0,2,0,0,7,255,1000,250,963,1000,7.937,18.520,6.617,7.937,18.520,6.617
151984.815,0.986,0.057,0.147,-0.047,0,0,0,0,0,0,0,207,47,1.142,61,0,411.693,7.957,79.900,402.020,38.560,-0.464,0.191,0.936,-7.312,3.138,-2.830,2.460,2.394,1.417,1.284,0,2,0,0,7,255,1000,250,968,1000,7.515,16.504,6.534,7.515,16.504,6.534
151989.816,0.989,0.053,0.129,-0.048,0,0,0,0,0,0,0,200,47,1.142,61,0,412.076,7.490,98.260,398.000,41.800,-0.488,0.175,0.964,-7.020,2.612,-2.726,2.454,2.386,1.417,1.284,0,2,0,0,7,255,1000,250,973,1000,7.015,14.504,6.488,7.015,14.504,6.488
151994.817,0.991,0.049,0.112,-0.050,0,0,0,0,0,0,0,204,47,1.142,61,0,412.345,7.425,119.200,392.680,40.280,-0.504,0.171,1.060,-7.020,2.418,-2.240,2.476,2.408,1.417,1.284,0,2,0,0,7,255,1000,250,978,1000,6.415,12.531,6.458,6.415,12.531,6.458
151999.816,0.993,0.045,0.095,-0.051,0,0,0,0,0,0,0,207,47,1.142,61,0,410.428,7.491,133.420,386.400,36.680,-0.510,0.167,1.192,-7.104,2.376,-1.096,2.532,2.462,1.417,1.284,0,2,0,0,7,255,1000,250,983,1000,5.746,10.592,6.435,5.746,10.592,6.435
152004.816,0.995,0.039,0.078,-0.052,0,0,0,0,0,0,0,206,47,1.142,61,0,409.028,7.483,142.400,382.000,33.200,-0.492,0.148,1.292,-7.104,2.352,0.430,2.596,2.524,1.417,1.284,0,2,0,0,7,255,1000,250,988,1000,5.035,8.676,6.420,5.035,8.676,6.420
152009.816,0.996,0.034,0.061,-0.054,0,0,0,0,0,0,0,204,47,1.142,61,0,409.021,7.073,151.540,378.460,33.200,-0.487,0.165,1.356,-6.708,2.244,1.692,2.658,2.586,1.417,1.284,0,2,0,0,7,255,1000,250,993,1000,4.282,6.778,6.432,4.282,6.778,6.432
152014.815,0.997,0.028,0.044,-0.055,0,0,0,0,0,0,0,208,47,1.142,61,0,408.340,6.767,161.260,373.640,33.620,-0.520,0.218,1.444,-6.384,2.244,2.560,2.702,2.630,1.417,1.284,0,2,0,0,7,255,1000,250,998,1000,3.483,4.904,6.473,3.483,4.904,6.473
152019.817,0.998,0.022,0.028,-0.056,0,0,0,0,0,0,0,206,47,1.142,61,0,407.733,6.883,169.060,369.740,30.940,-0.557,0.252,1.517,-6.362,2.628,3.596,2.744,2.670,1.417,1.284,0,2,1,0,7,255,1000,250,3,1000,2.645,3.050,6.529,2.645,3.050,6.529
152024.816,0.998,0.015,0.012,-0.057,0,0,0,0,0,0,0,205,47,1.142,61,0,404.565,6.897,172.660,364.920,26.360,-0.563,0.256,1.587,-6.362,2.664,4.506,2.780,2.704,1.417,1.284,0,2,1,0,7,255,1000,250,8,1000,1.787,1.223,6.590,1.787,1.223,6.590
152029.816,0.998,0.008,-0.005,-0.058,0,0,0,0,0,0,0,209,47,1.142,61,0,400.813,6.536,175.420,359.660,22.880,-0.542,0.245,1.596,-5.968,2.664,5.430,2.820,2.744,1.417,1.284,0,2,1,0,7,255,1000,250,13,1000,0.914,-0.576,6.662,0.914,-0.576,6.662
152034.815,0.998,0.001,-0.020,-0.059,0,0,0,0,0,0,0,204,47,1.142,61,0,396.452,5.756,181.760,351.600,22.700,-0.524,0.225,1.625,-5.234,2.396,5.736,2.858,2.780,1.417,1.284,0,2,1,0,7,255,1000,250,18,1000,0.006,-2.334,6.761,0.006,-2.334,6.761
152039.815,0.998,-0.006,-0.036,-0.060,0,0,0,0,0,0,0,208,47,1.142,61,0,396.637,4.954,188.300,348.320,23.180,-0.449,0.194,1.766,-4.522,2.024,6.206,2.902,2.822,1.417,1.284,0,2,1,0,7,255,1000,250,23,1000,-0.940,-4.073,6.891,-0.940,-4.073,6.891
152044.815,0.997,-0.014,-0.052,-0.061,0,0,0,0,0,0,0,197,47,1.142,61,0,404.442,3.517,197.940,351.920,23.360,-0.468,0.144,1.756,-3.138,1.588,7.688,2.944,2.864,1.417,1.284,0,2,1,0,7,255,1000,250,28,1000,-1.940,-5.828,7.052,-1.940,-5.828,7.052
152049.815,0.996,-0.022,-0.067,-0.061,0,0,0,0,0,0,0,204,47,1.142,61,0,409.899,2.830,215.340,347.940,24.160,-0.489,0.161,1.815,-2.704,0.834,7.714,2.996,2.914,1.417,1.284,0,2,1,0,7,255,1000,250,33,1000,-3.037,-7.560,7.249,-3.037,-7.560,7.249
152054.816,0.994,-0.032,-0.083,-0.062,0,0,0,0,0,0,0,187,47,1.142,61,0,418.520,2.370,235.100,345.200,26.900,-0.553,0.160,1.989,-2.270,0.680,8.412,3.046,2.964,1.417,1.284,0,2,1,0,7,255,1000,250,38,1000,-4.245,-9.273,7.496,-4.245,-9.273,7.496
152059.816,0.992,-0.041,-0.099,-0.063,0,0,0,0,0,0,0,201,47,1.142,61,0,426.407,2.015,249.260,344.960,26.360,-0.607,0.104,2.217,-2.006,0.188,10.260,3.106,3.022,1.417,1.284,0,2,1,0,7,255,1000,250,43,1000,-5.538,-10.979,7.778,-5.538,-10.979,7.778
152064.816,0.990,-0.051,-0.114,-0.063,0,0,0,0,0,0,0,204,47,1.142,61,0,426.573,1.647,246.700,347.640,15.800,-0.639,-0.016,2.370,-1.348,-0.946,12.548,3.160,3.076,1.417,1.284,0,2,1,0,7,255,1000,250,48,1000,-6.824,-12.698,8.049,-6.824,-12.698,8.049
152069.817,0.988,-0.061,-0.130,-0.063,0,0,0,0,0,0,0,187,47,1.142,61,0,426.340,2.713,243.720,349.780,4.500,-0.701,-0.181,2.433,-0.434,-2.678,13.948,3.220,3.134,1.417,1.284,0,2,1,0,7,255,1000,250,53,1000,-8.100,-14.428,8.306,-8.100,-14.428,8.306
152074.815,0.985,-0.070,-0.146,-0.062,0,0,0,0,0,0,0,192,47,1.142,61,0,427.178,4.831,244.620,349.720,-18.380,-0.599,-0.184,2.523,0.104,-4.830,14.418,3.272,3.184,1.417,1.284,0,2,1,0,7,255,1000,250,58,1000,-9.367,-16.168,8.486,-9.367,-16.168,8.486
152079.815,0.982,-0.080,-0.162,-0.059,0,0,0,0,0,0,0,192,47,1.142,61,0,437.562,5.634,259.760,347.520,-56.700,-0.385,-0.237,2.741,2.110,-5.224,14.876,3.328,3.240,1.417,1.284,0,2,1,0,7,255,1000,250,63,1000,-10.669,-17.928,8.510,-10.669,-17.928,8.510
152084.815,0.977,-0.110,-0.172,-0.062,0,0,0,0,0,0,0,185,47,1.142,61,0,713.186,5.634,655.340,214.160,182.480,-0.105,0.031,0.626,2.110,-5.224,14.876,3.380,3.290,1.417,1.284,0,2,1,0,7,255,1000,250,68,1000,-14.425,-18.774,9.692,-14.425,-18.774,9.692
152089.816,0.971,-0.145,-0.179,-0.066,0,0,0,0,0,0,0,189,47,1.142,61,0,704.263,3.425,655.340,145.860,212.700,0.093,0.169,0.680,3.354,-0.696,-3.754,3.426,3.336,1.417,1.284,0,2,1,0,7,255,1000,250,73,1000,-18.842,-19.167,10.989,-18.842,-19.167,10.989
152094.816,0.971,-0.130,-0.191,-0.055,0,0,0,0,0,0,0,211,47,1.142,61,0,514.577,2.052,-270.080,254.020,-356.820,-0.010,-0.154,0.460,1.930,-0.696,-3.890,3.472,3.380,1.417,1.284,0,2,1,0,7,255,1000,250,78,1000,-17.012,-20.923,9.598,-17.012,-20.923,9.598
152099.817,0.971,-0.118,-0.202,-0.047,0,0,0,0,0,0,0,205,47,1.142,61,0,420.158,3.985,-222.960,246.500,-257.020,2.630,-0.269,2.713,3.354,-2.152,-3.754,3.508,3.416,1.417,1.284,0,2,1,0,7,255,1000,250,83,1000,-15.540,-22.466,8.642,-15.540,-22.466,8.642
152104.815,0.970,-0.106,-0.217,-0.037,0,0,0,0,0,0,0,191,47,1.142,61,0,484.248,34.322,-185.540,323.900,-308.480,3.225,-0.443,1.277,34.230,-2.518,-6.276,3.542,3.448,1.417,1.284,0,2,1,0,7,255,1000,250,88,1000,-14.143,-24.425,7.469,-14.143,-24.425,7.469
152109.817,0.966,-0.108,-0.231,-0.030,0,0,0,0,0,0,0,210,47,1.142,61,0,363.608,34.876,89.780,307.000,-172.920,3.550,-0.785,1.302,34.624,-4.184,-12.908,3.570,3.476,1.417,1.284,0,2,1,0,7,255,1000,250,93,1000,-14.371,-26.125,6.960,-14.371,-26.125,6.960
152114.815,0.963,-0.115,-0.243,-0.027,0,0,0,0,0,0,0,211,47,1.142,61,0,331.622,34.322,195.320,261.460,-58.840,0.321,-0.152,0.240,34.230,-2.518,-12.908,3.594,3.498,1.417,1.284,0,2,1,0,7,255,1000,250,98,1000,-15.370,-27.463,7.017,-15.370,-27.463,7.017
152119.816,0.959,-0.121,-0.253,-0.027,0,0,0,0,0,0,0,211,47,1.142,61,0,292.337,4.295,153.260,248.940,-0.980,0.269,-0.143,0.301,4.078,-1.348,-9.718,3.614,3.516,1.417,1.284,0,2,1,0,7,255,1000,250,103,1000,-16.312,-28.661,7.396,-16.312,-28.661,7.396
152124.816,0.956,-0.124,-0.264,-0.025,0,0,0,0,0,0,0,211,47,1.142,61,0,257.710,4.295,86.980,239.360,-39.440,2.542,-0.646,2.853,4.078,-1.348,-9.050,3.634,3.536,1.417,1.284,0,2,1,0,7,255,1000,250,108,1000,-16.828,-29.863,7.570,-16.828,-29.863,7.570
152129.815,0.953,-0.126,-0.274,-0.022,0,0,0,0,0,0,0,207,47,1.142,61,0,258.793,4.386,81.960,223.440,-101.640,0.309,-0.009,0.273,4.174,-1.348,-9.050,3.654,3.552,1.417,1.284,0,2,1,0,7,255,1000,250,113,1000,-17.141,-31.079,7.384,-17.141,-31.079,7.384
152134.815,0.950,-0.130,-0.284,-0.017,0,0,0,0,0,0,0,211,47,1.142,61,0,281.510,4.728,132.500,224.840,-105.540,0.363,0.015,0.290,4.728,-0.008,-9.320,3.674,3.572,1.417,1.284,0,2,1,0,7,255,1000,250,118,1000,-17.697,-32.309,7.188,-17.697,-32.309,7.188
152139.815,0.946,-0.136,-0.293,-0.011,0,0,0,0,0,0,0,221,47,1.142,61,0,298.094,4.732,176.580,214.280,-108.460,0.417,0.031,0.316,4.728,0.202,-9.500,3.694,3.590,1.417,1.284,0,2,1,0,7,255,1000,250,123,1000,-18.457,-33.495,6.969,-18.457,-33.495,6.969
152144.815,0.943,-0.142,-0.300,-0.007,0,0,0,0,0,0,0,237,47,1.142,61,0,252.016,5.324,176.940,163.740,-73.440,0.452,0.019,0.370,5.320,0.202,-9.554,3.718,3.614,1.417,1.284,0,2,1,0,7,255,1000,250,128,1000,-19.283,-34.388,6.869,-19.283,-34.388,6.869
152149.816,0.941,-0.146,-0.305,-0.006,0,0,0,0,0,0,0,215,47,1.142,61,0,156.939,5.904,104.120,117.420,-1.160,0.462,-0.006,0.418,5.904,0.014,-9.554,3.744,3.638,1.417,1.284,0,2,1,0,7,255,1000,250,133,1000,-19.933,-34.942,7.101,-19.933,-34.942,7.101
152154.816,0.940,-0.147,-0.307,-0.010,0,0,0,0,0,0,0,212,47,1.142,61,0,107.565,6.095,-2.620,62.980,87.160,0.444,-0.046,0.419,6.084,-0.358,-9.404,3.772,3.664,1.417,1.284,0,2,1,0,7,255,1000,250,138,1000,-20.279,-35.087,7.732,-20.279,-35.087,7.732
152159.815,0.941,-0.145,-0.306,-0.018,0,0,0,0,0,0,0,221,47,1.142,61,0,193.498,6.126,-105.840,-1.420,161.980,0.401,-0.072,0.381,6.084,-0.712,-9.404,3.794,3.686,1.417,1.284,0,2,1,0,7,255,1000,250,143,1000,-20.275,-34.799,8.655,-20.275,-34.799,8.655
152164.815,0.942,-0.141,-0.302,-0.028,0,0,0,0,0,0,0,235,47,1.142,61,0,258.783,5.578,-161.080,-60.920,193.160,0.360,-0.086,0.344,5.520,-0.804,-9.490,3.814,3.706,1.417,1.284,0,2,1,0,7,255,1000,250,148,1000,-20.017,-34.180,9.627,-20.017,-34.180,9.627
152169.817,0.945,-0.137,-0.295,-0.037,0,0,0,0,0,0,0,227,47,1.142,61,0,282.617,5.060,-164.060,-132.400,188.220,0.339,-0.106,0.322,4.994,-0.812,-9.528,3.832,3.722,1.417,1.284,0,2,1,0,7,255,1000,250,153,1000,-19.634,-33.237,10.421,-19.634,-33.237,10.421
152174.815,0.948,-0.133,-0.286,-0.045,109,0,0,0,0,0,0,205,47,1.142,61,0,299.232,4.957,-165.960,-193.920,156.180,0.346,-0.124,0.341,4.878,-0.882,-9.528,3.846,3.734,1.417,1.284,0,2,1,0,7,255,1000,250,158,1000,-19.067,-32.063,10.914,-19.067,-32.063,10.914
152179.816,0.952,-0.125,-0.275,-0.050,391,0,0,164,0,0,0,213,47,1.142,61,0,340.083,4.964,-222.780,-241.100,88.860,0.367,-0.121,0.348,4.878,-0.922,-9.380,3.856,3.744,1.417,1.284,0,2,1,0,7,255,1000,250,163,1000,-17.973,-30.778,10.958,-17.973,-30.778,10.958
152184.816,0.956,-0.109,-0.265,-0.061,940,0,0,697,0,2,0,217,47,1.142,61,0,510.871,4.984,-433.480,-206.800,174.120,0.258,-0.199,0.314,4.878,-1.020,-9.290,3.864,3.750,1.417,1.284,0,2,1,0,7,255,1000,250,168,1000,-16.110,-29.533,11.570,-16.110,-29.533,11.570
152189.815,0.958,-0.090,-0.258,-0.091,1969,0,0,1695,0,0,0,239,47,1.142,61,0,840.724,5.346,-625.860,-59.220,558.220,1.243,-0.715,0.735,5.090,-1.636,-9.290,3.864,3.750,1.417,1.284,0,2,1,0,7,255,1000,250,173,1000,-14.428,-28.512,14.557,-14.428,-28.512,14.557
152194.816,0.958,-0.078,-0.248,-0.125,2780,0,0,2681,0,7,0,243,47,1.142,61,0,822.530,4.375,-481.320,-124.160,655.340,-0.297,-0.008,-1.505,4.058,-1.636,-11.140,3.860,3.744,1.417,1.284,0,2,1,0,7,255,1000,250,178,1000,-13.699,-27.073,18.160,-13.699,-27.073,18.160
152199.815,0.956,-0.076,-0.236,-0.155,3077,0,0,3027,0,9,0,219,47,1.142,61,0,725.509,9.576,-237.680,-201.000,655.340,-2.145,0.745,-0.762,-9.546,0.762,-11.140,3.850,3.734,1.417,1.284,0,2,1,0,7,255,1000,250,183,1000,-14.030,-25.272,21.612,-14.030,-25.272,21.612
152204.817,0.956,-0.082,-0.225,-0.169,3192,0,0,3211,0,22,0,233,47,1.142,61,0,427.963,22.959,20.940,-238.600,354.660,-3.125,2.209,0.380,-22.946,0.764,-5.902,3.830,3.714,1.417,1.284,0,2,1,0,7,255,1000,250,188,1000,-14.779,-23.674,23.173,-14.779,-23.674,23.173
152209.816,0.957,-0.091,-0.217,-0.171,3261,0,0,3307,0,21,0,233,47,1.142,61,0,264.550,23.004,138.000,-206.740,90.560,-0.286,0.269,0.139,-22.946,1.634,-5.902,3.804,3.684,1.417,1.284,0,2,1,0,7,255,1000,250,193,1000,-15.536,-22.557,23.353,-15.536,-22.557,23.353
152214.817,0.959,-0.096,-0.211,-0.165,3307,0,0,3389,0,25,0,238,47,1.142,61,0,238.980,15.104,125.980,-176.340,-100.720,-1.682,2.351,1.936,-12.026,9.138,10.744,3.766,3.646,1.417,1.284,0,2,1,0,7,255,1000,250,198,1000,-15.868,-21.844,22.571,-15.868,-21.844,22.571
152219.816,0.962,-0.097,-0.204,-0.154,3333,0,0,3415,0,27,0,275,47,1.142,61,0,288.135,8.482,30.880,-178.960,-223.700,-0.688,1.404,2.314,-2.342,8.152,16.330,3.724,3.602,1.417,1.284,0,2,1,0,7,255,1000,250,203,1000,-15.498,-21.284,21.153,-15.498,-21.284,21.153
152224.815,0.965,-0.091,-0.198,-0.143,3353,0,0,3424,0,45,0,288,47,1.142,61,0,332.987,8.161,-110.720,-162.680,-268.620,-0.224,0.767,2.300,0.374,8.152,16.330,3.664,3.542,1.417,1.284,0,2,1,0,7,255,1000,250,208,1000,-14.360,-20.843,19.538,-14.360,-20.843,19.538
152229.815,0.970,-0.079,-0.191,-0.132,3339,0,0,3447,0,67,0,307,47,1.142,61,0,425.998,6.969,-249.580,-160.600,-305.600,0.045,0.019,1.643,5.644,4.088,13.024,3.604,3.480,1.417,1.284,0,2,1,0,7,255,1000,250,213,1000,-12.480,-20.416,17.750,-12.480,-20.416,17.750
152234.815,0.973,-0.065,-0.184,-0.120,3356,0,0,3455,27,75,0,307,47,1.142,61,0,446.447,6.900,-270.020,-151.200,-321.780,0.282,-0.837,0.933,6.830,-0.980,4.698,3.528,3.404,1.417,1.284,0,2,1,0,7,255,1000,250,218,1000,-10.491,-19.995,15.910,-10.491,-19.995,15.910
152239.815,0.977,-0.055,-0.178,-0.108,3357,0,0,3476,21,110,0,341,47,1.142,62,0,396.390,10.903,-191.460,-131.720,-321.120,0.534,-1.442,0.668,7.824,-7.594,-3.824,3.456,3.330,1.417,1.284,1,2,1,0,7,255,1000,250,223,1000,-8.920,-19.615,14.110,-8.920,-19.615,14.110
152244.816,0.979,-0.049,-0.173,-0.096,3352,0,0,3475,35,133,0,340,47,1.142,62,0,326.634,16.122,-96.320,-125.740,-285.660,0.727,-1.575,0.803,10.022,-12.628,-6.906,3.370,3.244,1.417,1.284,1,2,1,0,7,255,1000,250,228,1000,-7.905,-19.201,12.513,-7.905,-19.201,12.513
152249.816,0.981,-0.047,-0.168,-0.088,3353,0,0,3482,33,165,0,359,47,1.142,62,0,229.110,17.513,-46.260,-122.320,-188.120,0.788,-1.287,1.081,12.134,-12.628,-6.906,3.270,3.142,1.417,1.284,1,2,1,0,7,255,1000,250,233,1000,-7.322,-18.719,11.442,-7.322,-18.719,11.442
152254.815,0.982,-0.044,-0.163,-0.085,3347,0,0,3487,44,167,0,391,47,1.142,62,0,142.521,16.525,-61.760,-108.540,-68.680,0.616,-0.755,1.284,12.134,-11.218,-3.974,3.166,3.038,1.417,1.284,1,2,1,0,7,255,1000,250,238,1000,-6.874,-18.222,11.011,-6.874,-18.222,11.011
152259.815,0.983,-0.039,-0.158,-0.088,3353,0,0,3496,56,183,11,407,47,1.142,62,0,158.746,12.871,-115.000,-100.960,42.220,0.127,-0.277,1.026,11.082,-6.546,-1.060,3.054,2.924,1.417,1.284,1,2,1,0,7,255,1000,250,243,1000,-6.345,-17.695,11.171,-6.345,-17.695,11.171
152264.815,0.983,-0.036,-0.154,-0.091,3351,0,0,3511,57,215,28,427,47,1.142,62,0,160.761,5.618,-108.760,-91.500,75.120,-0.335,0.091,0.953,4.988,-2.584,-0.784,2.926,2.794,1.417,1.284,1,2,1,0,7,255,1000,250,248,1000,-5.900,-17.200,11.511,-5.900,-17.200,11.511
152269.816,0.984,-0.035,-0.151,-0.090,3355,0,0,3500,73,235,81,437,47,1.142,62,0,71.158,0.265,-16.780,-63.300,-27.840,-0.515,0.156,1.173,-0.154,0.216,0.012,2.800,2.666,1.417,1.284,1,2,0,0,7,255,1000,250,253,1000,-5.760,-16.898,11.332,-5.760,-16.898,11.332
152274.817,0.985,-0.035,-0.149,-0.086,3357,0,0,3500,83,317,93,461,47,1.142,62,0,120.197,0.270,13.980,-59.040,-103.760,-0.264,0.085,1.148,-0.154,0.222,1.632,2.656,2.520,1.417,1.284,1,2,0,0,7,255,1000,250,258,1000,-5.662,-16.655,10.761,-5.662,-16.655,10.761
152279.816,0.985,-0.035,-0.146,-0.081,3349,0,0,3512,103,371,91,445,47,1.142,62,0,132.401,1.079,4.640,-72.820,-110.480,0.061,0.345,1.105,0.990,0.430,1.632,2.518,2.380,1.417,1.284,1,2,0,0,7,255,1000,250,263,1000,-5.509,-16.345,10.151,-5.509,-16.345,10.151
152284.815,0.986,-0.033,-0.141,-0.078,3357,0,0,3502,109,397,99,465,47,1.142,62,0,125.305,3.433,-33.940,-99.200,-68.620,0.182,-0.155,0.938,3.426,0.222,0.574,2.362,2.222,1.417,1.284,1,2,0,0,7,255,1000,250,268,1000,-5.224,-15.883,9.747,-5.224,-15.883,9.747
152289.815,0.987,-0.032,-0.138,-0.078,3352,0,0,3517,122,442,118,489,47,1.142,62,0,80.726,4.876,-42.480,-68.560,-3.420,0.325,-0.819,1.205,4.712,-1.254,-0.116,2.218,2.076,1.417,1.284,1,2,0,0,7,255,1000,250,273,1000,-4.995,-15.542,9.697,-4.995,-15.542,9.697
152294.815,0.987,-0.031,-0.137,-0.079,3345,0,0,3467,115,445,123,504,47,1.142,62,0,40.926,6.841,-13.300,-25.220,29.360,0.000,-0.510,0.994,4.712,-4.960,-0.978,2.060,1.916,1.417,1.284,1,2,0,0,7,255,1000,250,278,1000,-4.927,-15.388,9.833,-4.927,-15.388,9.833
152299.815,0.987,-0.031,-0.136,-0.081,3348,0,0,3515,124,457,141,541,47,1.142,62,0,44.244,6.133,-13.300,-15.520,39.240,-0.146,0.032,1.108,3.608,-4.960,-0.116,1.914,1.768,1.417,1.284,1,2,0,0,7,255,1000,250,283,1000,-4.906,-15.287,10.028,-4.906,-15.287,10.028
152304.816,0.987,-0.030,-0.135,-0.083,3358,0,16,3511,141,461,149,587,47,1.142,62,0,49.538,1.758,-21.720,-11.240,43.080,-0.173,0.271,1.030,1.758,0.006,0.452,1.756,1.608,1.417,1.284,1,2,0,0,7,255,1000,250,288,1000,-4.856,-15.209,10.246,-4.856,-15.209,10.246
152309.816,0.987,-0.030,-0.135,-0.085,3352,0,13,3507,159,484,155,603,47,1.142,62,0,46.430,2.374,-16.000,-11.060,42.160,-0.320,0.282,0.958,0.916,2.190,0.452,1.596,1.446,1.417,1.284,1,2,0,0,7,255,1000,250,293,1000,-4.839,-15.138,10.459,-4.839,-15.138,10.459
152314.817,0.987,-0.030,-0.135,-0.086,3359,9,29,3476,179,501,167,617,47,1.142,62,0,23.414,2.292,-1.520,-10.760,20.740,-0.422,0.175,1.005,-0.676,2.190,0.452,1.456,1.304,1.417,1.284,1,2,0,0,7,255,1000,250,298,1000,-4.868,-15.094,10.563,-4.868,-15.094,10.563
152319.815,0.987,-0.030,-0.134,-0.086,3366,11,43,3489,185,522,181,631,47,1.142,62,0,10.273,1.172,1.220,-10.200,0.000,-0.363,0.031,1.071,-0.676,0.958,0.774,1.296,1.142,1.417,1.284,1,2,0,0,7,255,1000,250,303,1000,-4.861,-15.052,10.558,-4.861,-15.052,10.558
152324.815,0.987,-0.029,-0.134,-0.086,3368,20,56,3383,232,547,187,643,47,1.142,62,0,14.208,0.536,-7.200,-11.860,-3.060,-0.265,-0.049,1.057,-0.404,-0.352,0.774,1.154,0.996,1.417,1.284,1,2,0,0,7,255,1000,250,308,1000,-4.789,-14.990,10.535,-4.789,-14.990,10.535
152329.815,0.987,-0.029,-0.133,-0.086,3352,12,75,3479,224,565,200,667,47,1.142,62,0,15.752,0.728,-10.020,-11.680,3.360,-0.206,-0.010,1.021,0.586,-0.432,0.688,0.994,0.834,1.417,1.284,1,2,0,0,7,255,1000,250,313,1000,-4.715,-14.915,10.544,-4.715,-14.915,10.544
152334.815,0.987,-0.028,-0.132,-0.086,3339,21,85,3347,228,579,204,677,47,1.142,62,0,14.410,1.056,-7.200,-9.480,8.120,-0.188,0.030,1.026,0.964,-0.432,0.264,0.840,0.676,1.417,1.284,1,2,0,0,7,255,1000,250,318,1000,-4.671,-14.844,10.579,-4.671,-14.844,10.579
152339.816,0.987,-0.028,-0.132,-0.087,3327,23,97,3303,243,576,208,680,47,1.142,62,0,15.198,1.093,-6.900,-7.400,11.340,-0.191,0.005,1.024,1.064,-0.250,0.234,0.718,0.552,1.417,1.284,1,2,0,0,7,255,1000,250,323,1000,-4.628,-14.783,10.631,-4.628,-14.783,10.631
152344.816,0.987,-0.028,-0.131,-0.087,3337,26,124,3350,251,587,216,685,47,1.142,62,0,17.748,1.093,-7.560,-6.180,14.820,-0.214,0.003,1.000,1.064,-0.250,0.234,0.634,0.466,1.417,1.284,2,2,0,0,7,255,1000,250,328,1000,-4.585,-14.734,10.703,-4.585,-14.734,10.703
152349.816,0.987,-0.027,-0.131,-0.088,3319,25,143,3387,256,584,216,701,47,1.142,62,1,19.399,1.039,-7.880,-4.040,17.260,-0.250,-0.004,0.976,1.006,-0.258,0.200,0.574,0.402,1.417,1.284,2,2,0,0,7,255,1000,250,333,1000,-4.501,-14.702,10.784,-4.501,-14.702,10.784
152354.815,0.987,-0.026,-0.131,-0.089,3323,28,142,3336,253,583,220,714,47,1.142,62,1,16.749,0.926,-6.660,-4.280,14.760,-0.280,-0.019,0.954,0.880,-0.288,0.144,0.550,0.376,1.417,1.284,2,2,0,0,7,255,1000,250,338,1000,-4.403,-14.696,10.853,-4.403,-14.696,10.853
152359.815,0.987,-0.025,-0.131,-0.089,3308,37,152,3351,267,584,225,702,47,1.142,62,1,14.495,0.798,-2.860,-4.840,13.360,-0.264,0.020,0.955,0.734,-0.312,0.072,0.550,0.374,1.417,1.284,2,2,0,0,7,255,1000,250,343,1000,-4.355,-14.677,10.916,-4.355,-14.677,10.916
152364.815,0.987,-0.025,-0.131,-0.090,3314,33,156,3324,264,580,225,692,47,1.142,62,1,16.029,0.679,1.900,-4.720,15.200,-0.284,0.006,0.966,0.602,-0.314,0.014,0.568,0.390,1.417,1.284,2,2,0,0,7,255,1000,250,348,1000,-4.323,-14.670,10.989,-4.323,-14.670,10.989
152369.816,0.987,-0.025,-0.131,-0.091,3295,29,156,3324,263,584,221,715,47,1.142,62,1,14.792,0.579,2.740,-5.440,13.480,-0.307,-0.005,0.981,0.484,-0.318,-0.002,0.596,0.418,1.417,1.284,2,2,0,0,7,255,1000,250,353,1000,-4.288,-14.673,11.052,-4.288,-14.673,11.052
152374.817,0.987,-0.024,-0.131,-0.091,3282,34,157,3321,282,591,229,734,47,1.142,62,1,16.285,0.482,1.760,-7.280,14.460,-0.315,0.019,0.979,0.360,-0.320,0.022,0.628,0.450,1.417,1.284,2,2,0,0,7,255,1000,250,358,1000,-4.270,-14.671,11.122,-4.270,-14.671,11.122
152379.816,0.987,-0.024,-0.131,-0.092,3275,28,175,3323,283,568,229,748,47,1.142,62,1,14.313,0.394,3.900,-8.620,10.740,-0.335,0.016,0.968,0.236,-0.316,0.042,0.670,0.490,1.417,1.284,2,2,0,0,7,255,1000,250,363,1000,-4.255,-14.683,11.173,-4.255,-14.683,11.173
152384.815,0.987,-0.024,-0.131,-0.092,3285,35,173,3311,288,588,219,771,47,1.142,62,1,14.032,0.333,3.180,-10.320,8.960,-0.308,0.035,0.957,0.136,-0.304,0.050,0.718,0.536,1.417,1.284,2,2,0,0,7,255,1000,250,368,1000,-4.246,-14.672,11.215,-4.246,-14.672,11.215
