experiment_id,condition_order_index,condition_id,condition_phase,condition_phase_elapsed_ms,condition_elapsed_ms,is_stimulation_on,t_ms,R_q0,R_q1,R_q2,R_q3,R_heel1,R_mid1,R_fore1,R_heel2,R_fore3,R_mid2,R_fore4,R_fore2,R_cadence,R_speed,R_steps,R_zupt,R_gyroNorm,R_accH,R_gyro_x,R_gyro_y,R_gyro_z,R_acc_x,R_acc_y,R_acc_z,R_nav_ax,R_nav_ay,R_nav_az,R_stepVel,R_stepVelj,R_stepDispRaw,R_stepDispZUPT,R_gaitEvent,R_motorMode,R_motorActive,R_motorAlignment,R_motorRegionMask,R_motorAmplitude,R_motorIntervalMs,R_motorDurationMs,R_motorPhaseMs,R_motorCycleMs,R_roll,R_pitch,R_yaw
EX0521-092111,28,C04,prep,56,56,0,1338379.092,0.686,-0.675,0.197,0.188,0,0,0,0,0,0,0,0,0,0.000,0,0,0.205,0.013,0.200,-0.020,-0.040,0.014,0.994,0.010,0.008,0.010,0.008,0.000,0.000,0.000,0.000,0,2,0,3,7,255,1200,300,0,0,-89.340,0.933,-31.532
EX0521-092111,28,C04,prep,56,56,0,1338384.092,0.686,-0.675,0.197,0.188,0,0,0,0,0,0,0,0,0,0.000,0,0,0.060,0.011,-0.040,0.040,0.020,0.015,0.988,0.012,0.004,0.010,0.008,0.000,0.000,0.000,0.000,0,2,0,3,7,255,1200,300,0,0,-89.340,0.933,-31.532
EX0521-092111,28,C04,prep,56,56,0,1338389.093,0.686,-0.675,0.197,0.188,0,0,0,0,0,0,0,0,0,0.000,0,0,0.247,0.013,-0.220,-0.080,0.080,0.015,0.995,0.013,0.004,-0.012,0.008,0.000,0.000,0.000,0.000,0,2,0,3,7,255,1200,300,0,0,-89.340,0.933,-31.532
EX0521-092111,28,C04,prep,57,57,0,1338394.091,0.686,-0.675,0.197,0.188,0,0,0,0,0,0,0,0,0,0.000,0,0,0.237,0.013,0.200,0.040,-0.120,0.014,0.996,0.012,-0.004,-0.012,0.018,0.000,0.000,0.000,0.000,0,2,0,3,7,255,1200,300,0,0,-89.340,0.933,-31.532
EX0521-092111,28,C04,prep,58,58,0,1338399.091,0.686,-0.675,0.197,0.188,0,0,0,0,0,0,0,0,0,0.000,0,0,0.166,0.004,0.140,-0.080,-0.040,0.015,0.988,0.011,-0.004,0.000,0.018,0.000,0.000,0.000,0.000,0,2,0,3,7,255,1200,300,0,0,-89.340,0.933,-31.532
EX0521-092111,28,C04,prep,58,58,0,1338404.091,0.686,-0.675,0.197,0.188,0,0,0,0,0,0,0,0,0,0.000,0,0,0.394,0.006,-0.360,-0.080,0.140,0.013,0.997,0.012,-0.006,0.002,0.022,0.000,0.000,0.000,0.000,0,2,0,3,7,255,1200,300,0,0,-89.340,0.933,-31.532
EX0521-092111,28,C04,prep,58,58,0,1338409.091,0.686,-0.675,0.197,0.188,0,0,0,0,0,0,0,0,0,0.000,0,0,0.412,0.002,0.320,0.100,-0.240,0.014,0.994,0.012,-0.002,0.000,0.004,0.000,0.000,0.000,0.000,0,2,0,3,7,255,1200,300,0,0,-89.340,0.933,-31.532
EX0521-092111,28,C04,prep,58,58,0,1338414.091,0.686,-0.675,0.197,0.188,0,0,0,0,0,0,0,0,0,0.000,0,0,0.166,0.003,-0.040,-0.080,0.140,0.016,0.988,0.011,-0.002,-0.002,0.004,0.000,0.000,0.000,0.000,0,2,0,3,7,255,1200,300,0,0,-89.340,0.933,-31.532
EX0521-092111,28,C04,prep,58,58,0,1338419.091,0.686,-0.675,0.197,0.188,0,0,0,0,0,0,0,0,0,0.000,0,0,0.154,0.003,-0.100,0.100,-0.060,0.013,1.001,0.012,-0.002,-0.002,0.004,0.000,0.000,0.000,0.000,0,2,0,3,7,255,1200,300,0,0,-89.340,0.933,-31.532
EX0521-092111,28,C04,prep,58,58,0,1338424.091,0.686,-0.675,0.197,0.188,0,0,0,0,0,0,0,0,0,0.000,0,0,0.406,0.013,0.380,-0.080,-0.120,0.016,0.985,0.011,0.012,-0.006,-0.048,0.000,0.000,0.000,0.000,0,2,0,3,7,255,1200,300,0,0,-89.340,0.933,-31.532
EX0521-092111,28,C04,prep,58,58,0,1338429.093,0.686,-0.675,0.197,0.188,0,0,0,0,0,0,0,0,0,0.000,0,0,0.601,0.014,-0.540,0.040,0.260,0.013,0.999,0.013,-0.014,-0.002,0.056,0.000,0.000,0.000,0.000,0,2,0,3,7,255,1200,300,0,0,-89.340,0.933,-31.532
EX0521-092111,28,C04,prep,58,58,0,1338434.091,0.686,-0.675,0.197,0.188,0,0,0,0,0,0,0,0,0,0.000,0,0,0.560,0.006,0.500,-0.080,-0.240,0.015,0.991,0.011,0.006,-0.002,-0.020,0.000,0.000,0.000,0.000,0,2,0,3,7,255,1200,300,0,0,-89.340,0.933,-31.532
EX0521-092111,28,C04,prep,58,58,0,1338439.091,0.686,-0.675,0.197,0.188,0,0,0,0,0,0,0,0,0,0.000,0,0,0.316,0.012,-0.280,0.040,0.140,0.014,0.992,0.014,-0.012,-0.002,-0.014,0.000,0.000,0.000,0.000,0,2,0,3,7,255,1200,300,0,0,-89.340,0.933,-31.532
EX0521-092111,28,C04,prep,58,58,0,1338444.091,0.686,-0.675,0.197,0.188,0,0,0,0,0,0,0,0,0,0.000,0,0,0.183,0.007,-0.040,-0.160,0.080,0.015,0.994,0.010,0.006,0.004,-0.014,0.000,0.000,0.000,0.000,0,2,0,3,7,255,1200,300,0,0,-89.340,0.933,-31.532
EX0521-092111,28,C04,prep,62,62,0,1338449.091,0.686,-0.675,0.197,0.188,0,0,0,0,0,0,0,0,0,0.000,0,0,0.332,0.022,0.260,0.100,-0.180,0.014,0.996,0.014,-0.012,-0.018,0.004,0.000,0.000,0.000,0.000,0,2,0,3,7,255,1200,300,0,0,-89.340,0.933,-31.532
EX0521-092111,28,C04,prep,62,62,0,1338454.091,0.686,-0.675,0.197,0.188,0,0,0,0,0,0,0,0,0,0.000,0,0,0.572,0.010,-0.420,-0.220,0.320,0.016,0.988,0.011,0.010,-0.002,0.004,0.000,0.000,0.000,0.000,0,2,0,3,7,255,1200,300,0,0,-89.340,0.933,-31.532
EX0521-092111,28,C04,prep,62,62,0,1338459.091,0.686,-0.675,0.197,0.188,0,0,0,0,0,0,0,0,0,0.000,0,0,0.450,0.016,0.320,0.100,-0.300,0.014,1.000,0.013,-0.010,-0.012,0.028,0.000,0.000,0.000,0.000,0,2,0,3,7,255,1200,300,0,0,-89.340,0.933,-31.532
EX0521-092111,28,C04,prep,62,62,0,1338464.091,0.686,-0.675,0.197,0.188,0,0,0,0,0,0,0,0,0,0.000,0,0,0.292,0.012,-0.160,-0.140,0.200,0.015,0.986,0.013,-0.002,-0.012,-0.048,0.000,0.000,0.000,0.000,0,2,0,3,7,255,1200,300,0,0,-89.340,0.933,-31.532
EX0521-092111,28,C04,prep,62,62,0,1338469.091,0.686,-0.675,0.197,0.188,0,0,0,0,0,0,0,0,0,0.000,0,0,0.069,0.012,-0.040,0.040,-0.040,0.014,0.997,0.010,-0.002,-0.012,0.038,0.000,0.000,0.000,0.000,0,2,0,3,7,255,1200,300,0,0,-89.340,0.933,-31.532
EX0521-092111,28,C04,prep,62,62,0,1338474.091,0.686,-0.675,0.197,0.188,0,0,0,0,0,0,0,0,0,0.000,0,0,0.208,0.014,0.200,0.040,-0.040,0.013,0.993,0.014,-0.002,-0.014,0.000,0.000,0.000,0.000,0.000,0,2,0,3,7,255,1200,300,0,0,-89.340,0.933,-31.532
EX0521-092111,28,C04,prep,95,95,0,1338479.092,0.686,-0.675,0.197,0.188,0,0,0,0,0,0,0,0,0,0.000,0,0,0.329,0.009,-0.220,-0.140,0.200,0.015,0.990,0.010,0.004,0.008,0.000,0.000,0.000,0.000,0.000,0,2,0,3,7,255,1200,300,0,0,-89.340,0.933,-31.532
EX0521-092111,28,C04,prep,95,95,0,1338484.091,0.686,-0.675,0.197,0.188,0,0,0,0,0,0,0,0,0,0.000,0,0,0.235,0.008,0.140,0.100,-0.160,0.015,0.997,0.012,0.000,-0.008,0.000,0.000,0.000,0.000,0.000,0,2,0,3,7,255,1200,300,0,0,-89.340,0.933,-31.532
EX0521-092111,28,C04,prep,95,95,0,1338489.094,0.686,-0.675,0.197,0.188,0,0,0,0,0,0,0,0,0,0.000,0,0,0.196,0.008,-0.160,-0.080,0.080,0.014,0.989,0.013,0.000,-0.008,-0.034,0.000,0.000,0.000,0.000,0,2,0,3,7,255,1200,300,0,0,-89.340,0.933,-31.532
EX0521-092111,28,C04,prep,95,95,0,1338494.092,0.686,-0.675,0.197,0.188,0,0,0,0,0,0,0,0,0,0.000,0,0,0.208,0.008,0.200,0.040,-0.040,0.015,0.993,0.012,0.000,-0.008,0.000,0.000,0.000,0.000,0.000,0,2,0,3,7,255,1200,300,0,0,-89.340,0.933,-31.532
EX0521-092111,28,C04,prep,95,95,0,1338499.092,0.686,-0.675,0.197,0.188,0,0,0,0,0,0,0,0,0,0.000,0,0,0.147,0.006,-0.100,0.040,-0.100,0.014,0.994,0.011,0.000,-0.006,0.000,0.000,0.000,0.000,0.000,0,2,0,3,7,255,1200,300,0,0,-89.340,0.933,-31.532
EX0521-092111,28,C04,prep,95,95,0,1338504.092,0.686,-0.675,0.197,0.188,0,0,0,0,0,0,0,0,0,0.000,0,0,0.273,0.006,-0.220,-0.080,0.140,0.016,0.991,0.014,0.000,-0.006,0.000,0.000,0.000,0.000,0.000,0,2,0,3,7,255,1200,300,0,0,-89.340,0.933,-31.532
EX0521-092111,28,C04,prep,112,112,0,1338509.092,0.686,-0.675,0.197,0.188,0,0,0,0,0,0,0,0,0,0.000,0,0,0.722,0.004,0.680,0.040,-0.240,0.014,0.995,0.010,0.000,0.004,0.004,0.000,0.000,0.000,0.000,0,2,0,3,7,255,1200,300,0,0,-89.344,0.933,-31.532
EX0521-092111,28,C04,prep,112,112,0,1338514.092,0.686,-0.675,0.197,0.188,0,0,0,0,0,0,0,0,0,0.000,0,0,0.675,0.009,-0.660,-0.020,0.140,0.016,0.992,0.010,0.004,0.008,-0.010,0.000,0.000,0.000,0.000,0,2,0,3,7,255,1200,300,0,0,-89.341,0.933,-31.532
EX0521-092111,28,C04,prep,113,113,0,1338519.092,0.686,-0.675,0.197,0.188,0,0,0,0,0,0,0,0,0,0.000,0,0,0.222,0.009,-0.220,-0.020,0.020,0.014,0.995,0.013,0.004,0.008,0.014,0.000,0.000,0.000,0.000,0,2,0,3,7,255,1200,300,0,0,-89.341,0.933,-31.532
EX0521-092111,28,C04,prep,113,113,0,1338524.092,0.686,-0.675,0.197,0.188,0,0,0,0,0,0,0,0,0,0.000,0,0,0.912,0.008,0.880,-0.020,-0.240,0.015,0.990,0.012,0.000,-0.008,-0.010,0.000,0.000,0.000,0.000,0,2,0,3,7,255,1200,300,0,0,-89.345,0.933,-31.532
EX0521-092111,28,C04,prep,127,127,0,1338529.092,0.686,-0.675,0.197,0.188,0,0,0,0,0,0,0,0,0,0.000,0,0,0.368,0.008,-0.340,-0.020,0.140,0.015,0.997,0.009,0.000,-0.008,0.014,0.000,0.000,0.000,0.000,0,2,0,3,7,255,1200,300,0,0,-89.345,0.933,-31.532
EX0521-092111,28,C04,prep,127,127,0,1338534.092,0.686,-0.675,0.197,0.188,0,0,0,0,0,0,0,0,0,0.000,0,0,0.542,0.008,-0.540,0.040,0.020,0.014,0.992,0.014,0.000,-0.008,-0.010,0.000,0.000,0.000,0.000,0,2,0,3,7,255,1200,300,0,0,-89.345,0.933,-31.532
EX0521-092111,28,C04,prep,127,127,0,1338539.092,0.686,-0.675,0.197,0.188,0,0,0,0,0,0,0,0,0,0.000,0,0,0.393,0.013,0.380,-0.020,-0.100,0.014,0.989,0.013,-0.008,-0.010,-0.010,0.000,0.000,0.000,0.000,0,2,0,3,7,255,1200,300,0,0,-89.345,0.933,-31.532
EX0521-092111,28,C04,prep,127,127,0,1338544.092,0.686,-0.675,0.197,0.188,0,0,0,0,0,0,0,0,0,0.000,0,0,0.510,0.013,0.500,-0.020,-0.100,0.014,0.997,0.009,-0.008,-0.010,-0.010,0.000,0.000,0.000,0.000,0,2,0,3,7,255,1200,300,0,0,-89.345,0.933,-31.532
EX0521-092111,28,C04,prep,147,147,0,1338549.092,0.686,-0.675,0.197,0.188,0,0,0,0,0,0,0,0,0,0.000,0,0,0.867,0.008,-0.840,-0.080,0.200,0.015,0.990,0.012,0.000,-0.008,-0.028,0.000,0.000,0.000,0.000,0,2,0,3,7,255,1200,300,0,0,-89.341,0.933,-31.532
EX0521-092111,28,C04,prep,147,147,0,1338554.092,0.686,-0.675,0.197,0.188,0,0,0,0,0,0,0,0,0,0.000,0,0,0.092,0.008,0.080,-0.020,-0.040,0.014,0.992,0.013,0.000,-0.008,-0.010,0.000,0.000,0.000,0.000,0,2,0,3,7,255,1200,300,0,0,-89.341,0.933,-31.532
EX0521-092111,28,C04,prep,159,159,0,1338559.094,0.686,-0.675,0.197,0.188,0,0,0,0,0,0,0,0,0,0.000,0,0,0.467,0.008,0.440,0.100,-0.120,0.014,0.995,0.010,0.000,-0.008,-0.010,0.000,0.000,0.000,0.000,0,2,0,3,7,255,1200,300,0,0,-89.341,0.933,-31.532
EX0521-092111,28,C04,prep,159,159,0,1338564.092,0.686,-0.675,0.197,0.188,0,0,0,0,0,0,0,0,0,0.000,0,0,0.510,0.007,-0.480,-0.100,0.140,0.015,0.994,0.011,0.006,0.004,0.004,0.000,0.000,0.000,0.000,0,2,0,3,7,255,1200,300,0,0,-89.341,0.933,-31.532
EX0521-092111,28,C04,prep,159,159,0,1338569.092,0.686,-0.675,0.197,0.188,0,0,0,0,0,0,0,0,0,0.000,0,0,0.108,0.007,-0.040,-0.100,0.000,0.014,0.991,0.014,0.006,0.004,0.004,0.000,0.000,0.000,0.000,0,2,0,3,7,255,1200,300,0,0,-89.341,0.933,-31.532
EX0521-092111,28,C04,prep,159,159,0,1338574.092,0.686,-0.675,0.197,0.188,0,0,0,0,0,0,0,0,0,0.000,0,0,0.458,0.004,0.440,0.040,-0.120,0.015,0.993,0.012,0.002,-0.004,-0.004,0.000,0.000,0.000,0.000,0,2,0,3,7,255,1200,300,0,0,-89.341,0.933,-31.532
EX0521-092111,28,C04,prep,191,191,0,1338579.092,0.686,-0.675,0.197,0.188,0,0,0,0,0,0,0,0,0,0.000,0,0,0.292,0.004,-0.280,-0.020,0.080,0.014,0.995,0.010,0.002,-0.004,-0.004,0.000,0.000,0.000,0.000,0,2,0,3,7,255,1200,300,0,0,-89.341,0.933,-31.532
EX0521-092111,28,C04,prep,191,191,0,1338584.092,0.686,-0.675,0.197,0.188,0,0,0,0,0,0,0,0,0,0.000,0,0,0.235,0.004,-0.220,-0.020,0.080,0.015,0.992,0.014,0.002,-0.004,-0.004,0.000,0.000,0.000,0.000,0,2,0,3,7,255,1200,300,0,0,-89.341,0.933,-31.532
EX0521-092111,28,C04,prep,217,217,0,1338589.093,0.686,-0.675,0.197,0.188,0,0,0,0,0,0,0,0,0,0.000,0,0,0.326,0.013,0.320,-0.020,-0.060,0.013,0.994,0.011,-0.006,0.012,0.004,0.000,0.000,0.000,0.000,0,2,0,3,7,255,1200,300,0,0,-89.341,0.933,-31.532
EX0521-092111,28,C04,prep,217,217,0,1338594.092,0.686,-0.675,0.197,0.188,0,0,0,0,0,0,0,0,0,0.000,0,0,0.057,0.013,-0.040,0.040,0.000,0.014,0.993,0.010,-0.006,0.012,0.000,0.000,0.000,0.000,0.000,0,2,0,3,7,255,1200,300,0,0,-89.341,0.933,-31.532
EX0521-092111,28,C04,prep,218,218,0,1338599.092,0.686,-0.675,0.197,0.188,0,0,0,0,0,0,0,0,0,0.000,0,0,0.374,0.012,-0.360,-0.100,0.000,0.015,0.991,0.013,-0.002,0.012,0.000,0.000,0.000,0.000,0.000,0,2,0,3,7,255,1200,300,0,0,-89.341,0.933,-31.532
EX0521-092111,28,C04,prep,218,218,0,1338604.092,0.686,-0.675,0.197,0.188,0,0,0,0,0,0,0,0,0,0.000,0,0,0.287,0.008,0.260,-0.020,-0.120,0.015,0.993,0.012,0.000,-0.008,0.000,0.000,0.000,0.000,0.000,0,2,0,3,7,255,1200,300,0,0,-89.341,0.933,-31.532
EX0521-092111,28,C04,prep,219,219,0,1338609.092,0.686,-0.675,0.197,0.188,0,0,0,0,0,0,0,0,0,0.000,0,0,0.190,0.008,0.140,-0.080,-0.100,0.015,0.993,0.010,0.000,-0.008,0.000,0.000,0.000,0.000,0.000,0,2,0,3,7,255,1200,300,0,0,-89.341,0.933,-31.532
EX0521-092111,28,C04,prep,219,219,0,1338614.092,0.686,-0.675,0.197,0.188,0,0,0,0,0,0,0,0,0,0.000,0,0,0.467,0.002,-0.460,-0.020,0.080,0.014,0.992,0.012,0.000,-0.002,0.000,0.000,0.000,0.000,0.000,0,2,0,3,7,255,1200,300,0,0,-89.341,0.933,-31.532
EX0521-092111,28,C04,prep,219,219,0,1338619.091,0.686,-0.675,0.197,0.188,0,0,0,0,0,0,0,0,0,0.000,0,0,0.147,0.003,0.140,-0.020,-0.040,0.014,0.992,0.013,-0.002,-0.002,-0.010,0.000,0.000,0.000,0.000,0,2,0,3,7,255,1200,300,0,0,-89.341,0.933,-31.532
EX0521-092111,28,C04,prep,219,219,0,1338624.091,0.686,-0.675,0.197,0.188,0,0,0,0,0,0,0,0,0,0.000,0,0,0.208,0.003,0.200,0.040,-0.040,0.013,0.992,0.010,-0.002,-0.002,-0.010,0.000,0.000,0.000,0.000,0,2,0,3,7,255,1200,300,0,0,-89.341,0.933,-31.532
EX0521-092111,28,C04,prep,220,220,0,1338629.092,0.686,-0.675,0.197,0.188,0,0,0,0,0,0,0,0,0,0.000,0,0,0.235,0.011,-0.220,-0.080,0.020,0.013,0.993,0.012,-0.010,0.004,-0.010,0.000,0.000,0.000,0.000,0,2,0,3,7,255,1200,300,0,0,-89.341,0.933,-31.532
EX0521-092111,28,C04,prep,220,220,0,1338634.091,0.686,-0.675,0.197,0.188,0,0,0,0,0,0,0,0,0,0.000,0,0,0.092,0.004,0.080,-0.020,-0.040,0.015,0.993,0.012,0.000,0.004,-0.004,0.000,0.000,0.000,0.000,0,2,0,3,7,255,1200,300,0,0,-89.341,0.933,-31.532
EX0521-092111,28,C04,prep,248,248,0,1338639.091,0.686,-0.675,0.197,0.188,0,0,0,0,0,0,0,0,0,0.000,0,0,0.208,0.004,0.200,0.040,-0.040,0.014,0.993,0.011,0.000,0.004,-0.004,0.000,0.000,0.000,0.000,0,2,0,3,7,255,1200,300,0,0,-89.341,0.933,-31.532
EX0521-092111,28,C04,prep,248,248,0,1338644.091,0.686,-0.675,0.197,0.188,0,0,0,0,0,0,0,0,0,0.000,0,0,0.235,0.004,-0.220,-0.020,0.080,0.013,0.993,0.011,0.000,0.004,0.000,0.000,0.000,0.000,0.000,0,2,0,3,7,255,1200,300,0,0,-89.341,0.933,-31.532
EX0521-092111,28,C04,prep,248,248,0,1338649.091,0.686,-0.675,0.197,0.188,0,0,0,0,0,0,0,0,0,0.000,0,0,0.166,0.007,-0.160,-0.020,-0.040,0.015,0.992,0.013,-0.006,0.004,-0.004,0.000,0.000,0.000,0.000,0,2,0,3,7,255,1200,300,0,0,-89.341,0.933,-31.532
EX0521-092111,28,C04,prep,248,248,0,1338654.091,0.686,-0.675,0.197,0.188,0,0,0,0,0,0,0,0,0,0.000,0,0,0.279,0.006,0.260,-0.020,-0.100,0.014,0.993,0.012,-0.006,0.002,0.000,0.000,0.000,0.000,0.000,0,2,0,3,7,255,1200,300,0,0,-89.341,0.933,-31.532
EX0521-092111,28,C04,prep,249,249,0,1338659.091,0.686,-0.675,0.197,0.188,0,0,0,0,0,0,0,0,0,0.000,0,0,0.057,0.006,-0.040,-0.040,0.000,0.015,0.993,0.011,-0.006,0.000,0.000,0.000,0.000,0.000,0.000,0,2,0,3,7,255,1200,300,0,0,-89.341,0.933,-31.532
EX0521-092111,28,C04,prep,249,249,0,1338664.091,0.686,-0.675,0.197,0.188,0,0,0,0,0,0,0,0,0,0.000,0,0,0.260,0.006,-0.240,-0.100,0.000,0.014,0.993,0.012,-0.006,0.000,0.000,0.000,0.000,0.000,0.000,0,2,0,3,7,255,1200,300,0,0,-89.341,0.933,-31.532
EX0521-092111,28,C04,prep,295,295,0,1338669.091,0.686,-0.675,0.197,0.188,0,0,0,0,0,0,0,0,0,0.000,0,0,0.270,0.006,0.260,-0.040,-0.060,0.014,0.994,0.012,-0.006,0.000,0.000,0.000,0.000,0.000,0.000,0,2,0,3,7,255,1200,300,0,0,-89.341,0.933,-31.532
EX0521-092111,28,C04,prep,295,295,0,1338674.091,0.686,-0.675,0.197,0.188,0,0,0,0,0,0,0,0,0,0.000,0,0,0.045,0.006,0.020,-0.040,0.000,0.014,0.994,0.011,-0.006,0.002,0.006,0.000,0.000,0.000,0.000,0,2,0,3,7,255,1200,300,0,0,-89.341,0.933,-31.532
EX0521-092111,28,C04,prep,297,297,0,1338679.091,0.686,-0.675,0.197,0.188,0,0,0,0,0,0,0,0,0,0.000,0,0,0.322,0.006,-0.300,-0.100,0.060,0.014,0.992,0.013,-0.006,0.002,0.006,0.000,0.000,0.000,0.000,0,2,0,3,7,255,1200,300,0,0,-89.341,0.933,-31.532
EX0521-092111,28,C04,prep,297,297,0,1338684.091,0.686,-0.675,0.197,0.188,0,0,0,0,0,0,0,0,0,0.000,0,0,0.157,0.004,0.140,-0.040,-0.060,0.014,0.993,0.011,0.000,0.004,-0.004,0.000,0.000,0.000,0.000,0,2,0,3,7,255,1200,300,0,0,-89.341,0.933,-31.532
EX0521-092111,28,C04,prep,299,299,0,1338689.093,0.686,-0.675,0.197,0.188,0,0,0,0,0,0,0,0,0,0.000,0,0,0.108,0.004,0.080,0.040,-0.060,0.014,0.993,0.011,0.000,0.004,-0.004,0.000,0.000,0.000,0.000,0,2,0,3,7,255,1200,300,0,0,-89.341,0.933,-31.532
EX0521-092111,28,C04,prep,299,299,0,1338694.091,0.686,-0.675,0.197,0.188,0,0,0,0,0,0,0,0,0,0.000,0,0,0.260,0.004,-0.240,-0.100,0.000,0.014,0.994,0.012,0.000,0.004,-0.004,0.000,0.000,0.000,0.000,0,2,0,3,7,255,1200,300,0,0,-89.341,0.933,-31.532
EX0521-092111,28,C04,prep,299,299,0,1338699.091,0.686,-0.675,0.197,0.188,0,0,0,0,0,0,0,0,0,0.000,0,0,0.128,0.002,0.080,-0.100,0.000,0.014,0.992,0.012,-0.002,0.000,-0.004,0.000,0.000,0.000,0.000,0,2,0,3,7,255,1200,300,0,0,-89.341,0.933,-31.532
EX0521-092111,28,C04,prep,299,299,0,1338704.091,0.686,-0.675,0.197,0.188,0,0,0,0,0,0,0,0,0,0.000,0,0,0.157,0.002,0.140,-0.040,-0.060,0.015,0.993,0.011,-0.002,0.000,-0.004,0.000,0.000,0.000,0.000,0,2,0,3,7,255,1200,300,0,0,-89.341,0.933,-31.532
EX0521-092111,28,C04,prep,316,316,0,1338709.091,0.686,-0.675,0.197,0.188,0,0,0,0,0,0,0,0,0,0.000,0,0,0.222,0.008,-0.220,-0.020,0.020,0.015,0.992,0.011,0.008,-0.002,-0.008,0.000,0.000,0.000,0.000,0,2,0,3,7,255,1200,300,0,0,-89.341,0.933,-31.532
EX0521-092111,28,C04,prep,316,316,0,1338714.091,0.686,-0.675,0.197,0.188,0,0,0,0,0,0,0,0,0,0.000,0,0,0.104,0.008,-0.100,-0.020,0.020,0.015,0.991,0.013,0.008,-0.002,-0.014,0.000,0.000,0.000,0.000,0,2,0,3,7,255,1200,300,0,0,-89.341,0.933,-31.532
EX0521-092111,28,C04,prep,317,317,0,1338719.091,0.686,-0.675,0.197,0.188,0,0,0,0,0,0,0,0,0,0.000,0,0,0.151,0.002,0.140,0.040,-0.040,0.014,0.994,0.011,0.000,-0.002,-0.014,0.000,0.000,0.000,0.000,0,2,0,3,7,255,1200,300,0,0,-89.341,0.933,-31.532
EX0521-092111,28,C04,prep,317,317,0,1338724.091,0.686,-0.675,0.197,0.188,0,0,0,0,0,0,0,0,0,0.000,0,0,0.110,0.010,-0.100,0.040,0.020,0.014,0.994,0.011,0.000,0.010,0.006,0.000,0.000,0.000,0.000,0,2,0,3,7,255,1200,300,0,0,-89.341,0.933,-31.532
EX0521-092111,28,C04,prep,339,339,0,1338729.092,0.686,-0.675,0.197,0.188,0,0,0,0,0,0,0,0,0,0.000,0,0,0.104,0.010,-0.100,-0.020,0.020,0.015,0.993,0.012,0.000,0.010,0.006,0.000,0.000,0.000,0.000,0,2,0,3,7,255,1200,300,0,0,-89.341,0.933,-31.532
EX0521-092111,28,C04,prep,339,339,0,1338734.091,0.686,-0.675,0.197,0.188,0,0,0,0,0,0,0,0,0,0.000,0,0,0.205,0.004,0.200,-0.020,-0.040,0.014,0.994,0.012,0.000,-0.004,0.006,0.000,0.000,0.000,0.000,0,2,0,3,7,255,1200,300,0,0,-89.341,0.933,-31.532
EX0521-092111,28,C04,prep,339,339,0,1338739.091,0.686,-0.675,0.197,0.188,0,0,0,0,0,0,0,0,0,0.000,0,0,0.049,0.007,-0.040,-0.020,0.020,0.014,0.993,0.012,-0.004,-0.006,0.000,0.000,0.000,0.000,0.000,0,2,0,3,7,255,1200,300,0,0,-89.341,0.933,-31.532
EX0521-092111,28,C04,prep,339,339,0,1338744.091,0.686,-0.675,0.197,0.188,0,0,0,0,0,0,0,0,0,0.000,0,0,0.104,0.006,-0.100,-0.020,0.020,0.014,0.991,0.012,-0.004,-0.004,-0.004,0.000,0.000,0.000,0.000,0,2,0,3,7,255,1200,300,0,0,-89.341,0.933,-31.532
EX0521-092111,28,C04,prep,339,339,0,1338749.091,0.686,-0.675,0.197,0.188,0,0,0,0,0,0,0,0,0,0.000,0,0,0.092,0.004,0.080,0.040,0.020,0.015,0.993,0.012,-0.002,-0.004,-0.004,0.000,0.000,0.000,0.000,0,2,0,3,7,255,1200,300,0,0,-89.341,0.933,-31.532
EX0521-092111,28,C04,prep,339,339,0,1338754.092,0.686,-0.675,0.197,0.188,0,0,0,0,0,0,0,0,0,0.000,0,0,0.049,0.003,0.020,0.040,0.020,0.014,0.992,0.012,-0.002,-0.002,-0.008,0.000,0.000,0.000,0.000,0,2,0,3,7,255,1200,300,0,0,-89.341,0.933,-31.532
EX0521-092111,28,C04,prep,351,351,0,1338759.093,0.686,-0.675,0.197,0.188,0,0,0,0,0,0,0,0,0,0.000,0,0,0.166,0.004,-0.160,-0.020,-0.040,0.015,0.993,0.012,0.002,-0.004,-0.004,0.000,0.000,0.000,0.000,0,2,0,3,7,255,1200,300,0,0,-89.341,0.933,-31.532
EX0521-092111,28,C04,prep,351,351,0,1338764.092,0.686,-0.675,0.197,0.188,0,0,0,0,0,0,0,0,0,0.000,0,0,0.120,0.004,0.080,-0.080,-0.040,0.014,0.992,0.012,-0.002,-0.004,-0.008,0.000,0.000,0.000,0.000,0,2,0,3,7,255,1200,300,0,0,-89.341,0.933,-31.532
EX0521-092111,28,C04,prep,378,378,0,1338769.092,0.686,-0.675,0.197,0.188,0,0,0,0,0,0,0,0,0,0.000,0,0,0.092,0.004,0.080,-0.020,-0.040,0.014,0.993,0.010,0.002,-0.004,-0.004,0.000,0.000,0.000,0.000,0,2,0,3,7,255,1200,300,0,0,-89.341,0.933,-31.532
EX0521-092111,28,C04,prep,378,378,0,1338774.092,0.686,-0.675,0.197,0.188,0,0,0,0,0,0,0,0,0,0.000,0,0,0.162,0.006,-0.160,-0.020,0.020,0.014,0.992,0.012,-0.004,-0.004,-0.008,0.000,0.000,0.000,0.000,0,2,0,3,7,255,1200,300,0,0,-89.341,0.933,-31.532
EX0521-092111,28,C04,prep,399,399,0,1338779.092,0.686,-0.675,0.197,0.188,0,0,0,0,0,0,0,0,0,0.000,0,0,0.049,0.007,-0.040,-0.020,0.020,0.014,0.993,0.013,-0.004,-0.006,-0.004,0.000,0.000,0.000,0.000,0,2,0,3,7,255,1200,300,0,0,-89.341,0.933,-31.532
EX0521-092111,28,C04,prep,399,399,0,1338784.092,0.686,-0.675,0.197,0.188,0,0,0,0,0,0,0,0,0,0.000,0,0,0.098,0.008,0.080,0.040,-0.040,0.014,0.994,0.012,-0.006,-0.006,-0.004,0.000,0.000,0.000,0.000,0,2,0,3,7,255,1200,300,0,0,-89.341,0.933,-31.532
EX0521-092111,28,C04,prep,399,399,0,1338789.094,0.686,-0.675,0.197,0.188,0,0,0,0,0,0,0,0,0,0.000,0,0,0.049,0.006,-0.040,-0.020,0.020,0.015,0.993,0.011,-0.006,0.000,0.002,0.000,0.000,0.000,0.000,0,2,0,3,7,255,1200,300,0,0,-89.341,0.933,-31.532
EX0521-092111,28,C04,prep,399,399,0,1338794.092,0.686,-0.675,0.197,0.188,0,0,0,0,0,0,0,0,0,0.000,0,0,0.049,0.002,0.020,-0.020,-0.040,0.014,0.993,0.012,-0.002,0.000,0.002,0.000,0.000,0.000,0.000,0,2,0,3,7,255,1200,300,0,0,-89.341,0.933,-31.532
EX0521-092111,28,C04,prep,399,399,0,1338799.092,0.686,-0.675,0.197,0.188,0,0,0,0,0,0,0,0,0,0.000,0,0,0.147,0.006,0.140,-0.020,-0.040,0.016,0.992,0.011,0.006,0.000,-0.004,0.000,0.000,0.000,0.000,0,2,0,3,7,255,1200,300,0,0,-89.341,0.933,-31.532
EX0521-092111,28,C04,prep,399,399,0,1338804.092,0.686,-0.675,0.197,0.188,0,0,0,0,0,0,0,0,0,0.000,0,0,0.049,0.007,-0.040,-0.020,0.020,0.015,0.993,0.012,0.006,-0.004,-0.004,0.000,0.000,0.000,0.000,0,2,0,3,7,255,1200,300,0,0,-89.341,0.933,-31.532
EX0521-092111,28,C04,prep,415,415,0,1338809.092,0.686,-0.675,0.197,0.188,0,0,0,0,0,0,0,0,0,0.000,0,0,0.162,0.008,-0.160,-0.020,0.020,0.014,0.993,0.013,0.006,-0.006,-0.004,0.000,0.000,0.000,0.000,0,2,0,3,7,255,1200,300,0,0,-89.341,0.933,-31.532
EX0521-092111,28,C04,prep,415,415,0,1338814.092,0.686,-0.675,0.197,0.188,0,0,0,0,0,0,0,0,0,0.000,0,0,0.092,0.007,0.080,0.040,0.020,0.014,0.992,0.011,-0.004,-0.006,-0.004,0.000,0.000,0.000,0.000,0,2,0,3,7,255,1200,300,0,0,-89.341,0.933,-31.532
EX0521-092111,28,C04,prep,415,415,0,1338819.092,0.686,-0.675,0.197,0.188,0,0,0,0,0,0,0,0,0,0.000,0,0,0.060,0.007,-0.040,-0.020,-0.040,0.014,0.994,0.010,-0.004,0.006,-0.004,0.000,0.000,0.000,0.000,0,2,0,3,7,255,1200,300,0,0,-89.341,0.933,-31.532
EX0521-092111,28,C04,prep,415,415,0,1338824.092,0.686,-0.675,0.197,0.188,0,0,0,0,0,0,0,0,0,0.000,0,0,0.130,0.006,-0.100,-0.080,0.020,0.015,0.993,0.012,0.000,0.006,-0.004,0.000,0.000,0.000,0.000,0,2,0,3,7,255,1200,300,0,0,-89.341,0.933,-31.532
EX0521-092111,28,C04,prep,431,431,0,1338829.092,0.686,-0.675,0.197,0.188,0,0,0,0,0,0,0,0,0,0.000,0,0,0.049,0.006,0.020,-0.020,-0.040,0.015,0.993,0.011,0.004,0.004,-0.004,0.000,0.000,0.000,0.000,0,2,0,3,7,255,1200,300,0,0,-89.341,0.933,-31.532
EX0521-092111,28,C04,prep,431,431,0,1338834.092,0.686,-0.675,0.197,0.188,0,0,0,0,0,0,0,0,0,0.000,0,0,0.060,0.004,-0.040,-0.020,-0.040,0.014,0.993,0.011,0.000,0.004,-0.004,0.000,0.000,0.000,0.000,0,2,0,3,7,255,1200,300,0,0,-89.341,0.933,-31.532
EX0521-092111,28,C04,prep,431,431,0,1338839.092,0.686,-0.675,0.197,0.188,0,0,0,0,0,0,0,0,0,0.000,0,0,0.104,0.004,-0.100,-0.020,0.020,0.014,0.992,0.012,0.000,0.004,-0.004,0.000,0.000,0.000,0.000,0,2,0,3,7,255,1200,300,0,0,-89.341,0.933,-31.532
EX0521-092111,28,C04,prep,431,431,0,1338844.092,0.686,-0.675,0.197,0.188,0,0,0,0,0,0,0,0,0,0.000,0,0,0.049,0.000,0.020,0.040,0.020,0.015,0.993,0.012,0.000,0.000,-0.004,0.000,0.000,0.000,0.000,0,2,0,3,7,255,1200,300,0,0,-89.341,0.933,-31.532
EX0521-092111,28,C04,prep,449,449,0,1338849.092,0.686,-0.675,0.197,0.188,0,0,0,0,0,0,0,0,0,0.000,0,0,0.085,0.006,0.080,-0.020,0.020,0.016,0.993,0.011,0.004,-0.004,-0.002,0.000,0.000,0.000,0.000,0,2,0,3,7,255,1200,300,0,0,-89.341,0.933,-31.532
EX0521-092111,28,C04,prep,449,449,0,1338854.092,0.686,-0.675,0.197,0.188,0,0,0,0,0,0,0,0,0,0.000,0,0,0.104,0.009,-0.100,-0.020,0.020,0.015,0.993,0.012,0.004,-0.008,-0.002,0.000,0.000,0.000,0.000,0,2,0,3,7,255,1200,300,0,0,-89.341,0.933,-31.532
EX0521-092111,28,C04,prep,463,463,0,1338859.092,0.686,-0.675,0.197,0.188,0,0,0,0,0,0,0,0,0,0.000,0,0,0.035,0.008,0.020,-0.020,0.020,0.015,0.993,0.012,0.000,-0.008,-0.004,0.000,0.000,0.000,0.000,0,2,0,3,7,255,1200,300,0,0,-89.341,0.933,-31.532
EX0521-092111,28,C04,prep,463,463,0,1338864.092,0.686,-0.675,0.197,0.188,0,0,0,0,0,0,0,0,0,0.000,0,0,0.147,0.008,0.140,-0.020,-0.040,0.014,0.995,0.013,0.000,-0.008,-0.004,0.000,0.000,0.000,0.000,0,2,0,3,7,255,1200,300,0,0,-89.341,0.933,-31.532
EX0521-092111,28,C04,prep,463,463,0,1338869.092,0.686,-0.675,0.197,0.188,0,0,0,0,0,0,0,0,0,0.000,0,0,0.104,0.008,-0.100,-0.020,0.020,0.014,0.992,0.011,0.000,-0.008,-0.004,0.000,0.000,0.000,0.000,0,2,0,3,7,255,1200,300,0,0,-89.341,0.933,-31.532
EX0521-092111,28,C04,prep,463,463,0,1338874.092,0.686,-0.675,0.197,0.188,0,0,0,0,0,0,0,0,0,0.000,0,0,0.104,0.004,-0.100,-0.020,0.020,0.015,0.992,0.012,0.000,-0.004,-0.008,0.000,0.000,0.000,0.000,0,2,0,3,7,255,1200,300,0,0,-89.341,0.933,-31.532
EX0521-092111,28,C04,prep,495,495,0,1338879.092,0.686,-0.675,0.197,0.188,0,0,0,0,0,0,0,0,0,0.000,0,0,0.060,0.004,0.020,0.040,-0.040,0.013,0.992,0.013,0.000,-0.004,-0.008,0.000,0.000,0.000,0.000,0,2,0,3,7,255,1200,300,0,0,-89.341,0.933,-31.532
EX0521-092111,28,C04,prep,495,495,0,1338884.092,0.686,-0.675,0.197,0.188,0,0,0,0,0,0,0,0,0,0.000,0,0,0.049,0.004,-0.040,-0.020,0.020,0.014,0.993,0.012,-0.002,-0.004,-0.008,0.000,0.000,0.000,0.000,0,2,0,3,7,255,1200,300,0,0,-89.341,0.933,-31.532
EX0521-092111,28,C04,prep,495,495,0,1338889.095,0.686,-0.675,0.197,0.188,0,0,0,0,0,0,0,0,0,0.000,0,0,0.092,0.007,-0.040,-0.080,0.020,0.015,0.993,0.013,-0.006,-0.004,-0.004,0.000,0.000,0.000,0.000,0,2,0,3,7,255,1200,300,0,0,-89.341,0.933,-31.532
EX0521-092111,28,C04,prep,495,495,0,1338894.092,0.686,-0.675,0.197,0.188,0,0,0,0,0,0,0,0,0,0.000,0,0,0.092,0.006,0.080,-0.020,-0.040,0.015,0.993,0.012,-0.002,-0.006,-0.002,0.000,0.000,0.000,0.000,0,2,0,3,7,255,1200,300,0,0,-89.341,0.933,-31.532
EX0521-092111,28,C04,prep,495,495,0,1338899.092,0.686,-0.675,0.197,0.188,0,0,0,0,0,0,0,0,0,0.000,0,0,0.035,0.006,0.020,-0.020,0.020,0.015,0.993,0.011,0.000,-0.006,-0.002,0.000,0.000,0.000,0.000,0,2,0,3,7,255,1200,300,0,0,-89.341,0.933,-31.532
EX0521-092111,28,C04,prep,495,495,0,1338904.092,0.686,-0.675,0.197,0.188,0,0,0,0,0,0,0,0,0,0.000,0,0,0.104,0.006,-0.100,-0.020,0.020,0.015,0.992,0.012,0.000,-0.006,-0.002,0.000,0.000,0.000,0.000,0,2,0,3,7,255,1200,300,0,0,-89.341,0.933,-31.532
EX0521-092111,28,C04,prep,515,515,0,1338909.092,0.686,-0.675,0.197,0.188,0,0,0,0,0,0,0,0,0,0.000,0,0,0.060,0.002,0.020,0.040,-0.040,0.013,0.993,0.011,0.000,-0.002,-0.004,0.000,0.000,0.000,0.000,0,2,0,3,7,255,1200,300,0,0,-89.341,0.933,-31.532
EX0521-092111,28,C04,prep,515,515,0,1338914.092,0.686,-0.675,0.197,0.188,0,0,0,0,0,0,0,0,0,0.000,0,0,0.049,0.007,-0.040,-0.020,0.020,0.014,0.994,0.011,-0.004,0.006,-0.004,0.000,0.000,0.000,0.000,0,2,0,3,7,255,1200,300,0,0,-89.341,0.933,-31.532
EX0521-092111,28,C04,prep,515,515,0,1338919.092,0.686,-0.675,0.197,0.188,0,0,0,0,0,0,0,0,0,0.000,0,0,0.130,0.007,-0.100,-0.080,0.020,0.015,0.992,0.011,-0.004,0.006,-0.004,0.000,0.000,0.000,0.000,0,2,0,3,7,255,1200,300,0,0,-89.341,0.933,-31.532
EX0521-092111,28,C04,prep,515,515,0,1338924.092,0.686,-0.675,0.197,0.188,0,0,0,0,0,0,0,0,0,0.000,0,0,0.060,0.007,0.020,0.040,-0.040,0.014,0.993,0.011,-0.004,0.006,-0.002,0.000,0.000,0.000,0.000,0,2,0,3,7,255,1200,300,0,0,-89.341,0.933,-31.532
EX0521-092111,28,C04,prep,527,527,0,1338929.092,0.686,-0.675,0.197,0.188,0,0,0,0,0,0,0,0,0,0.000,0,0,0.120,0.006,0.080,-0.080,-0.040,0.014,0.992,0.011,0.000,0.006,-0.008,0.000,0.000,0.000,0.000,0,2,0,3,7,255,1200,300,0,0,-89.341,0.933,-31.532
EX0521-092111,28,C04,prep,527,527,0,1338934.092,0.686,-0.675,0.197,0.188,0,0,0,0,0,0,0,0,0,0.000,0,0,0.049,0.006,-0.040,-0.020,0.020,0.014,0.993,0.011,0.000,0.006,-0.002,0.000,0.000,0.000,0.000,0,2,0,3,7,255,1200,300,0,0,-89.341,0.933,-31.532
EX0521-092111,28,C04,prep,551,551,0,1338939.092,0.686,-0.675,0.197,0.188,0,0,0,0,0,0,0,0,0,0.000,0,0,0.134,0.004,-0.100,-0.080,-0.040,0.015,0.993,0.013,0.000,0.004,-0.002,0.000,0.000,0.000,0.000,0,2,0,3,7,255,1200,300,0,0,-89.341,0.933,-31.532
EX0521-092111,28,C04,prep,551,551,0,1338944.091,0.686,-0.675,0.197,0.188,0,0,0,0,0,0,0,0,0,0.000,0,0,0.049,0.003,0.020,-0.020,-0.040,0.015,0.993,0.011,0.002,-0.002,-0.002,0.000,0.000,0.000,0.000,0,2,0,3,7,255,1200,300,0,0,-89.341,0.933,-31.532
EX0521-092111,28,C04,prep,551,551,0,1338949.091,0.686,-0.675,0.197,0.188,0,0,0,0,0,0,0,0,0,0.000,0,0,0.035,0.008,0.020,-0.020,0.020,0.015,0.992,0.012,0.006,-0.006,-0.002,0.000,0.000,0.000,0.000,0,2,0,3,7,255,1200,300,0,0,-89.341,0.933,-31.532
EX0521-092111,28,C04,prep,551,551,0,1338954.091,0.686,-0.675,0.197,0.188,0,0,0,0,0,0,0,0,0,0.000,0,0,0.049,0.007,0.020,-0.020,-0.040,0.014,0.992,0.012,0.006,-0.004,-0.008,0.000,0.000,0.000,0.000,0,2,0,3,7,255,1200,300,0,0,-89.341,0.933,-31.532
EX0521-092111,28,C04,prep,552,552,0,1338959.095,0.686,-0.675,0.197,0.188,0,0,0,0,0,0,0,0,0,0.000,0,0,0.049,0.004,0.020,-0.020,-0.040,0.014,0.991,0.012,-0.002,-0.004,-0.012,0.000,0.000,0.000,0.000,0,2,0,3,7,255,1200,300,0,0,-89.341,0.933,-31.532
EX0521-092111,28,C04,prep,552,552,0,1338964.091,0.686,-0.675,0.197,0.188,0,0,0,0,0,0,0,0,0,0.000,0,0,0.049,0.002,0.020,-0.020,-0.040,0.014,0.993,0.010,-0.002,0.000,-0.008,0.000,0.000,0.000,0.000,0,2,0,3,7,255,1200,300,0,0,-89.341,0.933,-31.532
EX0521-092111,28,C04,prep,580,580,0,1338969.092,0.686,-0.675,0.197,0.188,0,0,0,0,0,0,0,0,0,0.000,0,0,0.104,0.002,-0.100,-0.020,0.020,0.014,0.992,0.013,-0.002,0.000,-0.006,0.000,0.000,0.000,0.000,0,2,0,3,7,255,1200,300,0,0,-89.341,0.933,-31.532
EX0521-092111,28,C04,prep,580,580,0,1338974.091,0.686,-0.675,0.197,0.188,0,0,0,0,0,0,0,0,0,0.000,0,0,0.049,0.004,0.020,-0.020,-0.040,0.014,0.992,0.011,0.000,0.004,-0.006,0.000,0.000,0.000,0.000,0,2,0,3,7,255,1200,300,0,0,-89.341,0.933,-31.532
EX0521-092111,28,C04,prep,616,616,0,1338979.091,0.686,-0.675,0.197,0.188,0,0,0,0,0,0,0,0,0,0.000,0,0,0.049,0.010,-0.040,-0.020,0.020,0.014,0.993,0.013,-0.006,-0.008,-0.006,0.000,0.000,0.000,0.000,0,2,0,3,7,255,1200,300,0,0,-89.341,0.933,-31.532
EX0521-092111,28,C04,prep,616,616,0,1338984.091,0.686,-0.675,0.197,0.188,0,0,0,0,0,0,0,0,0,0.000,0,0,0.060,0.008,-0.040,-0.020,-0.040,0.015,0.992,0.012,0.000,-0.008,-0.012,0.000,0.000,0.000,0.000,0,2,0,3,7,255,1200,300,0,0,-89.341,0.933,-31.532
EX0521-092111,28,C04,prep,616,616,0,1338989.095,0.686,-0.675,0.197,0.188,0,0,0,0,0,0,0,0,0,0.000,0,0,0.092,0.009,0.020,-0.080,-0.040,0.014,0.993,0.012,-0.004,-0.008,-0.002,0.000,0.000,0.000,0.000,0,2,0,3,7,255,1200,300,0,0,-89.341,0.933,-31.532
EX0521-092111,28,C04,prep,616,616,0,1338994.091,0.686,-0.675,0.197,0.188,0,0,0,0,0,0,0,0,0,0.000,0,0,0.092,0.007,0.080,-0.020,-0.040,0.014,0.993,0.013,-0.004,-0.006,-0.002,0.000,0.000,0.000,0.000,0,2,0,3,7,255,1200,300,0,0,-89.341,0.933,-31.532
EX0521-092111,28,C04,prep,616,616,0,1338999.091,0.686,-0.675,0.197,0.188,0,0,0,0,0,0,0,0,0,0.000,0,0,0.104,0.006,-0.100,-0.020,0.020,0.014,0.992,0.011,-0.004,-0.004,-0.002,0.000,0.000,0.000,0.000,0,2,0,3,7,255,1200,300,0,0,-89.341,0.933,-31.532
EX0521-092111,28,C04,prep,616,616,0,1339004.091,0.686,-0.675,0.197,0.188,0,0,0,0,0,0,0,0,0,0.000,0,0,0.049,0.009,-0.040,-0.020,0.020,0.013,0.994,0.011,-0.008,0.004,-0.002,0.000,0.000,0.000,0.000,0,2,0,3,7,255,1200,300,0,0,-89.341,0.933,-31.532
EX0521-092111,28,C04,prep,616,616,0,1339009.091,0.686,-0.675,0.197,0.188,0,0,0,0,0,0,0,0,0,0.000,0,0,0.049,0.004,0.020,-0.020,-0.040,0.015,0.995,0.012,0.002,0.004,0.008,0.000,0.000,0.000,0.000,0,2,0,3,7,255,1200,300,0,0,-89.341,0.933,-31.532
EX0521-092111,28,C04,prep,616,616,0,1339014.091,0.686,-0.675,0.197,0.188,0,0,0,0,0,0,0,0,0,0.000,0,0,0.049,0.003,-0.040,-0.020,0.020,0.015,0.993,0.011,0.002,-0.002,0.008,0.000,0.000,0.000,0.000,0,2,0,3,7,255,1200,300,0,0,-89.341,0.933,-31.532
EX0521-092111,28,C04,prep,617,617,0,1339019.091,0.686,-0.675,0.197,0.188,0,0,0,0,0,0,0,0,0,0.000,0,0,0.049,0.003,0.020,0.040,0.020,0.014,0.992,0.012,0.002,-0.002,-0.002,0.000,0.000,0.000,0.000,0,2,0,3,7,255,1200,300,0,0,-89.341,0.933,-31.532
EX0521-092111,28,C04,prep,617,617,0,1339024.091,0.686,-0.675,0.197,0.188,0,0,0,0,0,0,0,0,0,0.000,0,0,0.092,0.003,0.080,0.040,0.020,0.015,0.992,0.012,0.002,-0.002,-0.006,0.000,0.000,0.000,0.000,0,2,0,3,7,255,1200,300,0,0,-89.341,0.933,-31.532
EX0521-092111,28,C04,prep,623,623,0,1339029.092,0.686,-0.675,0.197,0.188,0,0,0,0,0,0,0,0,0,0.000,0,0,0.035,0.002,0.020,-0.020,0.020,0.015,0.993,0.012,0.000,-0.002,-0.006,0.000,0.000,0.000,0.000,0,2,0,3,7,255,1200,300,0,0,-89.341,0.933,-31.532
EX0521-092111,28,C04,prep,623,623,0,1339034.091,0.686,-0.675,0.197,0.188,0,0,0,0,0,0,0,0,0,0.000,0,0,0.130,0.002,-0.100,-0.080,0.020,0.014,0.993,0.011,0.000,-0.002,-0.002,0.000,0.000,0.000,0.000,0,2,0,3,7,255,1200,300,0,0,-89.341,0.933,-31.532
EX0521-092111,28,C04,prep,647,647,0,1339039.091,0.686,-0.675,0.197,0.188,0,0,0,0,0,0,0,0,0,0.000,0,0,0.049,0.006,0.020,-0.020,-0.040,0.015,0.992,0.012,0.000,-0.006,-0.002,0.000,0.000,0.000,0.000,0,2,0,3,7,255,1200,300,0,0,-89.341,0.933,-31.532
EX0521-092111,28,C04,prep,647,647,0,1339044.091,0.686,-0.675,0.197,0.188,0,0,0,0,0,0,0,0,0,0.000,0,0,0.035,0.007,0.020,-0.020,0.020,0.014,0.992,0.010,0.006,0.004,-0.012,0.000,0.000,0.000,0.000,0,2,0,3,7,255,1200,300,0,0,-89.341,0.933,-31.532
EX0521-092111,28,C04,prep,648,648,0,1339049.091,0.686,-0.675,0.197,0.188,0,0,0,0,0,0,0,0,0,0.000,0,0,0.130,0.010,-0.100,-0.080,0.020,0.014,0.993,0.011,0.006,0.008,-0.012,0.000,0.000,0.000,0.000,0,2,0,3,7,255,1200,300,0,0,-89.341,0.933,-31.532
EX0521-092111,28,C04,prep,648,648,0,1339054.091,0.686,-0.675,0.197,0.188,0,0,0,0,0,0,0,0,0,0.000,0,0,0.049,0.011,0.020,-0.020,-0.040,0.014,0.992,0.011,0.004,0.010,-0.006,0.000,0.000,0.000,0.000,0,2,0,3,7,255,1200,300,0,0,-89.341,0.933,-31.532
EX0521-092111,28,C04,prep,656,656,0,1339059.091,0.686,-0.675,0.197,0.188,0,0,0,0,0,0,0,0,0,0.000,0,0,0.060,0.010,0.020,0.040,-0.040,0.014,0.994,0.010,0.002,0.010,-0.002,0.000,0.000,0.000,0.000,0,2,0,3,7,255,1200,300,0,0,-89.341,0.933,-31.532
EX0521-092111,28,C04,prep,656,656,0,1339064.093,0.686,-0.675,0.197,0.188,0,0,0,0,0,0,0,0,0,0.000,0,0,0.110,0.010,-0.100,-0.020,-0.040,0.015,0.993,0.011,0.002,0.010,-0.002,0.000,0.000,0.000,0.000,0,2,0,3,7,255,1200,300,0,0,-89.341,0.933,-31.532
EX0521-092111,28,C04,prep,681,681,0,1339069.092,0.686,-0.675,0.197,0.188,0,0,0,0,0,0,0,0,0,0.000,0,0,0.035,0.002,0.020,-0.020,0.020,0.015,0.993,0.012,0.002,0.000,0.004,0.000,0.000,0.000,0.000,0,2,0,3,7,255,1200,300,0,0,-89.341,0.933,-31.532
EX0521-092111,28,C04,prep,681,681,0,1339074.091,0.686,-0.675,0.197,0.188,0,0,0,0,0,0,0,0,0,0.000,0,0,0.060,0.003,-0.040,0.040,0.020,0.015,0.993,0.012,0.002,-0.002,0.004,0.000,0.000,0.000,0.000,0,2,0,3,7,255,1200,300,0,0,-89.341,0.933,-31.532
EX0521-092111,28,C04,prep,706,706,0,1339079.091,0.686,-0.675,0.197,0.188,0,0,0,0,0,0,0,0,0,0.000,0,0,0.049,0.004,-0.040,-0.020,0.020,0.014,0.991,0.013,0.002,-0.004,0.004,0.000,0.000,0.000,0.000,0,2,0,3,7,255,1200,300,0,0,-89.341,0.933,-31.532
EX0521-092111,28,C04,prep,706,706,0,1339084.091,0.686,-0.675,0.197,0.188,0,0,0,0,0,0,0,0,0,0.000,0,0,0.049,0.003,-0.040,-0.020,0.020,0.014,0.992,0.012,-0.002,-0.002,-0.012,0.000,0.000,0.000,0.000,0,2,0,3,7,255,1200,300,0,0,-89.341,0.933,-31.532
EX0521-092111,28,C04,prep,706,706,0,1339089.093,0.686,-0.675,0.197,0.188,0,0,0,0,0,0,0,0,0,0.000,0,0,0.092,0.004,0.080,-0.020,-0.040,0.014,0.991,0.011,-0.004,0.000,-0.016,0.000,0.000,0.000,0.000,0,2,0,3,7,255,1200,300,0,0,-89.341,0.933,-31.532
EX0521-092111,28,C04,prep,706,706,0,1339094.091,0.686,-0.675,0.197,0.188,0,0,0,0,0,0,0,0,0,0.000,0,0,0.060,0.006,-0.040,-0.020,-0.040,0.014,0.992,0.011,-0.002,0.006,-0.012,0.000,0.000,0.000,0.000,0,2,0,3,7,255,1200,300,0,0,-89.341,0.933,-31.532
EX0521-092111,28,C04,prep,706,706,0,1339099.091,0.686,-0.675,0.197,0.188,0,0,0,0,0,0,0,0,0,0.000,0,0,0.060,0.006,-0.040,0.040,0.020,0.015,0.993,0.011,0.000,0.006,-0.006,0.000,0.000,0.000,0.000,0,2,0,3,7,255,1200,300,0,0,-89.341,0.933,-31.532
EX0521-092111,28,C04,prep,706,706,0,1339104.091,0.686,-0.675,0.197,0.188,0,0,0,0,0,0,0,0,0,0.000,0,0,0.085,0.002,0.080,-0.020,0.020,0.015,0.992,0.012,0.000,0.002,-0.006,0.000,0.000,0.000,0.000,0,2,0,3,7,255,1200,300,0,0,-89.341,0.933,-31.532
EX0521-092111,28,C04,prep,706,706,0,1339109.091,0.686,-0.675,0.197,0.188,0,0,0,0,0,0,0,0,0,0.000,0,0,0.060,0.000,-0.040,-0.020,-0.040,0.014,0.994,0.012,0.000,0.000,0.004,0.000,0.000,0.000,0.000,0,2,0,3,7,255,1200,300,0,0,-89.341,0.933,-31.532
EX0521-092111,28,C04,prep,706,706,0,1339114.091,0.686,-0.675,0.197,0.188,0,0,0,0,0,0,0,0,0,0.000,0,0,0.049,0.000,-0.040,-0.020,0.020,0.015,0.992,0.011,0.000,0.000,-0.006,0.000,0.000,0.000,0.000,0,2,0,3,7,255,1200,300,0,0,-89.341,0.933,-31.532
EX0521-092111,28,C04,prep,707,707,0,1339119.091,0.686,-0.675,0.197,0.188,0,0,0,0,0,0,0,0,0,0.000,0,0,0.060,0.004,-0.040,-0.020,-0.040,0.013,0.993,0.012,-0.002,0.004,-0.002,0.000,0.000,0.000,0.000,0,2,0,3,7,255,1200,300,0,0,-89.341,0.933,-31.532
EX0521-092111,28,C04,prep,707,707,0,1339124.091,0.686,-0.675,0.197,0.188,0,0,0,0,0,0,0,0,0,0.000,0,0,0.049,0.006,-0.040,-0.020,0.020,0.013,0.992,0.011,-0.004,0.004,-0.006,0.000,0.000,0.000,0.000,0,2,0,3,7,255,1200,300,0,0,-89.341,0.933,-31.532
EX0521-092111,28,C04,prep,719,719,0,1339129.092,0.686,-0.675,0.197,0.188,0,0,0,0,0,0,0,0,0,0.000,0,0,0.049,0.013,0.020,-0.020,-0.040,0.013,0.992,0.010,-0.004,0.012,-0.006,0.000,0.000,0.000,0.000,0,2,0,3,7,255,1200,300,0,0,-89.341,0.933,-31.532
EX0521-092111,28,C04,prep,719,719,0,1339134.091,0.686,-0.675,0.197,0.188,0,0,0,0,0,0,0,0,0,0.000,0,0,0.049,0.013,0.020,-0.020,-0.040,0.014,0.994,0.011,-0.004,0.012,-0.006,0.000,0.000,0.000,0.000,0,2,0,3,7,255,1200,300,0,0,-89.341,0.933,-31.532
EX0521-092111,28,C04,prep,741,741,0,1339139.092,0.686,-0.675,0.197,0.188,0,0,0,0,0,0,0,0,0,0.000,0,0,0.035,0.006,0.020,-0.020,0.020,0.014,0.993,0.011,-0.002,0.006,0.004,0.000,0.000,0.000,0.000,0,2,0,3,7,255,1200,300,0,0,-89.341,0.933,-31.532
EX0521-092111,28,C04,prep,741,741,0,1339144.091,0.686,-0.675,0.197,0.188,0,0,0,0,0,0,0,0,0,0.000,0,0,0.049,0.004,-0.040,-0.020,0.020,0.014,0.993,0.012,-0.002,0.004,0.004,0.000,0.000,0.000,0.000,0,2,0,3,7,255,1200,300,0,0,-89.341,0.933,-31.532
EX0521-092111,28,C04,prep,741,741,0,1339149.092,0.686,-0.675,0.197,0.188,0,0,0,0,0,0,0,0,0,0.000,0,0,0.060,0.002,-0.040,-0.020,-0.040,0.014,0.992,0.011,0.000,0.002,0.004,0.000,0.000,0.000,0.000,0,2,0,3,7,255,1200,300,0,0,-89.341,0.933,-31.532
EX0521-092111,28,C04,prep,741,741,0,1339154.092,0.686,-0.675,0.197,0.188,0,0,0,0,0,0,0,0,0,0.000,0,0,0.092,0.003,0.020,-0.080,-0.040,0.014,0.994,0.011,-0.002,0.002,0.004,0.000,0.000,0.000,0.000,0,2,0,3,7,255,1200,300,0,0,-89.341,0.933,-31.532
EX0521-092111,28,C04,prep,751,751,0,1339159.094,0.686,-0.675,0.197,0.188,0,0,0,0,0,0,0,0,0,0.000,0,0,0.060,0.004,-0.040,-0.020,-0.040,0.014,0.992,0.012,-0.004,0.002,-0.006,0.000,0.000,0.000,0.000,0,2,0,3,7,255,1200,300,0,0,-89.341,0.933,-31.532
EX0521-092111,28,C04,prep,751,751,0,1339164.092,0.686,-0.675,0.197,0.188,0,0,0,0,0,0,0,0,0,0.000,0,0,0.049,0.007,0.020,-0.020,-0.040,0.014,0.992,0.011,-0.004,0.006,-0.006,0.000,0.000,0.000,0.000,0,2,0,3,7,255,1200,300,0,0,-89.341,0.933,-31.532
EX0521-092111,28,C04,prep,778,778,0,1339169.092,0.686,-0.675,0.197,0.188,0,0,0,0,0,0,0,0,0,0.000,0,0,0.060,0.006,-0.040,-0.020,-0.040,0.013,0.992,0.012,-0.004,0.004,-0.010,0.000,0.000,0.000,0.000,0,2,0,3,7,255,1200,300,0,0,-89.341,0.933,-31.532
EX0521-092111,28,C04,prep,778,778,0,1339174.092,0.686,-0.675,0.197,0.188,0,0,0,0,0,0,0,0,0,0.000,0,0,0.104,0.011,-0.100,-0.020,0.020,0.013,0.992,0.012,-0.010,0.004,-0.010,0.000,0.000,0.000,0.000,0,2,0,3,7,255,1200,300,0,0,-89.341,0.933,-31.532
EX0521-092111,28,C04,prep,789,789,0,1339179.092,0.686,-0.675,0.197,0.188,0,0,0,0,0,0,0,0,0,0.000,0,0,0.035,0.011,0.020,-0.020,0.020,0.013,0.992,0.012,-0.010,0.004,-0.006,0.000,0.000,0.000,0.000,0,2,0,3,7,255,1200,300,0,0,-89.341,0.933,-31.532
EX0521-092111,28,C04,prep,789,789,0,1339184.092,0.686,-0.675,0.197,0.188,0,0,0,0,0,0,0,0,0,0.000,0,0,0.049,0.010,0.020,-0.020,-0.040,0.015,0.991,0.011,-0.010,0.000,-0.006,0.000,0.000,0.000,0.000,0,2,0,3,7,255,1200,300,0,0,-89.341,0.933,-31.532
EX0521-092111,28,C04,prep,816,816,0,1339189.093,0.686,-0.675,0.197,0.188,0,0,0,0,0,0,0,0,0,0.000,0,0,0.060,0.003,-0.040,-0.020,-0.040,0.014,0.993,0.012,-0.002,-0.002,-0.006,0.000,0.000,0.000,0.000,0,2,0,3,7,255,1200,300,0,0,-89.341,0.933,-31.532
EX0521-092111,28,C04,prep,816,816,0,1339194.092,0.686,-0.675,0.197,0.188,0,0,0,0,0,0,0,0,0,0.000,0,0,0.060,0.003,-0.040,-0.020,-0.040,0.014,0.992,0.012,-0.002,-0.002,-0.006,0.000,0.000,0.000,0.000,0,2,0,3,7,255,1200,300,0,0,-89.341,0.933,-31.532
EX0521-092111,28,C04,prep,831,831,0,1339199.092,0.686,-0.675,0.197,0.188,0,0,0,0,0,0,0,0,0,0.000,0,0,0.060,0.004,-0.040,-0.020,-0.040,0.015,0.994,0.012,-0.002,-0.004,0.000,0.000,0.000,0.000,0.000,0,2,0,3,7,255,1200,300,0,0,-89.341,0.933,-31.532
EX0521-092111,28,C04,prep,831,831,0,1339204.092,0.686,-0.675,0.197,0.188,0,0,0,0,0,0,0,0,0,0.000,0,0,0.060,0.004,-0.040,-0.020,-0.040,0.014,0.993,0.012,-0.002,-0.004,0.004,0.000,0.000,0.000,0.000,0,2,0,3,7,255,1200,300,0,0,-89.341,0.933,-31.532
EX0521-092111,28,C04,prep,831,831,0,1339209.092,0.686,-0.675,0.197,0.188,0,0,0,0,0,0,0,0,0,0.000,0,0,0.060,0.003,-0.040,-0.020,-0.040,0.014,0.993,0.012,-0.002,-0.002,0.004,0.000,0.000,0.000,0.000,0,2,0,3,7,255,1200,300,0,0,-89.341,0.933,-31.532
EX0521-092111,28,C04,prep,831,831,0,1339214.092,0.686,-0.675,0.197,0.188,0,0,0,0,0,0,0,0,0,0.000,0,0,0.060,0.003,-0.040,-0.020,-0.040,0.015,0.993,0.012,-0.002,-0.002,0.004,0.000,0.000,0.000,0.000,0,2,0,3,7,255,1200,300,0,0,-89.341,0.933,-31.532
EX0521-092111,28,C04,prep,831,831,0,1339219.092,0.686,-0.675,0.197,0.188,0,0,0,0,0,0,0,0,0,0.000,0,0,0.092,0.003,0.020,-0.080,-0.040,0.014,0.994,0.012,-0.002,-0.002,0.004,0.000,0.000,0.000,0.000,0,2,0,3,7,255,1200,300,0,0,-89.341,0.933,-31.532
EX0521-092111,28,C04,prep,831,831,0,1339224.092,0.686,-0.675,0.197,0.188,0,0,0,0,0,0,0,0,0,0.000,0,0,0.085,0.002,0.020,-0.080,0.020,0.014,0.993,0.011,0.002,0.000,0.004,0.000,0.000,0.000,0.000,0,2,0,3,7,255,1200,300,0,0,-89.341,0.933,-31.532
EX0521-092111,28,C04,prep,831,831,0,1339229.092,0.686,-0.675,0.197,0.188,0,0,0,0,0,0,0,0,0,0.000,0,0,0.035,0.004,0.020,-0.020,0.020,0.014,0.994,0.011,0.002,0.004,0.008,0.000,0.000,0.000,0.000,0,2,0,3,7,255,1200,300,0,0,-89.341,0.933,-31.532
EX0521-092111,28,C04,prep,831,831,0,1339234.092,0.686,-0.675,0.197,0.188,0,0,0,0,0,0,0,0,0,0.000,0,0,0.098,0.006,-0.040,-0.080,-0.040,0.015,0.993,0.011,0.004,0.004,0.004,0.000,0.000,0.000,0.000,0,2,0,3,7,255,1200,300,0,0,-89.341,0.933,-31.532
EX0521-092111,28,C04,prep,831,831,0,1339239.092,0.686,-0.675,0.197,0.188,0,0,0,0,0,0,0,0,0,0.000,0,0,0.035,0.006,0.020,-0.020,0.020,0.015,0.993,0.012,0.004,0.004,0.000,0.000,0.000,0.000,0.000,0,2,0,3,7,255,1200,300,0,0,-89.341,0.933,-31.532
EX0521-092111,28,C04,prep,831,831,0,1339244.092,0.686,-0.675,0.197,0.188,0,0,0,0,0,0,0,0,0,0.000,0,0,0.035,0.009,0.020,-0.020,0.020,0.015,0.993,0.011,0.008,0.004,0.000,0.000,0.000,0.000,0.000,0,2,0,3,7,255,1200,300,0,0,-89.341,0.933,-31.532
EX0521-092111,28,C04,prep,847,847,0,1339249.092,0.686,-0.675,0.197,0.188,0,0,0,0,0,0,0,0,0,0.000,0,0,0.035,0.009,0.020,-0.020,0.020,0.015,0.993,0.012,0.004,-0.008,0.000,0.000,0.000,0.000,0.000,0,2,0,3,7,255,1200,300,0,0,-89.341,0.933,-31.532
EX0521-092111,28,C04,prep,847,847,0,1339254.092,0.686,-0.675,0.197,0.188,0,0,0,0,0,0,0,0,0,0.000,0,0,0.128,0.004,-0.040,-0.020,-0.120,0.014,0.993,0.010,0.002,0.004,0.000,0.000,0.000,0.000,0.000,0,2,0,3,7,255,1200,300,0,0,-89.341,0.933,-31.532
EX0521-092111,28,C04,prep,847,847,0,1339259.092,0.686,-0.675,0.197,0.188,0,0,0,0,0,0,0,0,0,0.000,0,0,0.049,0.008,0.020,-0.020,-0.040,0.015,0.993,0.012,0.002,-0.008,0.004,0.000,0.000,0.000,0.000,0,2,0,3,7,255,1200,300,0,0,-89.341,0.933,-31.532
EX0521-092111,28,C04,prep,847,847,0,1339264.092,0.686,-0.675,0.197,0.188,0,0,0,0,0,0,0,0,0,0.000,0,0,0.049,0.011,0.020,-0.020,-0.040,0.015,0.993,0.012,0.004,-0.010,0.000,0.000,0.000,0.000,0.000,0,2,0,3,7,255,1200,300,0,0,-89.341,0.933,-31.532
EX0521-092111,28,C04,prep,863,863,0,1339269.092,0.686,-0.675,0.197,0.188,0,0,0,0,0,0,0,0,0,0.000,0,0,0.060,0.011,-0.040,-0.020,-0.040,0.015,0.993,0.012,0.004,-0.010,0.000,0.000,0.000,0.000,0.000,0,2,0,3,7,255,1200,300,0,0,-89.341,0.933,-31.532
EX0521-092111,28,C04,prep,863,863,0,1339274.092,0.686,-0.675,0.197,0.188,0,0,0,0,0,0,0,0,0,0.000,0,0,0.085,0.004,0.020,-0.020,0.080,0.014,0.993,0.011,0.002,-0.004,0.000,0.000,0.000,0.000,0.000,0,2,0,3,7,255,1200,300,0,0,-89.341,0.933,-31.532
EX0521-092111,28,C04,prep,895,895,0,1339279.092,0.686,-0.675,0.197,0.188,0,0,0,0,0,0,0,0,0,0.000,0,0,0.060,0.004,0.020,0.040,-0.040,0.015,0.993,0.012,0.002,-0.004,0.004,0.000,0.000,0.000,0.000,0,2,0,3,7,255,1200,300,0,0,-89.341,0.933,-31.532
EX0521-092111,28,C04,prep,895,895,0,1339284.092,0.686,-0.675,0.197,0.188,0,0,0,0,0,0,0,0,0,0.000,0,0,0.035,0.004,0.020,-0.020,0.020,0.014,0.993,0.012,-0.004,0.002,0.004,0.000,0.000,0.000,0.000,0,2,0,3,7,255,1200,300,0,0,-89.341,0.933,-31.532
EX0521-092111,28,C04,prep,895,895,0,1339289.093,0.686,-0.675,0.197,0.188,0,0,0,0,0,0,0,0,0,0.000,0,0,0.060,0.006,-0.040,-0.020,-0.040,0.013,0.993,0.011,-0.006,0.002,-0.002,0.000,0.000,0.000,0.000,0,2,0,3,7,255,1200,300,0,0,-89.341,0.933,-31.532
EX0521-092111,28,C04,prep,895,895,0,1339294.092,0.686,-0.675,0.197,0.188,0,0,0,0,0,0,0,0,0,0.000,0,0,0.104,0.008,-0.100,-0.020,0.020,0.013,0.992,0.012,-0.008,0.002,-0.002,0.000,0.000,0.000,0.000,0,2,0,3,7,255,1200,300,0,0,-89.341,0.933,-31.532
EX0521-092111,28,C04,prep,895,895,0,1339299.092,0.686,-0.675,0.197,0.188,0,0,0,0,0,0,0,0,0,0.000,0,0,0.092,0.008,-0.040,-0.080,0.020,0.014,0.991,0.012,-0.008,0.002,-0.010,0.000,0.000,0.000,0.000,0,2,0,3,7,255,1200,300,0,0,-89.341,0.933,-31.532
EX0521-092111,28,C04,prep,895,895,0,1339304.092,0.686,-0.675,0.197,0.188,0,0,0,0,0,0,0,0,0,0.000,0,0,0.060,0.008,-0.040,0.040,0.020,0.014,0.993,0.012,-0.008,0.002,-0.010,0.000,0.000,0.000,0.000,0,2,0,3,7,255,1200,300,0,0,-89.341,0.933,-31.532
EX0521-092111,28,C04,prep,916,916,0,1339309.092,0.686,-0.675,0.197,0.188,0,0,0,0,0,0,0,0,0,0.000,0,0,0.060,0.006,-0.040,-0.020,-0.040,0.015,0.993,0.012,-0.006,-0.002,0.004,0.000,0.000,0.000,0.000,0,2,0,3,7,255,1200,300,0,0,-89.341,0.933,-31.532
EX0521-092111,28,C04,prep,916,916,0,1339314.092,0.686,-0.675,0.197,0.188,0,0,0,0,0,0,0,0,0,0.000,0,0,0.049,0.004,0.020,-0.020,-0.040,0.015,0.993,0.012,0.000,-0.004,0.004,0.000,0.000,0.000,0.000,0,2,0,3,7,255,1200,300,0,0,-89.341,0.933,-31.532
EX0521-092111,28,C04,prep,917,917,0,1339319.092,0.686,-0.675,0.197,0.188,0,0,0,0,0,0,0,0,0,0.000,0,0,0.049,0.006,0.020,-0.020,-0.040,0.015,0.993,0.012,0.002,-0.006,0.000,0.000,0.000,0.000,0.000,0,2,0,3,7,255,1200,300,0,0,-89.341,0.933,-31.532
EX0521-092111,28,C04,prep,917,917,0,1339324.092,0.686,-0.675,0.197,0.188,0,0,0,0,0,0,0,0,0,0.000,0,0,0.049,0.006,-0.040,-0.020,0.020,0.015,0.993,0.013,0.002,-0.006,0.000,0.000,0.000,0.000,0.000,0,2,0,3,7,255,1200,300,0,0,-89.341,0.933,-31.532
EX0521-092111,28,C04,prep,927,927,0,1339329.093,0.686,-0.675,0.197,0.188,0,0,0,0,0,0,0,0,0,0.000,0,0,0.049,0.008,-0.040,-0.020,0.020,0.015,0.993,0.012,0.000,-0.008,0.004,0.000,0.000,0.000,0.000,0,2,0,3,7,255,1200,300,0,0,-89.341,0.933,-31.532
EX0521-092111,28,C04,prep,927,927,0,1339334.092,0.686,-0.675,0.197,0.188,0,0,0,0,0,0,0,0,0,0.000,0,0,0.049,0.008,0.020,-0.020,-0.040,0.014,0.992,0.011,0.000,-0.008,0.004,0.000,0.000,0.000,0.000,0,2,0,3,7,255,1200,300,0,0,-89.341,0.933,-31.532
EX0521-092111,28,C04,prep,947,947,0,1339339.092,0.686,-0.675,0.197,0.188,0,0,0,0,0,0,0,0,0,0.000,0,0,0.060,0.004,-0.040,0.040,0.020,0.014,0.993,0.010,0.002,0.004,-0.002,0.000,0.000,0.000,0.000,0,2,0,3,7,255,1200,300,0,0,-89.341,0.933,-31.532
EX0521-092111,28,C04,prep,947,947,0,1339344.092,0.686,-0.675,0.197,0.188,0,0,0,0,0,0,0,0,0,0.000,0,0,0.060,0.004,0.020,0.040,-0.040,0.015,0.993,0.012,0.002,0.004,-0.002,0.000,0.000,0.000,0.000,0,2,0,3,7,255,1200,300,0,0,-89.341,0.933,-31.532
EX0521-092111,28,C04,prep,948,948,0,1339349.092,0.686,-0.675,0.197,0.188,0,0,0,0,0,0,0,0,0,0.000,0,0,0.049,0.006,0.020,0.040,0.020,0.015,0.993,0.013,0.002,-0.006,0.000,0.000,0.000,0.000,0.000,0,2,0,3,7,255,1200,300,0,0,-89.341,0.933,-31.532
EX0521-092111,28,C04,prep,948,948,0,1339354.092,0.686,-0.675,0.197,0.188,0,0,0,0,0,0,0,0,0,0.000,0,0,0.092,0.008,0.020,-0.080,-0.040,0.015,0.992,0.011,0.006,-0.006,0.000,0.000,0.000,0.000,0.000,0,2,0,3,7,255,1200,300,0,0,-89.341,0.933,-31.532
EX0521-092111,28,C04,prep,980,980,0,1339359.093,0.686,-0.675,0.197,0.188,0,0,0,0,0,0,0,0,0,0.000,0,0,0.075,0.008,-0.040,-0.020,-0.060,0.015,0.993,0.012,0.006,-0.006,0.004,0.000,0.000,0.000,0.000,0,2,0,3,7,255,1200,300,0,0,-89.341,0.933,-31.532
EX0521-092111,28,C04,prep,981,981,0,1339364.092,0.686,-0.675,0.197,0.188,0,0,0,0,0,0,0,0,0,0.000,0,0,0.066,0.006,0.020,-0.020,-0.060,0.015,0.993,0.011,0.006,0.000,0.000,0.000,0.000,0.000,0.000,0,2,0,3,7,255,1200,300,0,0,-89.341,0.933,-31.532
EX0521-092111,28,C04,prep,981,981,0,1339369.092,0.686,-0.675,0.197,0.188,0,0,0,0,0,0,0,0,0,0.000,0,0,0.066,0.006,0.020,-0.020,-0.060,0.014,0.993,0.012,0.006,0.000,0.000,0.000,0.000,0.000,0.000,0,2,0,3,7,255,1200,300,0,0,-89.341,0.933,-31.532
EX0521-092111,28,C04,prep,981,981,0,1339374.092,0.686,-0.675,0.197,0.188,0,0,0,0,0,0,0,0,0,0.000,0,0,0.057,0.006,-0.040,0.040,0.000,0.015,0.992,0.012,0.006,0.000,0.000,0.000,0.000,0.000,0.000,0,2,0,3,7,255,1200,300,0,0,-89.341,0.933,-31.532
EX0521-092111,28,C04,prep,991,991,0,1339379.092,0.686,-0.675,0.197,0.188,0,0,0,0,0,0,0,0,0,0.000,0,0,0.028,0.006,0.020,-0.020,0.000,0.014,0.992,0.012,-0.004,-0.004,-0.006,0.000,0.000,0.000,0.000,0,2,0,3,7,255,1200,300,0,0,-89.341,0.933,-31.532
EX0521-092111,28,C04,prep,991,991,0,1339384.092,0.686,-0.675,0.197,0.188,0,0,0,0,0,0,0,0,0,0.000,0,0,0.141,0.004,-0.100,-0.100,0.000,0.015,0.993,0.012,0.002,-0.004,-0.006,0.000,0.000,0.000,0.000,0,2,0,3,7,255,1200,300,0,0,-89.341,0.933,-31.532
EX0521-092111,28,C04,prep,991,991,0,1339389.093,0.686,-0.675,0.197,0.188,0,0,0,0,0,0,0,0,0,0.000,0,0,0.066,0.004,0.020,-0.020,-0.060,0.014,0.992,0.012,-0.004,-0.002,-0.006,0.000,0.000,0.000,0.000,0,2,0,3,7,255,1200,300,0,0,-89.341,0.933,-31.532
EX0521-092111,28,C04,prep,991,991,0,1339394.092,0.686,-0.675,0.197,0.188,0,0,0,0,0,0,0,0,0,0.000,0,0,0.045,0.003,-0.040,-0.020,0.000,0.015,0.993,0.011,0.002,0.002,0.004,0.000,0.000,0.000,0.000,0,2,0,3,7,255,1200,300,0,0,-89.341,0.933,-31.532
EX0521-092111,28,C04,prep,991,991,0,1339399.092,0.686,-0.675,0.197,0.188,0,0,0,0,0,0,0,0,0,0.000,0,0,0.045,0.003,-0.040,-0.020,0.000,0.014,0.992,0.012,-0.002,0.002,-0.006,0.000,0.000,0.000,0.000,0,2,0,3,7,255,1200,300,0,0,-89.341,0.933,-31.532
EX0521-092111,28,C04,prep,991,991,0,1339404.092,0.686,-0.675,0.197,0.188,0,0,0,0,0,0,0,0,0,0.000,0,0,0.075,0.003,-0.040,-0.020,-0.060,0.014,0.993,0.011,0.002,0.002,0.000,0.000,0.000,0.000,0.000,0,2,0,3,7,255,1200,300,0,0,-89.341,0.933,-31.532
EX0521-092111,28,C04,prep,1011,1011,0,1339409.092,0.686,-0.675,0.197,0.188,0,0,0,0,0,0,0,0,0,0.000,0,0,0.049,0.004,-0.040,-0.020,0.020,0.014,0.994,0.011,0.002,0.004,0.000,0.000,0.000,0.000,0.000,0,2,0,3,7,255,1200,300,0,0,-89.341,0.933,-31.532
EX0521-092111,28,C04,prep,1011,1011,0,1339414.092,0.686,-0.675,0.197,0.188,0,0,0,0,0,0,0,0,0,0.000,0,0,0.049,0.004,-0.040,-0.020,0.020,0.014,0.993,0.012,0.002,0.004,0.000,0.000,0.000,0.000,0.000,0,2,0,3,7,255,1200,300,0,0,-89.341,0.933,-31.532
EX0521-092111,28,C04,prep,1012,1012,0,1339419.091,0.686,-0.675,0.197,0.188,0,0,0,0,0,0,0,0,0,0.000,0,0,0.049,0.004,-0.040,-0.020,0.020,0.016,0.993,0.012,0.004,0.002,0.000,0.000,0.000,0.000,0.000,0,2,0,3,7,255,1200,300,0,0,-89.341,0.933,-31.532
EX0521-092111,28,C04,prep,1012,1012,0,1339424.091,0.686,-0.675,0.197,0.188,0,0,0,0,0,0,0,0,0,0.000,0,0,0.098,0.011,0.080,0.040,-0.040,0.015,0.992,0.012,0.004,-0.010,0.000,0.000,0.000,0.000,0.000,0,2,0,3,7,255,1200,300,0,0,-89.341,0.933,-31.532
EX0521-092111,28,C04,prep,1023,1023,0,1339429.092,0.686,-0.675,0.197,0.188,0,0,0,0,0,0,0,0,0,0.000,0,0,0.060,0.011,-0.040,-0.020,-0.040,0.014,0.993,0.013,0.004,-0.010,0.000,0.000,0.000,0.000,0.000,0,2,0,3,7,255,1200,300,0,0,-89.341,0.933,-31.532
EX0521-092111,28,C04,prep,1023,1023,0,1339434.091,0.686,-0.675,0.197,0.188,0,0,0,0,0,0,0,0,0,0.000,0,0,0.049,0.010,0.020,-0.020,-0.040,0.014,0.992,0.013,-0.006,-0.008,-0.006,0.000,0.000,0.000,0.000,0,2,0,3,7,255,1200,300,0,0,-89.341,0.933,-31.532
EX0521-092111,28,C04,prep,1044,1044,0,1339439.091,0.686,-0.675,0.197,0.188,0,0,0,0,0,0,0,0,0,0.000,0,0,0.049,0.010,0.020,-0.020,-0.040,0.015,0.994,0.011,-0.006,-0.008,0.004,0.000,0.000,0.000,0.000,0,2,0,3,7,255,1200,300,0,0,-89.341,0.933,-31.532
EX0521-092111,28,C04,prep,1044,1044,0,1339444.091,0.686,-0.675,0.197,0.188,0,0,0,0,0,0,0,0,0,0.000,0,0,0.049,0.003,0.020,-0.020,-0.040,0.015,0.993,0.012,0.002,-0.002,0.000,0.000,0.000,0.000,0.000,0,2,0,3,7,255,1200,300,0,0,-89.341,0.933,-31.532
EX0521-092111,28,C04,prep,1044,1044,0,1339449.091,0.686,-0.675,0.197,0.188,0,0,0,0,0,0,0,0,0,0.000,0,0,0.035,0.003,0.020,-0.020,0.020,0.014,0.992,0.012,0.002,-0.002,0.000,0.000,0.000,0.000,0.000,0,2,0,3,7,255,1200,300,0,0,-89.341,0.933,-31.532
EX0521-092111,28,C04,prep,1044,1044,0,1339454.091,0.686,-0.675,0.197,0.188,0,0,0,0,0,0,0,0,0,0.000,0,0,0.049,0.004,0.020,-0.020,-0.040,0.014,0.992,0.012,-0.004,-0.002,-0.006,0.000,0.000,0.000,0.000,0,2,0,3,7,255,1200,300,0,0,-89.341,0.933,-31.532
EX0521-092111,28,C04,prep,1055,1055,0,1339459.091,0.686,-0.675,0.197,0.188,0,0,0,0,0,0,0,0,0,0.000,0,0,0.049,0.004,-0.040,-0.020,0.020,0.014,0.993,0.011,-0.004,0.002,-0.006,0.000,0.000,0.000,0.000,0,2,0,3,7,255,1200,300,0,0,-89.341,0.933,-31.532
EX0521-092111,28,C04,prep,1055,1055,0,1339464.091,0.686,-0.675,0.197,0.188,0,0,0,0,0,0,0,0,0,0.000,0,0,0.066,0.006,0.020,-0.020,-0.060,0.014,0.994,0.012,-0.006,0.002,0.000,0.000,0.000,0.000,0.000,0,2,0,3,7,255,1200,300,0,0,-89.341,0.933,-31.532
EX0521-092111,28,C04,prep,1081,1081,0,1339469.091,0.686,-0.675,0.197,0.188,0,0,0,0,0,0,0,0,0,0.000,0,0,0.035,0.002,0.020,-0.020,0.020,0.015,0.992,0.012,0.000,0.002,0.000,0.000,0.000,0.000,0.000,0,2,0,3,7,255,1200,300,0,0,-89.341,0.933,-31.532
EX0521-092111,28,C04,prep,1081,1081,0,1339474.091,0.686,-0.675,0.197,0.188,0,0,0,0,0,0,0,0,0,0.000,0,0,0.035,0.008,0.020,-0.020,0.020,0.014,0.993,0.013,-0.006,-0.006,0.000,0.000,0.000,0.000,0.000,0,2,0,3,7,255,1200,300,0,0,-89.341,0.933,-31.532
EX0521-092111,28,C04,prep,1088,1088,0,1339479.091,0.686,-0.675,0.197,0.188,0,0,0,0,0,0,0,0,0,0.000,0,0,0.035,0.007,0.020,-0.020,0.020,0.014,0.993,0.012,-0.004,-0.006,0.000,0.000,0.000,0.000,0.000,0,2,0,3,7,255,1200,300,0,0,-89.341,0.933,-31.532
EX0521-092111,28,C04,prep,1088,1088,0,1339484.091,0.686,-0.675,0.197,0.188,0,0,0,0,0,0,0,0,0,0.000,0,0,0.075,0.006,-0.040,-0.020,-0.060,0.014,0.992,0.011,-0.004,-0.004,0.000,0.000,0.000,0.000,0.000,0,2,0,3,7,255,1200,300,0,0,-89.341,0.933,-31.532
EX0521-092111,28,C04,prep,1089,1089,0,1339489.094,0.686,-0.675,0.197,0.188,0,0,0,0,0,0,0,0,0,0.000,0,0,0.035,0.004,0.020,-0.020,0.020,0.014,0.993,0.012,-0.004,0.002,0.000,0.000,0.000,0.000,0.000,0,2,0,3,7,255,1200,300,0,0,-89.341,0.933,-31.532
EX0521-092111,28,C04,prep,1089,1089,0,1339494.091,0.686,-0.675,0.197,0.188,0,0,0,0,0,0,0,0,0,0.000,0,0,0.035,0.006,0.020,-0.020,0.020,0.014,0.993,0.012,-0.006,0.002,0.004,0.000,0.000,0.000,0.000,0,2,0,3,7,255,1200,300,0,0,-89.341,0.933,-31.532
EX0521-092111,28,C04,prep,1089,1089,0,1339499.091,0.686,-0.675,0.197,0.188,0,0,0,0,0,0,0,0,0,0.000,0,0,0.049,0.006,-0.040,-0.020,0.020,0.013,0.993,0.011,-0.006,0.002,0.004,0.000,0.000,0.000,0.000,0,2,0,3,7,255,1200,300,0,0,-89.341,0.933,-31.532
EX0521-092111,28,C04,prep,1089,1089,0,1339504.091,0.686,-0.675,0.197,0.188,0,0,0,0,0,0,0,0,0,0.000,0,0,0.049,0.007,-0.040,-0.020,0.020,0.013,0.993,0.012,-0.006,0.004,0.000,0.000,0.000,0.000,0.000,0,2,0,3,7,255,1200,300,0,0,-89.341,0.933,-31.532
EX0521-092111,28,C04,prep,1116,1116,0,1339509.091,0.686,-0.675,0.197,0.188,0,0,0,0,0,0,0,0,0,0.000,0,0,0.060,0.007,-0.040,-0.020,-0.040,0.015,0.993,0.012,-0.006,0.004,0.000,0.000,0.000,0.000,0.000,0,2,0,3,7,255,1200,300,0,0,-89.341,0.933,-31.532
EX0521-092111,28,C04,prep,1116,1116,0,1339514.091,0.686,-0.675,0.197,0.188,0,0,0,0,0,0,0,0,0,0.000,0,0,0.060,0.002,-0.040,-0.020,-0.040,0.014,0.993,0.012,-0.002,0.000,0.000,0.000,0.000,0.000,0.000,0,2,0,3,7,255,1200,300,0,0,-89.341,0.933,-31.532
EX0521-092111,28,C04,prep,1117,1117,0,1339519.091,0.686,-0.675,0.197,0.188,0,0,0,0,0,0,0,0,0,0.000,0,0,0.035,0.006,0.020,-0.020,0.020,0.015,0.991,0.011,0.006,0.000,0.000,0.000,0.000,0.000,0.000,0,2,0,3,7,255,1200,300,0,0,-89.341,0.933,-31.532
EX0521-092111,28,C04,prep,1117,1117,0,1339524.091,0.686,-0.675,0.197,0.188,0,0,0,0,0,0,0,0,0,0.000,0,0,0.060,0.000,-0.040,0.040,0.020,0.015,0.992,0.012,0.000,0.000,-0.006,0.000,0.000,0.000,0.000,0,2,0,3,7,255,1200,300,0,0,-89.341,0.933,-31.532
EX0521-092111,28,C04,prep,1117,1117,0,1339529.092,0.686,-0.675,0.197,0.188,0,0,0,0,0,0,0,0,0,0.000,0,0,0.049,0.008,-0.040,-0.020,0.020,0.015,0.993,0.012,0.006,-0.006,-0.006,0.000,0.000,0.000,0.000,0,2,0,3,7,255,1200,300,0,0,-89.341,0.933,-31.532
EX0521-092111,28,C04,prep,1117,1117,0,1339534.091,0.686,-0.675,0.197,0.188,0,0,0,0,0,0,0,0,0,0.000,0,0,0.035,0.008,0.020,-0.020,0.020,0.015,0.993,0.011,0.006,-0.006,0.000,0.000,0.000,0.000,0.000,0,2,0,3,7,255,1200,300,0,0,-89.341,0.933,-31.532
EX0521-092111,28,C04,prep,1149,1149,0,1339539.091,0.686,-0.675,0.197,0.188,0,0,0,0,0,0,0,0,0,0.000,0,0,0.049,0.008,0.020,-0.020,-0.040,0.015,0.992,0.012,0.006,-0.006,0.000,0.000,0.000,0.000,0.000,0,2,0,3,7,255,1200,300,0,0,-89.341,0.933,-31.532
EX0521-092111,28,C04,prep,1149,1149,0,1339544.091,0.686,-0.675,0.197,0.188,0,0,0,0,0,0,0,0,0,0.000,0,0,0.035,0.008,0.020,-0.020,0.020,0.015,0.993,0.012,0.006,-0.006,0.000,0.000,0.000,0.000,0.000,0,2,0,3,7,255,1200,300,0,0,-89.341,0.933,-31.532
EX0521-092111,28,C04,prep,1149,1149,0,1339549.091,0.686,-0.675,0.197,0.188,0,0,0,0,0,0,0,0,0,0.000,0,0,0.035,0.006,0.020,-0.020,0.020,0.014,0.993,0.012,0.000,-0.006,0.000,0.000,0.000,0.000,0.000,0,2,0,3,7,255,1200,300,0,0,-89.341,0.933,-31.532
EX0521-092111,28,C04,prep,1149,1149,0,1339554.091,0.686,-0.675,0.197,0.188,0,0,0,0,0,0,0,0,0,0.000,0,0,0.035,0.006,0.020,-0.020,0.020,0.014,0.992,0.012,-0.004,-0.004,0.000,0.000,0.000,0.000,0.000,0,2,0,3,7,255,1200,300,0,0,-89.341,0.933,-31.532
EX0521-092111,28,C04,prep,1150,1150,0,1339559.094,0.686,-0.675,0.197,0.188,0,0,0,0,0,0,0,0,0,0.000,0,0,0.060,0.004,-0.040,-0.020,-0.040,0.014,0.993,0.012,-0.004,0.000,0.000,0.000,0.000,0.000,0.000,0,2,0,3,7,255,1200,300,0,0,-89.341,0.933,-31.532
EX0521-092111,28,C04,prep,1150,1150,0,1339564.091,0.686,-0.675,0.197,0.188,0,0,0,0,0,0,0,0,0,0.000,0,0,0.035,0.002,0.020,-0.020,0.020,0.016,0.993,0.011,-0.002,0.000,0.000,0.000,0.000,0.000,0.000,0,2,0,3,7,255,1200,300,0,0,-89.341,0.933,-31.532
EX0521-092111,28,C04,prep,1171,1171,0,1339569.091,0.686,-0.675,0.197,0.188,0,0,0,0,0,0,0,0,0,0.000,0,0,0.035,0.002,0.020,-0.020,0.020,0.014,0.993,0.012,-0.002,0.000,0.000,0.000,0.000,0.000,0.000,0,2,0,3,7,255,1200,300,0,0,-89.341,0.933,-31.532
EX0521-092111,28,C04,prep,1171,1171,0,1339574.091,0.686,-0.675,0.197,0.188,0,0,0,0,0,0,0,0,0,0.000,0,0,0.049,0.003,0.020,-0.020,-0.040,0.014,0.993,0.011,0.002,0.002,0.000,0.000,0.000,0.000,0.000,0,2,0,3,7,255,1200,300,0,0,-89.341,0.933,-31.532
EX0521-092111,28,C04,prep,1211,1211,0,1339579.091,0.686,-0.675,0.197,0.188,0,0,0,0,0,0,0,0,0,0.000,0,0,0.035,0.004,0.020,-0.020,0.020,0.014,0.992,0.011,-0.002,0.004,0.000,0.000,0.000,0.000,0.000,0,2,0,3,7,255,1200,300,0,0,-89.341,0.933,-31.532
EX0521-092111,28,C04,prep,1211,1211,0,1339584.091,0.686,-0.675,0.197,0.188,0,0,0,0,0,0,0,0,0,0.000,0,0,0.049,0.004,0.020,-0.020,-0.040,0.014,0.991,0.012,-0.002,0.004,-0.006,0.000,0.000,0.000,0.000,0,2,0,3,7,255,1200,300,0,0,-89.341,0.933,-31.532
EX0521-092111,28,C04,prep,1211,1211,0,1339589.093,0.686,-0.675,0.197,0.188,0,0,0,0,0,0,0,0,0,0.000,0,0,0.035,0.003,0.020,-0.020,0.020,0.015,0.993,0.011,-0.002,0.002,-0.006,0.000,0.000,0.000,0.000,0,2,0,3,7,255,1200,300,0,0,-89.341,0.933,-31.532
EX0521-092111,28,C04,prep,1211,1211,0,1339594.091,0.686,-0.675,0.197,0.188,0,0,0,0,0,0,0,0,0,0.000,0,0,0.035,0.006,0.020,-0.020,0.020,0.015,0.993,0.011,0.006,0.002,0.000,0.000,0.000,0.000,0.000,0,2,0,3,7,255,1200,300,0,0,-89.341,0.933,-31.532
EX0521-092111,28,C04,prep,1212,1212,0,1339599.091,0.686,-0.675,0.197,0.188,0,0,0,0,0,0,0,0,0,0.000,0,0,0.049,0.006,-0.040,-0.020,0.020,0.014,0.994,0.012,0.006,0.002,0.000,0.000,0.000,0.000,0.000,0,2,0,3,7,255,1200,300,0,0,-89.341,0.933,-31.532
EX0521-092111,28,C04,prep,1212,1212,0,1339604.091,0.686,-0.675,0.197,0.188,0,0,0,0,0,0,0,0,0,0.000,0,0,0.049,0.004,0.020,-0.020,-0.040,0.013,0.992,0.012,-0.004,0.002,0.000,0.000,0.000,0.000,0.000,0,2,0,3,7,255,1200,300,0,0,-89.341,0.933,-31.532
EX0521-092111,28,C04,prep,1212,1212,0,1339609.092,0.686,-0.675,0.197,0.188,0,0,0,0,0,0,0,0,0,0.000,0,0,0.066,0.006,0.020,-0.020,-0.060,0.015,0.993,0.012,-0.004,-0.004,0.004,0.000,0.000,0.000,0.000,0,2,0,3,7,255,1200,300,0,0,-89.341,0.933,-31.532
EX0521-092111,28,C04,prep,1212,1212,0,1339614.092,0.686,-0.675,0.197,0.188,0,0,0,0,0,0,0,0,0,0.000,0,0,0.028,0.006,0.020,-0.020,0.000,0.014,0.993,0.012,-0.006,0.002,0.000,0.000,0.000,0.000,0.000,0,2,0,3,7,255,1200,300,0,0,-89.341,0.933,-31.532
EX0521-092111,28,C04,prep,1213,1213,0,1339619.092,0.686,-0.675,0.197,0.188,0,0,0,0,0,0,0,0,0,0.000,0,0,0.045,0.006,0.020,0.040,0.000,0.015,0.992,0.013,-0.002,-0.006,0.000,0.000,0.000,0.000,0.000,0,2,0,3,7,255,1200,300,0,0,-89.341,0.933,-31.532
EX0521-092111,28,C04,prep,1213,1213,0,1339624.092,0.686,-0.675,0.197,0.188,0,0,0,0,0,0,0,0,0,0.000,0,0,0.045,0.002,-0.040,-0.020,0.000,0.014,0.992,0.012,-0.002,0.000,-0.010,0.000,0.000,0.000,0.000,0,2,0,3,7,255,1200,300,0,0,-89.341,0.933,-31.532
EX0521-092111,28,C04,prep,1231,1231,0,1339629.092,0.686,-0.675,0.197,0.188,0,0,0,0,0,0,0,0,0,0.000,0,0,0.075,0.002,-0.040,-0.020,-0.060,0.014,0.992,0.012,-0.002,0.000,-0.010,0.000,0.000,0.000,0.000,0,2,0,3,7,255,1200,300,0,0,-89.341,0.933,-31.532
EX0521-092111,28,C04,prep,1231,1231,0,1339634.092,0.686,-0.675,0.197,0.188,0,0,0,0,0,0,0,0,0,0.000,0,0,0.066,0.002,0.020,-0.020,-0.060,0.013,0.993,0.012,-0.002,0.000,-0.004,0.000,0.000,0.000,0.000,0,2,0,3,7,255,1200,300,0,0,-89.341,0.933,-31.532
EX0521-092111,28,C04,prep,1231,1231,0,1339639.092,0.686,-0.675,0.197,0.188,0,0,0,0,0,0,0,0,0,0.000,0,0,0.028,0.002,0.020,-0.020,0.000,0.015,0.991,0.013,-0.002,0.000,-0.004,0.000,0.000,0.000,0.000,0,2,0,3,7,255,1200,300,0,0,-89.341,0.933,-31.532
EX0521-092111,28,C04,prep,1231,1231,0,1339644.092,0.686,-0.675,0.197,0.188,0,0,0,0,0,0,0,0,0,0.000,0,0,0.075,0.004,-0.040,-0.020,-0.060,0.014,0.992,0.011,-0.002,0.004,-0.004,0.000,0.000,0.000,0.000,0,2,0,3,7,255,1200,300,0,0,-89.341,0.933,-31.532
EX0521-092111,28,C04,prep,1247,1247,0,1339649.092,0.686,-0.675,0.197,0.188,0,0,0,0,0,0,0,0,0,0.000,0,0,0.082,0.010,0.080,-0.020,0.000,0.013,0.992,0.011,-0.002,0.010,-0.010,0.000,0.000,0.000,0.000,0,2,0,3,7,255,1200,300,0,0,-89.341,0.933,-31.532
EX0521-092111,28,C04,prep,1247,1247,0,1339654.092,0.686,-0.675,0.197,0.188,0,0,0,0,0,0,0,0,0,0.000,0,0,0.045,0.011,-0.040,-0.020,0.000,0.014,0.993,0.013,-0.004,0.010,-0.004,0.000,0.000,0.000,0.000,0,2,0,3,7,255,1200,300,0,0,-89.341,0.933,-31.532
EX0521-092111,28,C04,prep,1263,1263,0,1339659.092,0.686,-0.675,0.197,0.188,0,0,0,0,0,0,0,0,0,0.000,0,0,0.060,0.009,-0.040,-0.020,-0.040,0.014,0.992,0.011,-0.004,0.008,-0.004,0.000,0.000,0.000,0.000,0,2,0,3,7,255,1200,300,0,0,-89.341,0.933,-31.532
EX0521-092111,28,C04,prep,1263,1263,0,1339664.092,0.686,-0.675,0.197,0.188,0,0,0,0,0,0,0,0,0,0.000,0,0,0.035,0.004,0.020,-0.020,0.020,0.015,0.992,0.011,0.004,0.002,-0.004,0.000,0.000,0.000,0.000,0,2,0,3,7,255,1200,300,0,0,-89.341,0.933,-31.532
EX0521-092111,28,C04,prep,1263,1263,0,1339669.092,0.686,-0.675,0.197,0.188,0,0,0,0,0,0,0,0,0,0.000,0,0,0.049,0.006,0.020,-0.020,-0.040,0.014,0.992,0.011,0.004,0.004,-0.004,0.000,0.000,0.000,0.000,0,2,0,3,7,255,1200,300,0,0,-89.341,0.933,-31.532
EX0521-092111,28,C04,prep,1263,1263,0,1339674.092,0.686,-0.675,0.197,0.188,0,0,0,0,0,0,0,0,0,0.000,0,0,0.035,0.003,0.020,-0.020,0.020,0.014,0.994,0.012,0.002,0.002,-0.004,0.000,0.000,0.000,0.000,0,2,0,3,7,255,1200,300,0,0,-89.341,0.933,-31.532
EX0521-092111,28,C04,prep,1295,1295,0,1339679.092,0.686,-0.675,0.197,0.188,0,0,0,0,0,0,0,0,0,0.000,0,0,0.049,0.003,0.020,-0.020,-0.040,0.016,0.993,0.012,0.002,0.002,0.006,0.000,0.000,0.000,0.000,0,2,0,3,7,255,1200,300,0,0,-89.341,0.933,-31.532
EX0521-092111,28,C04,prep,1295,1295,0,1339684.092,0.686,-0.675,0.197,0.188,0,0,0,0,0,0,0,0,0,0.000,0,0,0.092,0.010,0.080,-0.020,-0.040,0.014,0.992,0.013,-0.006,-0.008,0.006,0.000,0.000,0.000,0.000,0,2,0,3,7,255,1200,300,0,0,-89.341,0.933,-31.532
EX0521-092111,28,C04,prep,1314,1314,0,1339689.093,0.686,-0.675,0.197,0.188,0,0,0,0,0,0,0,0,0,0.000,0,0,0.035,0.013,0.020,-0.020,0.020,0.015,0.993,0.011,0.010,-0.008,0.000,0.000,0.000,0.000,0.000,0,2,0,3,7,255,1200,300,0,0,-89.341,0.933,-31.532
EX0521-092111,28,C04,prep,1314,1314,0,1339694.092,0.686,-0.675,0.197,0.188,0,0,0,0,0,0,0,0,0,0.000,0,0,0.049,0.009,0.020,0.040,0.020,0.015,0.993,0.012,0.004,-0.008,0.000,0.000,0.000,0.000,0.000,0,2,0,3,7,255,1200,300,0,0,-89.341,0.933,-31.532
EX0521-092111,28,C04,prep,1315,1315,0,1339699.092,0.686,-0.675,0.197,0.188,0,0,0,0,0,0,0,0,0,0.000,0,0,0.060,0.004,-0.040,-0.020,-0.040,0.014,0.993,0.011,0.004,-0.002,0.004,0.000,0.000,0.000,0.000,0,2,0,3,7,255,1200,300,0,0,-89.341,0.933,-31.532
EX0521-092111,28,C04,prep,1315,1315,0,1339704.092,0.686,-0.675,0.197,0.188,0,0,0,0,0,0,0,0,0,0.000,0,0,0.049,0.006,-0.040,-0.020,0.020,0.015,0.993,0.011,0.004,0.004,0.004,0.000,0.000,0.000,0.000,0,2,0,3,7,255,1200,300,0,0,-89.341,0.933,-31.532
EX0521-092111,28,C04,prep,1316,1316,0,1339709.092,0.686,-0.675,0.197,0.188,0,0,0,0,0,0,0,0,0,0.000,0,0,0.049,0.006,-0.040,-0.020,0.020,0.014,0.993,0.011,0.002,0.006,0.004,0.000,0.000,0.000,0.000,0,2,0,3,7,255,1200,300,0,0,-89.341,0.933,-31.532
EX0521-092111,28,C04,prep,1316,1316,0,1339714.092,0.686,-0.675,0.197,0.188,0,0,0,0,0,0,0,0,0,0.000,0,0,0.060,0.010,-0.040,-0.020,-0.040,0.015,0.994,0.011,0.008,0.006,0.004,0.000,0.000,0.000,0.000,0,2,0,3,7,255,1200,300,0,0,-89.341,0.933,-31.532
EX0521-092111,28,C04,prep,1316,1316,0,1339719.092,0.686,-0.675,0.197,0.188,0,0,0,0,0,0,0,0,0,0.000,0,0,0.085,0.006,0.080,-0.020,0.020,0.014,0.993,0.011,0.000,0.006,0.000,0.000,0.000,0.000,0.000,0,2,0,3,7,255,1200,300,0,0,-89.341,0.933,-31.532
EX0521-092111,28,C04,prep,1316,1316,0,1339724.092,0.686,-0.675,0.197,0.188,0,0,0,0,0,0,0,0,0,0.000,0,0,0.049,0.006,0.020,-0.020,-0.040,0.014,0.993,0.011,0.002,0.006,0.000,0.000,0.000,0.000,0.000,0,2,0,3,7,255,1200,300,0,0,-89.341,0.933,-31.532
EX0521-092111,28,C04,prep,1327,1327,0,1339729.092,0.686,-0.675,0.197,0.188,0,0,0,0,0,0,0,0,0,0.000,0,0,0.049,0.004,-0.040,-0.020,0.020,0.015,0.993,0.011,0.002,0.004,0.000,0.000,0.000,0.000,0.000,0,2,0,3,7,255,1200,300,0,0,-89.341,0.933,-31.532
EX0521-092111,28,C04,prep,1327,1327,0,1339734.092,0.686,-0.675,0.197,0.188,0,0,0,0,0,0,0,0,0,0.000,0,0,0.060,0.004,-0.040,-0.020,-0.040,0.015,0.992,0.012,0.004,0.002,0.000,0.000,0.000,0.000,0.000,0,2,0,3,7,255,1200,300,0,0,-89.341,0.933,-31.532
EX0521-092111,28,C04,prep,1327,1327,0,1339739.092,0.686,-0.675,0.197,0.188,0,0,0,0,0,0,0,0,0,0.000,0,0,0.092,0.011,0.020,-0.080,-0.040,0.015,0.992,0.013,0.004,-0.010,-0.004,0.000,0.000,0.000,0.000,0,2,0,3,7,255,1200,300,0,0,-89.341,0.933,-31.532
EX0521-092111,28,C04,prep,1327,1327,0,1339744.092,0.686,-0.675,0.197,0.188,0,0,0,0,0,0,0,0,0,0.000,0,0,0.060,0.011,-0.040,-0.020,-0.040,0.015,0.993,0.012,0.004,-0.010,-0.004,0.000,0.000,0.000,0.000,0,2,0,3,7,255,1200,300,0,0,-89.341,0.933,-31.532
EX0521-092111,28,C04,prep,1348,1348,0,1339749.092,0.686,-0.675,0.197,0.188,0,0,0,0,0,0,0,0,0,0.000,0,0,0.049,0.010,0.020,-0.020,-0.040,0.014,0.993,0.012,0.000,-0.010,0.000,0.000,0.000,0.000,0.000,0,2,0,3,7,255,1200,300,0,0,-89.341,0.933,-31.532
EX0521-092111,28,C04,prep,1348,1348,0,1339754.092,0.686,-0.675,0.197,0.188,0,0,0,0,0,0,0,0,0,0.000,0,0,0.035,0.003,0.020,-0.020,0.020,0.015,0.993,0.012,0.002,-0.002,0.004,0.000,0.000,0.000,0.000,0,2,0,3,7,255,1200,300,0,0,-89.341,0.933,-31.532
EX0521-092111,28,C04,prep,1349,1349,0,1339759.095,0.686,-0.675,0.197,0.188,0,0,0,0,0,0,0,0,0,0.000,0,0,0.104,0.003,-0.100,-0.020,0.020,0.014,0.993,0.012,-0.002,-0.002,0.004,0.000,0.000,0.000,0.000,0,2,0,3,7,255,1200,300,0,0,-89.341,0.933,-31.532
EX0521-092111,28,C04,prep,1349,1349,0,1339764.092,0.686,-0.675,0.197,0.188,0,0,0,0,0,0,0,0,0,0.000,0,0,0.035,0.003,0.020,-0.020,0.020,0.015,0.993,0.012,0.002,-0.002,0.004,0.000,0.000,0.000,0.000,0,2,0,3,7,255,1200,300,0,0,-89.341,0.933,-31.532
EX0521-092111,28,C04,prep,1359,1359,0,1339769.092,0.686,-0.675,0.197,0.188,0,0,0,0,0,0,0,0,0,0.000,0,0,0.049,0.006,-0.040,-0.020,0.020,0.014,0.991,0.012,-0.006,-0.002,0.004,0.000,0.000,0.000,0.000,0,2,0,3,7,255,1200,300,0,0,-89.341,0.933,-31.532
EX0521-092111,28,C04,prep,1359,1359,0,1339774.092,0.686,-0.675,0.197,0.188,0,0,0,0,0,0,0,0,0,0.000,0,0,0.035,0.003,0.020,-0.020,0.020,0.015,0.993,0.012,0.002,-0.002,0.000,0.000,0.000,0.000,0.000,0,2,0,3,7,255,1200,300,0,0,-89.341,0.933,-31.532
EX0521-092111,28,C04,prep,1391,1391,0,1339779.092,0.686,-0.675,0.197,0.188,0,0,0,0,0,0,0,0,0,0.000,0,0,0.060,0.002,-0.040,0.040,0.020,0.013,0.994,0.010,0.000,0.002,0.000,0.000,0.000,0.000,0.000,0,2,0,3,7,255,1200,300,0,0,-89.341,0.933,-31.532
EX0521-092111,28,C04,prep,1391,1391,0,1339784.092,0.686,-0.675,0.197,0.188,0,0,0,0,0,0,0,0,0,0.000,0,0,0.060,0.012,-0.040,-0.020,-0.040,0.013,0.993,0.011,0.000,0.012,0.004,0.000,0.000,0.000,0.000,0,2,0,3,7,255,1200,300,0,0,-89.341,0.933,-31.532
EX0521-092111,28,C04,prep,1391,1391,0,1339789.093,0.686,-0.675,0.197,0.188,0,0,0,0,0,0,0,0,0,0.000,0,0,0.098,0.013,-0.040,-0.080,-0.040,0.014,0.993,0.012,-0.004,0.012,0.004,0.000,0.000,0.000,0.000,0,2,0,3,7,255,1200,300,0,0,-89.341,0.933,-31.532
EX0521-092111,28,C04,prep,1391,1391,0,1339794.092,0.686,-0.675,0.197,0.188,0,0,0,0,0,0,0,0,0,0.000,0,0,0.085,0.006,0.020,-0.080,0.020,0.015,0.990,0.012,-0.004,-0.004,0.000,0.000,0.000,0.000,0.000,0,2,0,3,7,255,1200,300,0,0,-89.341,0.933,-31.532
EX0521-092111,28,C04,prep,1391,1391,0,1339799.092,0.686,-0.675,0.197,0.188,0,0,0,0,0,0,0,0,0,0.000,0,0,0.060,0.004,-0.040,-0.020,-0.040,0.014,0.991,0.011,0.000,-0.004,-0.014,0.000,0.000,0.000,0.000,0,2,0,3,7,255,1200,300,0,0,-89.341,0.933,-31.532
EX0521-092111,28,C04,prep,1391,1391,0,1339804.092,0.686,-0.675,0.197,0.188,0,0,0,0,0,0,0,0,0,0.000,0,0,0.049,0.004,0.020,-0.020,-0.040,0.015,0.994,0.011,0.004,0.002,-0.014,0.000,0.000,0.000,0.000,0,2,0,3,7,255,1200,300,0,0,-89.341,0.933,-31.532
EX0521-092111,28,C04,prep,1413,1413,0,1339809.092,0.686,-0.675,0.197,0.188,0,0,0,0,0,0,0,0,0,0.000,0,0,0.035,0.002,0.020,-0.020,0.020,0.015,0.993,0.012,0.000,0.002,0.000,0.000,0.000,0.000,0.000,0,2,0,3,7,255,1200,300,0,0,-89.341,0.933,-31.532
EX0521-092111,28,C04,prep,1413,1413,0,1339814.092,0.686,-0.675,0.197,0.188,0,0,0,0,0,0,0,0,0,0.000,0,0,0.098,0.006,-0.040,-0.080,-0.040,0.015,0.992,0.012,0.000,-0.006,0.000,0.000,0.000,0.000,0.000,0,2,0,3,7,255,1200,300,0,0,-89.341,0.933,-31.532
EX0521-092111,28,C04,prep,1414,1414,0,1339819.092,0.686,-0.675,0.197,0.188,0,0,0,0,0,0,0,0,0,0.000,0,0,0.049,0.006,0.020,-0.020,-0.040,0.014,0.991,0.011,0.000,-0.006,-0.010,0.000,0.000,0.000,0.000,0,2,0,3,7,255,1200,300,0,0,-89.341,0.933,-31.532
EX0521-092111,28,C04,prep,1414,1414,0,1339824.092,0.686,-0.675,0.197,0.188,0,0,0,0,0,0,0,0,0,0.000,0,0,0.049,0.006,0.020,-0.020,-0.040,0.013,0.994,0.011,-0.002,0.006,-0.010,0.000,0.000,0.000,0.000,0,2,0,3,7,255,1200,300,0,0,-89.341,0.933,-31.532
EX0521-092111,28,C04,prep,1423,1423,0,1339829.092,0.686,-0.675,0.197,0.188,0,0,0,0,0,0,0,0,0,0.000,0,0,0.060,0.006,-0.040,-0.020,-0.040,0.015,0.995,0.012,-0.002,0.006,0.010,0.000,0.000,0.000,0.000,0,2,0,3,7,255,1200,300,0,0,-89.341,0.933,-31.532
EX0521-092111,28,C04,prep,1423,1423,0,1339834.092,0.686,-0.675,0.197,0.188,0,0,0,0,0,0,0,0,0,0.000,0,0,0.035,0.004,0.020,-0.020,0.020,0.013,0.993,0.012,-0.004,0.000,0.010,0.000,0.000,0.000,0.000,0,2,0,3,7,255,1200,300,0,0,-89.341,0.933,-31.532
EX0521-092111,28,C04,prep,1449,1449,0,1339839.092,0.686,-0.675,0.197,0.188,0,0,0,0,0,0,0,0,0,0.000,0,0,0.049,0.004,0.020,-0.020,-0.040,0.015,0.991,0.012,0.002,-0.004,0.004,0.000,0.000,0.000,0.000,0,2,0,3,7,255,1200,300,0,0,-89.341,0.933,-31.532
EX0521-092111,28,C04,prep,1449,1449,0,1339844.092,0.686,-0.675,0.197,0.188,0,0,0,0,0,0,0,0,0,0.000,0,0,0.049,0.007,0.020,-0.020,-0.040,0.014,0.991,0.013,-0.006,-0.004,-0.014,0.000,0.000,0.000,0.000,0,2,0,3,7,255,1200,300,0,0,-89.341,0.933,-31.532
EX0521-092111,28,C04,prep,1455,1455,0,1339849.091,0.686,-0.675,0.197,0.188,0,0,0,0,0,0,0,0,0,0.000,0,0,0.049,0.006,0.020,-0.020,-0.040,0.014,0.995,0.012,-0.004,-0.004,-0.014,0.000,0.000,0.000,0.000,0,2,0,3,7,255,1200,300,0,0,-89.341,0.933,-31.532
EX0521-092111,28,C04,prep,1455,1455,0,1339854.091,0.686,-0.675,0.197,0.188,0,0,0,0,0,0,0,0,0,0.000,0,0,0.035,0.007,0.020,-0.020,0.020,0.015,0.994,0.012,-0.004,-0.006,0.010,0.000,0.000,0.000,0.000,0,2,0,3,7,255,1200,300,0,0,-89.341,0.933,-31.532
EX0521-092111,28,C04,prep,1455,1455,0,1339859.092,0.686,-0.675,0.197,0.188,0,0,0,0,0,0,0,0,0,0.000,0,0,0.045,0.006,-0.040,-0.020,0.000,0.013,0.993,0.011,-0.004,-0.004,0.010,0.000,0.000,0.000,0.000,0,2,0,3,7,255,1200,300,0,0,-89.341,0.933,-31.532
EX0521-092111,28,C04,prep,1455,1455,0,1339864.091,0.686,-0.675,0.197,0.188,0,0,0,0,0,0,0,0,0,0.000,0,0,0.066,0.007,0.020,-0.020,-0.060,0.014,0.993,0.013,-0.004,-0.006,0.004,0.000,0.000,0.000,0.000,0,2,0,3,7,255,1200,300,0,0,-89.341,0.933,-31.532
EX0521-092111,28,C04,prep,1480,1480,0,1339869.091,0.686,-0.675,0.197,0.188,0,0,0,0,0,0,0,0,0,0.000,0,0,0.066,0.007,0.020,-0.020,-0.060,0.015,0.993,0.013,-0.004,-0.006,0.004,0.000,0.000,0.000,0.000,0,2,0,3,7,255,1200,300,0,0,-89.341,0.933,-31.532
EX0521-092111,28,C04,prep,1480,1480,0,1339874.091,0.686,-0.675,0.197,0.188,0,0,0,0,0,0,0,0,0,0.000,0,0,0.028,0.007,0.020,-0.020,0.000,0.014,0.993,0.011,-0.004,-0.006,0.000,0.000,0.000,0.000,0.000,0,2,0,3,7,255,1200,300,0,0,-89.341,0.934,-31.532
EX0521-092111,28,C04,prep,1514,1514,0,1339879.091,0.686,-0.675,0.197,0.188,0,0,0,0,0,0,0,0,0,0.000,0,0,0.075,0.004,-0.040,-0.020,-0.060,0.014,0.994,0.012,-0.004,0.002,0.004,0.000,0.000,0.000,0.000,0,2,0,3,7,255,1200,300,0,0,-89.341,0.934,-31.532
EX0521-092111,28,C04,prep,1514,1514,0,1339884.091,0.686,-0.675,0.197,0.188,0,0,0,0,0,0,0,0,0,0.000,0,0,0.075,0.002,-0.040,-0.020,-0.060,0.015,0.993,0.012,0.000,0.002,0.000,0.000,0.000,0.000,0.000,0,2,0,3,7,255,1200,300,0,0,-89.341,0.934,-31.532
EX0521-092111,28,C04,prep,1514,1514,0,1339889.094,0.686,-0.675,0.197,0.188,0,0,0,0,0,0,0,0,0,0.000,0,0,0.075,0.006,0.020,0.040,-0.060,0.014,0.993,0.013,-0.006,-0.002,0.000,0.000,0.000,0.000,0.000,0,2,0,3,7,255,1200,300,0,0,-89.341,0.934,-31.532
EX0521-092111,28,C04,prep,1514,1514,0,1339894.091,0.686,-0.675,0.197,0.188,0,0,0,0,0,0,0,0,0,0.000,0,0,0.082,0.002,0.080,-0.020,0.000,0.014,0.994,0.012,0.000,-0.002,0.000,0.000,0.000,0.000,0.000,0,2,0,3,7,255,1200,300,0,0,-89.341,0.934,-31.532
EX0521-092111,28,C04,prep,1514,1514,0,1339899.091,0.686,-0.675,0.197,0.188,0,0,0,0,0,0,0,0,0,0.000,0,0,0.066,0.002,0.020,-0.020,-0.060,0.014,0.993,0.011,-0.002,0.000,0.000,0.000,0.000,0.000,0.000,0,2,0,3,7,255,1200,300,0,0,-89.341,0.934,-31.532
EX0521-092111,28,C04,prep,1514,1514,0,1339904.091,0.686,-0.675,0.197,0.188,0,0,0,0,0,0,0,0,0,0.000,0,0,0.045,0.006,-0.040,-0.020,0.000,0.015,0.992,0.011,0.000,0.006,0.000,0.000,0.000,0.000,0.000,0,2,0,3,7,255,1200,300,0,0,-89.341,0.934,-31.532
EX0521-092111,28,C04,prep,1514,1514,0,1339909.091,0.686,-0.675,0.197,0.188,0,0,0,0,0,0,0,0,0,0.000,0,0,0.028,0.007,0.020,-0.020,0.000,0.015,0.993,0.012,0.004,0.006,0.000,0.000,0.000,0.000,0.000,0,2,0,3,7,255,1200,300,0,0,-89.341,0.934,-31.532
EX0521-092111,28,C04,prep,1514,1514,0,1339914.091,0.686,-0.675,0.197,0.188,0,0,0,0,0,0,0,0,0,0.000,0,0,0.066,0.009,0.020,-0.020,-0.060,0.015,0.993,0.012,0.008,-0.004,0.000,0.000,0.000,0.000,0.000,0,2,0,3,7,255,1200,300,0,0,-89.341,0.934,-31.532
EX0521-092111,28,C04,prep,1515,1515,0,1339919.091,0.686,-0.675,0.197,0.188,0,0,0,0,0,0,0,0,0,0.000,0,0,0.045,0.011,-0.040,-0.020,0.000,0.016,0.993,0.012,0.008,-0.008,0.004,0.000,0.000,0.000,0.000,0,2,0,3,7,255,1200,300,0,0,-89.341,0.934,-31.532
EX0521-092111,28,C04,prep,1515,1515,0,1339924.091,0.686,-0.675,0.197,0.188,0,0,0,0,0,0,0,0,0,0.000,0,0,0.075,0.009,-0.040,-0.020,-0.060,0.015,0.993,0.011,0.008,-0.004,0.004,0.000,0.000,0.000,0.000,0,2,0,3,7,255,1200,300,0,0,-89.341,0.934,-31.532
EX0521-092111,28,C04,prep,1516,1516,0,1339929.092,0.686,-0.675,0.197,0.188,0,0,0,0,0,0,0,0,0,0.000,0,0,0.028,0.006,0.020,-0.020,0.000,0.014,0.992,0.012,0.006,0.002,0.004,0.000,0.000,0.000,0.000,0,2,0,3,7,255,1200,300,0,0,-89.341,0.934,-31.532
EX0521-092111,28,C04,prep,1516,1516,0,1339934.091,0.686,-0.675,0.197,0.188,0,0,0,0,0,0,0,0,0,0.000,0,0,0.066,0.003,0.020,-0.020,-0.060,0.015,0.994,0.012,0.002,0.002,0.004,0.000,0.000,0.000,0.000,0,2,0,3,7,255,1200,300,0,0,-89.341,0.934,-31.532
EX0521-092111,28,C04,prep,1547,1547,0,1339939.091,0.686,-0.675,0.197,0.188,0,0,0,0,0,0,0,0,0,0.000,0,0,0.075,0.003,-0.040,-0.020,-0.060,0.015,0.994,0.012,0.002,-0.002,0.010,0.000,0.000,0.000,0.000,0,2,0,3,7,255,1200,300,0,0,-89.341,0.934,-31.532
EX0521-092111,28,C04,prep,1547,1547,0,1339944.091,0.686,-0.675,0.197,0.188,0,0,0,0,0,0,0,0,0,0.000,0,0,0.075,0.004,-0.040,-0.020,-0.060,0.014,0.993,0.011,0.004,-0.002,0.010,0.000,0.000,0.000,0.000,0,2,0,3,7,255,1200,300,0,0,-89.341,0.934,-31.532
EX0521-092111,28,C04,prep,1547,1547,0,1339949.091,0.686,-0.675,0.197,0.188,0,0,0,0,0,0,0,0,0,0.000,0,0,0.082,0.007,-0.040,0.040,-0.060,0.016,0.993,0.011,0.006,-0.004,0.000,0.000,0.000,0.000,0.000,0,2,0,3,7,255,1200,300,0,0,-89.341,0.934,-31.532
EX0521-092111,28,C04,prep,1547,1547,0,1339954.091,0.686,-0.675,0.197,0.188,0,0,0,0,0,0,0,0,0,0.000,0,0,0.108,0.010,-0.040,-0.100,0.000,0.015,0.993,0.011,0.010,0.000,0.000,0.000,0.000,0.000,0.000,0,2,0,3,7,255,1200,300,0,0,-89.341,0.934,-31.532
EX0521-092111,28,C04,prep,1551,1551,0,1339959.095,0.686,-0.675,0.197,0.188,0,0,0,0,0,0,0,0,0,0.000,0,0,0.035,0.010,0.020,-0.020,0.020,0.015,0.993,0.011,0.010,0.000,0.000,0.000,0.000,0.000,0.000,0,2,0,3,7,255,1200,300,0,0,-89.341,0.934,-31.532
EX0521-092111,28,C04,prep,1551,1551,0,1339964.091,0.686,-0.675,0.197,0.188,0,0,0,0,0,0,0,0,0,0.000,0,0,0.060,0.010,-0.040,0.040,0.020,0.014,0.993,0.011,0.010,0.000,0.000,0.000,0.000,0.000,0.000,0,2,0,3,7,255,1200,300,0,0,-89.341,0.934,-31.532
EX0521-092111,28,C04,prep,1601,1601,0,1339969.091,0.686,-0.675,0.197,0.188,0,0,0,0,0,0,0,0,0,0.000,0,0,0.104,0.000,0.020,-0.020,-0.100,0.014,0.994,0.012,0.000,0.000,0.004,0.000,0.000,0.000,0.000,0,2,0,3,7,255,1200,300,0,0,-89.341,0.934,-31.532
EX0521-092111,28,C04,prep,1601,1601,0,1339974.091,0.686,-0.675,0.197,0.188,0,0,0,0,0,0,0,0,0,0.000,0,0,0.060,0.002,-0.040,-0.020,-0.040,0.014,0.993,0.012,-0.002,0.000,0.004,0.000,0.000,0.000,0.000,0,2,0,3,7,255,1200,300,0,0,-89.341,0.934,-31.532
EX0521-092111,28,C04,prep,1602,1602,0,1339979.091,0.686,-0.675,0.197,0.188,0,0,0,0,0,0,0,0,0,0.000,0,0,0.049,0.006,-0.040,-0.020,0.020,0.014,0.992,0.012,-0.004,-0.004,0.004,0.000,0.000,0.000,0.000,0,2,0,3,7,255,1200,300,0,0,-89.341,0.934,-31.532
EX0521-092111,28,C04,prep,1602,1602,0,1339984.091,0.686,-0.675,0.197,0.188,0,0,0,0,0,0,0,0,0,0.000,0,0,0.035,0.002,0.020,-0.020,0.020,0.014,0.993,0.011,-0.002,0.000,0.000,0.000,0.000,0.000,0.000,0,2,0,3,7,255,1200,300,0,0,-89.341,0.934,-31.532
EX0521-092111,28,C04,prep,1615,1615,0,1339989.094,0.686,-0.675,0.197,0.188,0,0,0,0,0,0,0,0,0,0.000,0,0,0.092,0.004,-0.040,-0.020,0.080,0.014,0.994,0.012,-0.004,-0.002,0.000,0.000,0.000,0.000,0.000,0,2,0,3,7,255,1200,300,0,0,-89.341,0.934,-31.532
EX0521-092111,28,C04,prep,1615,1615,0,1339994.091,0.686,-0.675,0.197,0.188,0,0,0,0,0,0,0,0,0,0.000,0,0,0.060,0.006,0.020,0.040,-0.040,0.014,0.993,0.013,-0.006,-0.002,0.004,0.000,0.000,0.000,0.000,0,2,0,3,7,255,1200,300,0,0,-89.341,0.934,-31.532
EX0521-092111,28,C04,prep,1615,1615,0,1339999.091,0.686,-0.675,0.197,0.188,0,0,0,0,0,0,0,0,0,0.000,0,0,0.035,0.006,0.020,-0.020,0.020,0.014,0.994,0.012,-0.006,-0.002,0.008,0.000,0.000,0.000,0.000,0,2,0,3,7,255,1200,300,0,0,-89.341,0.934,-31.532
EX0521-092111,28,C04,prep,1615,1615,0,1340004.091,0.686,-0.675,0.197,0.188,0,0,0,0,0,0,0,0,0,0.000,0,0,0.098,0.008,-0.040,-0.080,-0.040,0.016,0.993,0.013,-0.002,-0.008,0.004,0.000,0.000,0.000,0.000,0,2,0,3,7,255,1200,300,0,0,-89.341,0.934,-31.532
EX0521-092111,28,C04,prep,1615,1615,0,1340009.092,0.686,-0.675,0.197,0.188,0,0,0,0,0,0,0,0,0,0.000,0,0,0.035,0.006,0.020,-0.020,0.020,0.015,0.993,0.011,0.006,0.000,0.004,0.000,0.000,0.000,0.000,0,2,0,3,7,255,1200,300,0,0,-89.341,0.934,-31.532
EX0521-092111,28,C04,prep,1615,1615,0,1340014.092,0.686,-0.675,0.197,0.188,0,0,0,0,0,0,0,0,0,0.000,0,0,0.085,0.006,0.020,-0.080,0.020,0.014,0.994,0.012,0.006,0.000,0.004,0.000,0.000,0.000,0.000,0,2,0,3,7,255,1200,300,0,0,-89.341,0.934,-31.532
EX0521-092111,28,C04,prep,1649,1649,0,1340019.092,0.686,-0.675,0.197,0.188,0,0,0,0,0,0,0,0,0,0.000,0,0,0.035,0.006,0.020,-0.020,0.020,0.016,0.993,0.012,0.006,0.000,0.004,0.000,0.000,0.000,0.000,0,2,0,3,7,255,1200,300,0,0,-89.341,0.934,-31.532
EX0521-092111,28,C04,prep,1649,1649,0,1340024.092,0.686,-0.675,0.197,0.188,0,0,0,0,0,0,0,0,0,0.000,0,0,0.035,0.000,0.020,-0.020,0.020,0.014,0.993,0.011,0.000,0.000,0.004,0.000,0.000,0.000,0.000,0,2,0,3,7,255,1200,300,0,0,-89.341,0.934,-31.532
EX0521-092111,28,C04,prep,1649,1649,0,1340029.092,0.686,-0.675,0.197,0.188,0,0,0,0,0,0,0,0,0,0.000,0,0,0.049,0.009,-0.040,-0.020,0.020,0.015,0.993,0.012,0.004,-0.008,0.004,0.000,0.000,0.000,0.000,0,2,0,3,7,255,1200,300,0,0,-89.341,0.934,-31.532
EX0521-092111,28,C04,prep,1649,1649,0,1340034.092,0.686,-0.675,0.197,0.188,0,0,0,0,0,0,0,0,0,0.000,0,0,0.060,0.006,-0.040,-0.020,-0.040,0.014,0.993,0.011,0.004,0.004,0.004,0.000,0.000,0.000,0.000,0,2,0,3,7,255,1200,300,0,0,-89.341,0.934,-31.532
EX0521-092111,28,C04,prep,1649,1649,0,1340039.092,0.686,-0.675,0.197,0.188,0,0,0,0,0,0,0,0,0,0.000,0,0,0.049,0.009,-0.040,-0.020,0.020,0.013,0.994,0.011,0.004,0.008,0.004,0.000,0.000,0.000,0.000,0,2,0,3,7,255,1200,300,0,0,-89.341,0.934,-31.532
EX0521-092111,28,C04,prep,1649,1649,0,1340044.092,0.686,-0.675,0.197,0.188,0,0,0,0,0,0,0,0,0,0.000,0,0,0.049,0.009,-0.040,-0.020,0.020,0.014,0.994,0.013,-0.004,0.008,0.008,0.000,0.000,0.000,0.000,0,2,0,3,7,255,1200,300,0,0,-89.341,0.934,-31.532
EX0521-092111,28,C04,prep,1650,1650,0,1340049.092,0.686,-0.675,0.197,0.188,0,0,0,0,0,0,0,0,0,0.000,0,0,0.049,0.004,0.020,0.040,0.020,0.014,0.993,0.012,-0.004,0.000,0.008,0.000,0.000,0.000,0.000,0,2,0,3,7,255,1200,300,0,0,-89.341,0.934,-31.532
EX0521-092111,28,C04,prep,1650,1650,0,1340054.092,0.686,-0.675,0.197,0.188,0,0,0,0,0,0,0,0,0,0.000,0,0,0.128,0.002,-0.040,-0.020,-0.120,0.014,0.993,0.012,-0.002,0.000,-0.002,0.000,0.000,0.000,0.000,0,2,0,3,7,255,1200,300,0,0,-89.341,0.934,-31.532
EX0521-092111,28,C04,prep,1651,1651,0,1340059.092,0.686,-0.675,0.197,0.188,0,0,0,0,0,0,0,0,0,0.000,0,0,0.035,0.002,0.020,-0.020,0.020,0.014,0.992,0.011,-0.002,0.000,-0.002,0.000,0.000,0.000,0.000,0,2,0,3,7,255,1200,300,0,0,-89.341,0.934,-31.532
EX0521-092111,28,C04,prep,1651,1651,0,1340064.093,0.686,-0.675,0.197,0.188,0,0,0,0,0,0,0,0,0,0.000,0,0,0.085,0.000,0.080,-0.020,0.020,0.015,0.993,0.012,0.000,0.000,-0.002,0.000,0.000,0.000,0.000,0,2,0,3,7,255,1200,300,0,0,-89.341,0.934,-31.532
EX0521-092111,28,C04,prep,1663,1663,0,1340069.092,0.686,-0.675,0.197,0.188,0,0,0,0,0,0,0,0,0,0.000,0,0,0.035,0.002,0.020,-0.020,0.020,0.014,0.993,0.012,0.000,0.002,0.000,0.000,0.000,0.000,0.000,0,2,0,3,7,255,1200,300,0,0,-89.341,0.934,-31.532
EX0521-092111,28,C04,prep,1663,1663,0,1340074.092,0.686,-0.675,0.197,0.188,0,0,0,0,0,0,0,0,0,0.000,0,0,0.075,0.003,-0.040,-0.020,-0.060,0.015,0.993,0.012,0.002,-0.002,0.004,0.000,0.000,0.000,0.000,0,2,0,3,7,255,1200,300,0,0,-89.341,0.934,-31.532
EX0521-092111,28,C04,prep,1695,1695,0,1340079.092,0.686,-0.675,0.197,0.188,0,0,0,0,0,0,0,0,0,0.000,0,0,0.066,0.002,0.020,-0.020,-0.060,0.015,0.993,0.012,0.000,-0.002,0.004,0.000,0.000,0.000,0.000,0,2,0,3,7,255,1200,300,0,0,-89.341,0.934,-31.532
EX0521-092111,28,C04,prep,1695,1695,0,1340084.092,0.686,-0.675,0.197,0.188,0,0,0,0,0,0,0,0,0,0.000,0,0,0.110,0.003,-0.040,-0.100,0.020,0.015,0.994,0.011,0.002,-0.002,0.004,0.000,0.000,0.000,0.000,0,2,0,3,7,255,1200,300,0,0,-89.341,0.934,-31.532
EX0521-092111,28,C04,prep,1695,1695,0,1340089.093,0.686,-0.675,0.197,0.188,0,0,0,0,0,0,0,0,0,0.000,0,0,0.118,0.002,-0.100,-0.020,-0.060,0.014,0.992,0.011,0.000,0.002,-0.002,0.000,0.000,0.000,0.000,0,2,0,3,7,255,1200,300,0,0,-89.341,0.934,-31.532
EX0521-092111,28,C04,prep,1695,1695,0,1340094.092,0.686,-0.675,0.197,0.188,0,0,0,0,0,0,0,0,0,0.000,0,0,0.049,0.004,-0.040,-0.020,0.020,0.014,0.992,0.012,-0.004,0.002,-0.006,0.000,0.000,0.000,0.000,0,2,0,3,7,255,1200,300,0,0,-89.341,0.934,-31.532
EX0521-092111,28,C04,prep,1695,1695,0,1340099.092,0.686,-0.675,0.197,0.188,0,0,0,0,0,0,0,0,0,0.000,0,0,0.049,0.004,-0.040,-0.020,0.020,0.014,0.993,0.012,-0.004,0.002,-0.006,0.000,0.000,0.000,0.000,0,2,0,3,7,255,1200,300,0,0,-89.341,0.934,-31.532
EX0521-092111,28,C04,prep,1695,1695,0,1340104.093,0.686,-0.675,0.197,0.188,0,0,0,0,0,0,0,0,0,0.000,0,0,0.075,0.004,0.020,0.040,-0.060,0.015,0.993,0.012,-0.004,-0.002,-0.002,0.000,0.000,0.000,0.000,0,2,0,3,7,255,1200,300,0,0,-89.341,0.934,-31.532
EX0521-092111,28,C04,prep,1715,1715,0,1340109.092,0.686,-0.675,0.197,0.188,0,0,0,0,0,0,0,0,0,0.000,0,0,0.066,0.003,0.020,-0.020,-0.060,0.015,0.994,0.011,0.002,-0.002,0.004,0.000,0.000,0.000,0.000,0,2,0,3,7,255,1200,300,0,0,-89.341,0.934,-31.532
EX0521-092111,28,C04,prep,1715,1715,0,1340114.092,0.686,-0.675,0.197,0.188,0,0,0,0,0,0,0,0,0,0.000,0,0,0.102,0.003,0.080,-0.020,-0.060,0.014,0.993,0.012,0.002,-0.002,0.004,0.000,0.000,0.000,0.000,0,2,0,3,7,255,1200,300,0,0,-89.341,0.934,-31.532
EX0521-092111,28,C04,prep,1716,1716,0,1340119.092,0.686,-0.675,0.197,0.188,0,0,0,0,0,0,0,0,0,0.000,0,0,0.075,0.006,-0.040,-0.020,-0.060,0.014,0.993,0.012,-0.006,0.002,-0.002,0.000,0.000,0.000,0.000,0,2,0,3,7,255,1200,300,0,0,-89.341,0.934,-31.532
EX0521-092111,28,C04,prep,1716,1716,0,1340124.092,0.686,-0.675,0.197,0.188,0,0,0,0,0,0,0,0,0,0.000,0,0,0.045,0.008,-0.040,-0.020,0.000,0.013,0.993,0.011,-0.008,0.002,-0.002,0.000,0.000,0.000,0.000,0,2,0,3,7,255,1200,300,0,0,-89.341,0.934,-31.532
EX0521-092111,28,C04,prep,1727,1727,0,1340129.092,0.686,-0.675,0.197,0.188,0,0,0,0,0,0,0,0,0,0.000,0,0,0.075,0.006,-0.040,-0.020,-0.060,0.015,0.992,0.013,-0.006,0.002,-0.002,0.000,0.000,0.000,0.000,0,2,0,3,7,255,1200,300,0,0,-89.341,0.934,-31.532
EX0521-092111,28,C04,prep,1727,1727,0,1340134.092,0.686,-0.675,0.197,0.188,0,0,0,0,0,0,0,0,0,0.000,0,0,0.075,0.010,-0.040,-0.020,-0.060,0.015,0.993,0.013,-0.002,-0.010,-0.002,0.000,0.000,0.000,0.000,0,2,0,3,7,255,1200,300,0,0,-89.341,0.934,-31.532
EX0521-092111,28,C04,prep,1747,1747,0,1340139.092,0.686,-0.675,0.197,0.188,0,0,0,0,0,0,0,0,0,0.000,0,0,0.045,0.010,-0.040,-0.020,0.000,0.015,0.993,0.011,-0.002,-0.010,-0.002,0.000,0.000,0.000,0.000,0,2,0,3,7,255,1200,300,0,0,-89.341,0.934,-31.532
EX0521-092111,28,C04,prep,1747,1747,0,1340144.092,0.686,-0.675,0.197,0.188,0,0,0,0,0,0,0,0,0,0.000,0,0,0.028,0.003,0.020,-0.020,0.000,0.014,0.992,0.012,-0.002,-0.002,-0.002,0.000,0.000,0.000,0.000,0,2,0,3,7,255,1200,300,0,0,-89.341,0.934,-31.532
EX0521-092111,28,C04,prep,1748,1748,0,1340149.092,0.686,-0.675,0.197,0.188,0,0,0,0,0,0,0,0,0,0.000,0,0,0.028,0.006,0.020,-0.020,0.000,0.013,0.994,0.011,-0.006,0.002,-0.002,0.000,0.000,0.000,0.000,0,2,0,3,7,255,1200,300,0,0,-89.341,0.934,-31.532
EX0521-092111,28,C04,prep,1748,1748,0,1340154.092,0.686,-0.675,0.197,0.188,0,0,0,0,0,0,0,0,0,0.000,0,0,0.028,0.006,0.020,-0.020,0.000,0.015,0.994,0.013,-0.006,-0.002,0.008,0.000,0.000,0.000,0.000,0,2,0,3,7,255,1200,300,0,0,-89.341,0.934,-31.532
EX0521-092111,28,C04,prep,1749,1749,0,1340159.093,0.686,-0.675,0.197,0.188,0,0,0,0,0,0,0,0,0,0.000,0,0,0.035,0.008,0.020,-0.020,0.020,0.014,0.993,0.011,0.002,0.008,0.008,0.000,0.000,0.000,0.000,0,2,0,3,7,255,1200,300,0,0,-89.341,0.934,-31.532
EX0521-092111,28,C04,prep,1749,1749,0,1340164.092,0.686,-0.675,0.197,0.188,0,0,0,0,0,0,0,0,0,0.000,0,0,0.049,0.010,0.020,-0.020,-0.040,0.015,0.994,0.013,0.002,-0.010,0.008,0.000,0.000,0.000,0.000,0,2,0,3,7,255,1200,300,0,0,-89.341,0.934,-31.532
EX0521-092111,28,C04,prep,1781,1781,0,1340169.092,0.686,-0.675,0.197,0.188,0,0,0,0,0,0,0,0,0,0.000,0,0,0.049,0.003,-0.040,-0.020,0.020,0.015,0.993,0.012,0.002,-0.002,0.004,0.000,0.000,0.000,0.000,0,2,0,3,7,255,1200,300,0,0,-89.341,0.934,-31.532
EX0521-092111,28,C04,prep,1781,1781,0,1340174.092,0.686,-0.675,0.197,0.188,0,0,0,0,0,0,0,0,0,0.000,0,0,0.049,0.003,0.020,-0.020,-0.040,0.014,0.993,0.012,-0.002,-0.002,0.004,0.000,0.000,0.000,0.000,0,2,0,3,7,255,1200,300,0,0,-89.341,0.934,-31.532
EX0521-092111,28,C04,prep,1824,1824,0,1340179.092,0.686,-0.675,0.197,0.188,0,0,0,0,0,0,0,0,0,0.000,0,0,0.035,0.002,0.020,-0.020,0.020,0.015,0.994,0.011,0.002,0.000,0.004,0.000,0.000,0.000,0.000,0,2,0,3,7,255,1200,300,0,0,-89.341,0.934,-31.532
EX0521-092111,28,C04,prep,1824,1824,0,1340184.091,0.686,-0.675,0.197,0.188,0,0,0,0,0,0,0,0,0,0.000,0,0,0.060,0.002,-0.040,-0.020,-0.040,0.015,0.992,0.013,0.002,0.000,0.004,0.000,0.000,0.000,0.000,0,2,0,3,7,255,1200,300,0,0,-89.341,0.934,-31.532
EX0521-092111,28,C04,prep,1824,1824,0,1340189.094,0.686,-0.675,0.197,0.188,0,0,0,0,0,0,0,0,0,0.000,0,0,0.049,0.002,-0.040,-0.020,0.020,0.014,0.994,0.011,0.002,0.000,0.008,0.000,0.000,0.000,0.000,0,2,0,3,7,255,1200,300,0,0,-89.341,0.934,-31.532
EX0521-092111,28,C04,prep,1824,1824,0,1340194.091,0.686,-0.675,0.197,0.188,0,0,0,0,0,0,0,0,0,0.000,0,0,0.069,0.004,-0.040,0.040,-0.040,0.014,0.992,0.012,0.002,-0.004,-0.010,0.000,0.000,0.000,0.000,0,2,0,3,7,255,1200,300,0,0,-89.341,0.934,-31.532
EX0521-092111,28,C04,prep,1824,1824,0,1340199.091,0.686,-0.675,0.197,0.188,0,0,0,0,0,0,0,0,0,0.000,0,0,0.049,0.003,-0.040,-0.020,0.020,0.015,0.992,0.012,0.002,-0.002,-0.010,0.000,0.000,0.000,0.000,0,2,0,3,7,255,1200,300,0,0,-89.341,0.934,-31.532
EX0521-092111,28,C04,prep,1824,1824,0,1340204.091,0.686,-0.675,0.197,0.188,0,0,0,0,0,0,0,0,0,0.000,0,0,0.092,0.003,0.080,-0.020,-0.040,0.015,0.992,0.012,0.002,-0.002,-0.010,0.000,0.000,0.000,0.000,0,2,0,3,7,255,1200,300,0,0,-89.341,0.934,-31.532
EX0521-092111,28,C04,prep,1824,1824,0,1340209.091,0.686,-0.675,0.197,0.188,0,0,0,0,0,0,0,0,0,0.000,0,0,0.069,0.003,-0.040,0.040,-0.040,0.015,0.992,0.012,0.002,-0.002,-0.010,0.000,0.000,0.000,0.000,0,2,0,3,7,255,1200,300,0,0,-89.341,0.934,-31.532
EX0521-092111,28,C04,prep,1824,1824,0,1340214.091,0.686,-0.675,0.197,0.188,0,0,0,0,0,0,0,0,0,0.000,0,0,0.049,0.003,-0.040,-0.020,0.020,0.014,0.994,0.011,0.002,-0.002,-0.006,0.000,0.000,0.000,0.000,0,2,0,3,7,255,1200,300,0,0,-89.341,0.934,-31.532
EX0521-092111,28,C04,prep,1826,1826,0,1340219.091,0.686,-0.675,0.197,0.188,0,0,0,0,0,0,0,0,0,0.000,0,0,0.035,0.008,0.020,-0.020,0.020,0.013,0.993,0.012,0.000,0.008,-0.002,0.000,0.000,0.000,0.000,0,2,0,3,7,255,1200,300,0,0,-89.341,0.934,-31.532
EX0521-092111,28,C04,prep,1826,1826,0,1340224.091,0.686,-0.675,0.197,0.188,0,0,0,0,0,0,0,0,0,0.000,0,0,0.035,0.008,0.020,-0.020,0.020,0.015,0.993,0.012,0.000,0.008,0.004,0.000,0.000,0.000,0.000,0,2,0,3,7,255,1200,300,0,0,-89.341,0.934,-31.532
EX0521-092111,28,C04,prep,1826,1826,0,1340229.092,0.686,-0.675,0.197,0.188,0,0,0,0,0,0,0,0,0,0.000,0,0,0.049,0.002,-0.040,-0.020,0.020,0.015,0.993,0.012,0.000,-0.002,0.004,0.000,0.000,0.000,0.000,0,2,0,3,7,255,1200,300,0,0,-89.341,0.934,-31.532
EX0521-092111,28,C04,prep,1826,1826,0,1340234.091,0.686,-0.675,0.197,0.188,0,0,0,0,0,0,0,0,0,0.000,0,0,0.069,0.003,-0.040,0.040,-0.040,0.015,0.994,0.012,0.002,-0.002,0.004,0.000,0.000,0.000,0.000,0,2,0,3,7,255,1200,300,0,0,-89.341,0.934,-31.532
EX0521-092111,28,C04,prep,1839,1839,0,1340239.091,0.686,-0.675,0.197,0.188,0,0,0,0,0,0,0,0,0,0.000,0,0,0.049,0.003,-0.040,-0.020,0.020,0.015,0.993,0.013,0.002,-0.002,0.004,0.000,0.000,0.000,0.000,0,2,0,3,7,255,1200,300,0,0,-89.341,0.934,-31.532
EX0521-092111,28,C04,prep,1839,1839,0,1340244.091,0.686,-0.675,0.197,0.188,0,0,0,0,0,0,0,0,0,0.000,0,0,0.035,0.003,0.020,-0.020,0.020,0.014,0.994,0.011,-0.002,-0.002,0.008,0.000,0.000,0.000,0.000,0,2,0,3,7,255,1200,300,0,0,-89.341,0.934,-31.532
EX0521-092111,28,C04,prep,1839,1839,0,1340249.091,0.686,-0.675,0.197,0.188,0,0,0,0,0,0,0,0,0,0.000,0,0,0.035,0.004,0.020,-0.020,0.020,0.014,0.993,0.012,-0.002,-0.004,0.004,0.000,0.000,0.000,0.000,0,2,0,3,7,255,1200,300,0,0,-89.341,0.934,-31.532
EX0521-092111,28,C04,prep,1839,1839,0,1340254.091,0.686,-0.675,0.197,0.188,0,0,0,0,0,0,0,0,0,0.000,0,0,0.049,0.006,0.020,-0.020,-0.040,0.014,0.993,0.012,-0.004,-0.004,0.004,0.000,0.000,0.000,0.000,0,2,0,3,7,255,1200,300,0,0,-89.341,0.934,-31.532
EX0521-092111,28,C04,prep,1854,1854,0,1340259.091,0.686,-0.675,0.197,0.188,0,0,0,0,0,0,0,0,0,0.000,0,0,0.035,0.006,0.020,-0.020,0.020,0.015,0.994,0.012,-0.004,-0.004,0.004,0.000,0.000,0.000,0.000,0,2,0,3,7,255,1200,300,0,0,-89.341,0.934,-31.532
EX0521-092111,28,C04,prep,1854,1854,0,1340264.091,0.686,-0.675,0.197,0.188,0,0,0,0,0,0,0,0,0,0.000,0,0,0.049,0.004,-0.040,-0.020,0.020,0.016,0.993,0.011,0.000,-0.004,0.004,0.000,0.000,0.000,0.000,0,2,0,3,7,255,1200,300,0,0,-89.341,0.934,-31.532
EX0521-092111,28,C04,prep,1874,1874,0,1340269.091,0.686,-0.675,0.197,0.188,0,0,0,0,0,0,0,0,0,0.000,0,0,0.049,0.003,0.020,0.040,0.020,0.014,0.992,0.010,0.002,-0.002,0.004,0.000,0.000,0.000,0.000,0,2,0,3,7,255,1200,300,0,0,-89.341,0.934,-31.532
EX0521-092111,28,C04,prep,1874,1874,0,1340274.091,0.686,-0.675,0.197,0.188,0,0,0,0,0,0,0,0,0,0.000,0,0,0.075,0.014,-0.040,-0.020,-0.060,0.015,0.993,0.010,0.010,0.010,-0.002,0.000,0.000,0.000,0.000,0,2,0,3,7,255,1200,300,0,0,-89.341,0.934,-31.532
EX0521-092111,28,C04,prep,1913,1913,0,1340279.091,0.686,-0.675,0.197,0.188,0,0,0,0,0,0,0,0,0,0.000,0,0,0.075,0.010,-0.040,-0.020,-0.060,0.014,0.993,0.012,0.002,0.010,-0.002,0.000,0.000,0.000,0.000,0,2,0,3,7,255,1200,300,0,0,-89.341,0.934,-31.532
EX0521-092111,28,C04,prep,1913,1913,0,1340284.091,0.686,-0.675,0.197,0.188,0,0,0,0,0,0,0,0,0,0.000,0,0,0.049,0.003,0.020,0.040,0.020,0.015,0.993,0.012,0.002,0.002,0.004,0.000,0.000,0.000,0.000,0,2,0,3,7,255,1200,300,0,0,-89.341,0.934,-31.532
EX0521-092111,28,C04,prep,1913,1913,0,1340289.093,0.686,-0.675,0.197,0.188,0,0,0,0,0,0,0,0,0,0.000,0,0,0.075,0.002,0.020,0.040,-0.060,0.014,0.994,0.012,-0.002,0.000,0.004,0.000,0.000,0.000,0.000,0,2,0,3,7,255,1200,300,0,0,-89.341,0.934,-31.532
EX0521-092111,28,C04,prep,1913,1913,0,1340294.092,0.686,-0.675,0.197,0.188,0,0,0,0,0,0,0,0,0,0.000,0,0,0.075,0.003,-0.040,-0.020,-0.060,0.014,0.994,0.013,-0.002,-0.002,0.008,0.000,0.000,0.000,0.000,0,2,0,3,7,255,1200,300,0,0,-89.341,0.934,-31.532
EX0521-092111,28,C04,prep,1913,1913,0,1340299.092,0.686,-0.675,0.197,0.188,0,0,0,0,0,0,0,0,0,0.000,0,0,0.035,0.006,0.020,-0.020,0.020,0.014,0.993,0.012,-0.004,-0.004,0.008,0.000,0.000,0.000,0.000,0,2,0,3,7,255,1200,300,0,0,-89.341,0.934,-31.532
EX0521-092111,28,C04,prep,1913,1913,0,1340304.092,0.686,-0.675,0.197,0.188,0,0,0,0,0,0,0,0,0,0.000,0,0,0.066,0.007,0.020,-0.020,-0.060,0.015,0.993,0.012,-0.004,-0.006,0.004,0.000,0.000,0.000,0.000,0,2,0,3,7,255,1200,300,0,0,-89.341,0.934,-31.532
EX0521-092111,28,C04,prep,1913,1913,0,1340309.092,0.686,-0.675,0.197,0.188,0,0,0,0,0,0,0,0,0,0.000,0,0,0.035,0.004,0.020,-0.020,0.020,0.014,0.993,0.011,-0.002,-0.004,0.004,0.000,0.000,0.000,0.000,0,2,0,3,7,255,1200,300,0,0,-89.341,0.934,-31.532
EX0521-092111,28,C04,prep,1913,1913,0,1340314.092,0.686,-0.675,0.197,0.188,0,0,0,0,0,0,0,0,0,0.000,0,0,0.035,0.006,0.020,-0.020,0.020,0.015,0.996,0.013,-0.002,-0.006,0.004,0.000,0.000,0.000,0.000,0,2,0,3,7,255,1200,300,0,0,-89.341,0.934,-31.532
EX0521-092111,28,C04,prep,1914,1914,0,1340319.092,0.686,-0.675,0.197,0.188,0,0,0,0,0,0,0,0,0,0.000,0,0,0.150,0.002,-0.040,-0.080,-0.120,0.014,0.993,0.012,-0.002,0.000,0.002,0.000,0.000,0.000,0.000,0,2,0,3,7,255,1200,300,0,0,-89.341,0.934,-31.532
EX0521-092111,28,C04,prep,1914,1914,0,1340324.092,0.686,-0.675,0.197,0.188,0,0,0,0,0,0,0,0,0,0.000,0,0,0.060,0.003,-0.040,-0.020,-0.040,0.014,0.992,0.012,-0.002,-0.002,0.002,0.000,0.000,0.000,0.000,0,2,0,3,7,255,1200,300,0,0,-89.341,0.934,-31.532
EX0521-092111,28,C04,prep,1919,1919,0,1340329.093,0.686,-0.675,0.197,0.188,0,0,0,0,0,0,0,0,0,0.000,0,0,0.049,0.003,-0.040,-0.020,0.020,0.015,0.992,0.012,-0.002,-0.002,-0.006,0.000,0.000,0.000,0.000,0,2,0,3,7,255,1200,300,0,0,-89.341,0.934,-31.532
EX0521-092111,28,C04,prep,1919,1919,0,1340334.092,0.686,-0.675,0.197,0.188,0,0,0,0,0,0,0,0,0,0.000,0,0,0.069,0.003,-0.040,0.040,-0.040,0.015,0.992,0.012,0.002,-0.002,-0.006,0.000,0.000,0.000,0.000,0,2,0,3,7,255,1200,300,0,0,-89.341,0.934,-31.532
EX0521-092111,28,C04,prep,1946,1946,0,1340339.092,0.686,-0.675,0.197,0.188,0,0,0,0,0,0,0,0,0,0.000,0,0,0.049,0.003,0.020,-0.020,-0.040,0.014,0.993,0.011,0.002,-0.002,-0.006,0.000,0.000,0.000,0.000,0,2,0,3,7,255,1200,300,0,0,-89.341,0.934,-31.532
EX0521-092111,28,C04,prep,1946,1946,0,1340344.092,0.686,-0.675,0.197,0.188,0,0,0,0,0,0,0,0,0,0.000,0,0,0.049,0.004,0.020,-0.020,-0.040,0.014,0.993,0.011,0.002,0.004,-0.002,0.000,0.000,0.000,0.000,0,2,0,3,7,255,1200,300,0,0,-89.341,0.934,-31.532
EX0521-092111,28,C04,prep,1948,1948,0,1340349.092,0.686,-0.675,0.197,0.188,0,0,0,0,0,0,0,0,0,0.000,0,0,0.060,0.004,-0.040,-0.020,-0.040,0.014,0.993,0.011,0.002,0.004,-0.002,0.000,0.000,0.000,0.000,0,2,0,3,7,255,1200,300,0,0,-89.341,0.934,-31.532
EX0521-092111,28,C04,prep,1948,1948,0,1340354.092,0.686,-0.675,0.197,0.188,0,0,0,0,0,0,0,0,0,0.000,0,0,0.092,0.004,-0.040,-0.080,0.020,0.014,0.993,0.012,0.002,0.004,-0.002,0.000,0.000,0.000,0.000,0,2,0,3,7,255,1200,300,0,0,-89.341,0.934,-31.532
EX0521-092111,28,C04,prep,1951,1951,0,1340359.095,0.686,-0.675,0.197,0.188,0,0,0,0,0,0,0,0,0,0.000,0,0,0.060,0.004,-0.040,-0.020,-0.040,0.014,0.994,0.012,-0.004,-0.002,0.002,0.000,0.000,0.000,0.000,0,2,0,3,7,255,1200,300,0,0,-89.341,0.934,-31.532
EX0521-092111,28,C04,prep,1951,1951,0,1340364.092,0.686,-0.675,0.197,0.188,0,0,0,0,0,0,0,0,0,0.000,0,0,0.049,0.004,0.020,-0.020,-0.040,0.015,0.993,0.011,-0.004,-0.002,0.002,0.000,0.000,0.000,0.000,0,2,0,3,7,255,1200,300,0,0,-89.341,0.934,-31.532
EX0521-092111,28,C04,prep,1979,1979,0,1340369.092,0.686,-0.675,0.197,0.188,0,0,0,0,0,0,0,0,0,0.000,0,0,0.049,0.006,0.020,-0.020,-0.040,0.015,0.994,0.011,0.006,0.000,0.008,0.000,0.000,0.000,0.000,0,2,0,3,7,255,1200,300,0,0,-89.341,0.934,-31.532
EX0521-092111,28,C04,prep,1979,1979,0,1340374.092,0.686,-0.675,0.197,0.188,0,0,0,0,0,0,0,0,0,0.000,0,0,0.060,0.006,-0.040,-0.020,-0.040,0.015,0.994,0.013,0.006,0.000,0.008,0.000,0.000,0.000,0.000,0,2,0,3,7,255,1200,300,0,0,-89.341,0.934,-31.532
EX0521-092111,28,C04,prep,2012,2012,0,1340379.092,0.686,-0.675,0.197,0.188,0,0,0,0,0,0,0,0,0,0.000,0,0,0.035,0.009,0.020,-0.020,0.020,0.015,0.993,0.012,0.004,-0.008,0.008,0.000,0.000,0.000,0.000,0,2,0,3,7,255,1200,300,0,0,-89.341,0.934,-31.532
EX0521-092111,28,C04,prep,2012,2012,0,1340384.092,0.686,-0.675,0.197,0.188,0,0,0,0,0,0,0,0,0,0.000,0,0,0.085,0.009,0.020,-0.080,0.020,0.015,0.994,0.012,0.004,-0.008,0.008,0.000,0.000,0.000,0.000,0,2,0,3,7,255,1200,300,0,0,-89.341,0.934,-31.532
EX0521-092111,28,C04,prep,2012,2012,0,1340389.095,0.686,-0.675,0.197,0.188,0,0,0,0,0,0,0,0,0,0.000,0,0,0.049,0.009,-0.040,-0.020,0.020,0.014,0.993,0.010,0.004,-0.008,0.002,0.000,0.000,0.000,0.000,0,2,0,3,7,255,1200,300,0,0,-89.341,0.934,-31.532
EX0521-092111,28,C04,prep,2012,2012,0,1340394.092,0.686,-0.675,0.197,0.188,0,0,0,0,0,0,0,0,0,0.000,0,0,0.035,0.008,0.020,-0.020,0.020,0.015,0.993,0.011,0.006,0.006,0.002,0.000,0.000,0.000,0.000,0,2,0,3,7,255,1200,300,0,0,-89.341,0.934,-31.532
EX0521-092111,28,C04,prep,2012,2012,0,1340399.092,0.686,-0.675,0.197,0.188,0,0,0,0,0,0,0,0,0,0.000,0,0,0.060,0.010,-0.040,-0.020,-0.040,0.015,0.993,0.011,0.008,0.006,0.002,0.000,0.000,0.000,0.000,0,2,0,3,7,255,1200,300,0,0,-89.341,0.934,-31.532
EX0521-092111,28,C04,prep,2012,2012,0,1340404.092,0.686,-0.675,0.197,0.188,0,0,0,0,0,0,0,0,0,0.000,0,0,0.035,0.008,0.020,-0.020,0.020,0.014,0.994,0.012,0.008,0.000,0.002,0.000,0.000,0.000,0.000,0,2,0,3,7,255,1200,300,0,0,-89.341,0.934,-31.532
EX0521-092111,28,C04,prep,2012,2012,0,1340409.092,0.686,-0.675,0.197,0.188,0,0,0,0,0,0,0,0,0,0.000,0,0,0.035,0.000,0.020,-0.020,0.020,0.014,0.993,0.011,0.000,0.000,0.002,0.000,0.000,0.000,0.000,0,2,0,3,7,255,1200,300,0,0,-89.341,0.934,-31.532
EX0521-092111,28,C04,prep,2012,2012,0,1340414.091,0.686,-0.675,0.197,0.188,0,0,0,0,0,0,0,0,0,0.000,0,0,0.092,0.004,0.020,0.040,0.080,0.014,0.994,0.011,0.000,0.004,0.012,0.000,0.000,0.000,0.000,0,2,0,3,7,255,1200,300,0,0,-89.341,0.934,-31.532
EX0521-092111,28,C04,prep,2014,2014,0,1340419.091,0.686,-0.675,0.197,0.188,0,0,0,0,0,0,0,0,0,0.000,0,0,0.066,0.006,0.020,-0.020,-0.060,0.014,0.993,0.011,0.000,0.006,0.002,0.000,0.000,0.000,0.000,0,2,0,3,7,255,1200,300,0,0,-89.341,0.934,-31.532
EX0521-092111,28,C04,prep,2014,2014,0,1340424.091,0.686,-0.675,0.197,0.188,0,0,0,0,0,0,0,0,0,0.000,0,0,0.035,0.006,0.020,-0.020,0.020,0.015,0.994,0.012,0.002,0.006,0.006,0.000,0.000,0.000,0.000,0,2,0,3,7,255,1200,300,0,0,-89.341,0.934,-31.532
EX0521-092111,28,C04,prep,2047,2047,0,1340429.092,0.686,-0.675,0.197,0.188,0,0,0,0,0,0,0,0,0,0.000,0,0,0.075,0.006,-0.040,-0.020,-0.060,0.014,0.994,0.012,-0.004,0.004,0.006,0.000,0.000,0.000,0.000,0,2,0,3,7,255,1200,300,0,0,-89.341,0.934,-31.532
EX0521-092111,28,C04,prep,2047,2047,0,1340434.091,0.686,-0.675,0.197,0.188,0,0,0,0,0,0,0,0,0,0.000,0,0,0.035,0.002,0.020,-0.020,0.020,0.014,0.994,0.012,-0.002,0.000,0.006,0.000,0.000,0.000,0.000,0,2,0,3,7,255,1200,300,0,0,-89.341,0.934,-31.532
EX0521-092111,28,C04,prep,2049,2049,0,1340439.091,0.686,-0.675,0.197,0.188,0,0,0,0,0,0,0,0,0,0.000,0,0,0.075,0.006,-0.040,-0.020,-0.060,0.014,0.993,0.012,-0.006,0.002,0.006,0.000,0.000,0.000,0.000,0,2,0,3,7,255,1200,300,0,0,-89.341,0.934,-31.532
EX0521-092111,28,C04,prep,2049,2049,0,1340444.091,0.686,-0.675,0.197,0.188,0,0,0,0,0,0,0,0,0,0.000,0,0,0.082,0.006,-0.040,0.040,-0.060,0.013,0.994,0.011,-0.006,0.002,0.006,0.000,0.000,0.000,0.000,0,2,0,3,7,255,1200,300,0,0,-89.341,0.934,-31.532
EX0521-092111,28,C04,prep,2050,2050,0,1340449.091,0.686,-0.675,0.197,0.188,0,0,0,0,0,0,0,0,0,0.000,0,0,0.035,0.006,0.020,-0.020,0.020,0.014,0.993,0.012,-0.006,0.002,0.002,0.000,0.000,0.000,0.000,0,2,0,3,7,255,1200,300,0,0,-89.341,0.934,-31.532
EX0521-092111,28,C04,prep,2050,2050,0,1340454.091,0.686,-0.675,0.197,0.188,0,0,0,0,0,0,0,0,0,0.000,0,0,0.035,0.008,0.020,-0.020,0.020,0.014,0.994,0.012,-0.008,0.000,0.006,0.000,0.000,0.000,0.000,0,2,0,3,7,255,1200,300,0,0,-89.341,0.934,-31.532
EX0521-092111,28,C04,prep,2050,2050,0,1340459.091,0.686,-0.675,0.197,0.188,0,0,0,0,0,0,0,0,0,0.000,0,0,0.102,0.002,0.080,-0.020,-0.060,0.015,0.994,0.011,-0.002,0.000,0.006,0.000,0.000,0.000,0.000,0,2,0,3,7,255,1200,300,0,0,-89.341,0.934,-31.532
EX0521-092111,28,C04,prep,2050,2050,0,1340464.091,0.686,-0.675,0.197,0.188,0,0,0,0,0,0,0,0,0,0.000,0,0,0.035,0.006,0.020,-0.020,0.020,0.014,0.993,0.012,-0.006,0.000,0.006,0.000,0.000,0.000,0.000,0,2,0,3,7,255,1200,300,0,0,-89.341,0.934,-31.532
EX0521-092111,28,C04,prep,2063,2063,0,1340469.091,0.686,-0.675,0.197,0.188,0,0,0,0,0,0,0,0,0,0.000,0,0,0.075,0.006,0.020,0.040,-0.060,0.014,0.993,0.012,-0.006,0.000,-0.004,0.000,0.000,0.000,0.000,0,2,0,3,7,255,1200,300,0,0,-89.341,0.934,-31.532
EX0521-092111,28,C04,prep,2063,2063,0,1340474.091,0.686,-0.675,0.197,0.188,0,0,0,0,0,0,0,0,0,0.000,0,0,0.035,0.006,0.020,-0.020,0.020,0.015,0.994,0.012,-0.006,-0.002,-0.004,0.000,0.000,0.000,0.000,0,2,0,3,7,255,1200,300,0,0,-89.341,0.934,-31.532
EX0521-092111,28,C04,prep,2095,2095,0,1340479.091,0.686,-0.675,0.197,0.188,0,0,0,0,0,0,0,0,0,0.000,0,0,0.049,0.004,-0.040,-0.020,0.020,0.014,0.993,0.012,-0.004,-0.002,0.002,0.000,0.000,0.000,0.000,0,2,0,3,7,255,1200,300,0,0,-89.341,0.934,-31.532
EX0521-092111,28,C04,prep,2095,2095,0,1340484.091,0.686,-0.675,0.197,0.188,0,0,0,0,0,0,0,0,0,0.000,0,0,0.035,0.003,0.020,-0.020,0.020,0.015,0.993,0.011,0.002,-0.002,0.002,0.000,0.000,0.000,0.000,0,2,0,3,7,255,1200,300,0,0,-89.341,0.934,-31.532
EX0521-092111,28,C04,prep,2095,2095,0,1340489.095,0.686,-0.675,0.197,0.188,0,0,0,0,0,0,0,0,0,0.000,0,0,0.102,0.003,0.020,-0.080,-0.060,0.014,0.995,0.011,0.002,0.002,0.002,0.000,0.000,0.000,0.000,0,2,0,3,7,255,1200,300,0,0,-89.341,0.934,-31.532
EX0521-092111,28,C04,prep,2095,2095,0,1340494.091,0.686,-0.675,0.197,0.188,0,0,0,0,0,0,0,0,0,0.000,0,0,0.075,0.003,-0.040,-0.020,-0.060,0.014,0.994,0.012,0.002,0.002,0.010,0.000,0.000,0.000,0.000,0,2,0,3,7,255,1200,300,0,0,-89.341,0.934,-31.532
EX0521-092111,28,C04,prep,2095,2095,0,1340499.092,0.686,-0.675,0.197,0.188,0,0,0,0,0,0,0,0,0,0.000,0,0,0.049,0.004,-0.040,-0.020,0.020,0.015,0.994,0.011,0.002,0.004,0.010,0.000,0.000,0.000,0.000,0,2,0,3,7,255,1200,300,0,0,-89.341,0.934,-31.532
EX0521-092111,28,C04,prep,2095,2095,0,1340504.091,0.686,-0.675,0.197,0.188,0,0,0,0,0,0,0,0,0,0.000,0,0,0.035,0.002,0.020,-0.020,0.020,0.014,0.993,0.012,-0.002,0.000,0.010,0.000,0.000,0.000,0.000,0,2,0,3,7,255,1200,300,0,0,-89.341,0.934,-31.532
EX0521-092111,28,C04,prep,2115,2115,0,1340509.092,0.686,-0.675,0.197,0.188,0,0,0,0,0,0,0,0,0,0.000,0,0,0.102,0.003,0.080,-0.020,-0.060,0.013,0.994,0.012,-0.002,0.002,0.006,0.000,0.000,0.000,0.000,0,2,0,3,7,255,1200,300,0,0,-89.341,0.934,-31.532
EX0521-092111,28,C04,prep,2115,2115,0,1340514.092,0.686,-0.675,0.197,0.188,0,0,0,0,0,0,0,0,0,0.000,0,0,0.066,0.003,0.020,-0.020,-0.060,0.014,0.993,0.011,-0.002,0.002,-0.004,0.000,0.000,0.000,0.000,0,2,0,3,7,255,1200,300,0,0,-89.341,0.934,-31.532
EX0521-092111,28,C04,prep,2116,2116,0,1340519.092,0.686,-0.675,0.197,0.188,0,0,0,0,0,0,0,0,0,0.000,0,0,0.035,0.004,0.020,-0.020,0.020,0.014,0.993,0.010,0.002,0.004,-0.004,0.000,0.000,0.000,0.000,0,2,0,3,7,255,1200,300,0,0,-89.341,0.934,-31.532
EX0521-092111,28,C04,prep,2116,2116,0,1340524.092,0.686,-0.675,0.197,0.188,0,0,0,0,0,0,0,0,0,0.000,0,0,0.049,0.004,-0.040,-0.020,0.020,0.015,0.992,0.013,0.002,0.004,-0.004,0.000,0.000,0.000,0.000,0,2,0,3,7,255,1200,300,0,0,-89.341,0.934,-31.532
EX0521-092111,28,C04,prep,2127,2127,0,1340529.093,0.686,-0.675,0.197,0.188,0,0,0,0,0,0,0,0,0,0.000,0,0,0.115,0.006,0.080,-0.080,0.020,0.015,0.993,0.012,0.000,-0.006,-0.004,0.000,0.000,0.000,0.000,0,2,0,3,7,255,1200,300,0,0,-89.341,0.934,-31.532
EX0521-092111,28,C04,prep,2127,2127,0,1340534.092,0.686,-0.675,0.197,0.188,0,0,0,0,0,0,0,0,0,0.000,0,0,0.066,0.006,0.020,-0.020,-0.060,0.014,0.994,0.012,-0.002,-0.006,0.002,0.000,0.000,0.000,0.000,0,2,0,3,7,255,1200,300,0,0,-89.341,0.934,-31.532
EX0521-092111,28,C04,prep,2147,2147,0,1340539.092,0.686,-0.675,0.197,0.188,0,0,0,0,0,0,0,0,0,0.000,0,0,0.066,0.002,0.020,-0.020,-0.060,0.013,0.994,0.012,-0.002,0.000,0.006,0.000,0.000,0.000,0.000,0,2,0,3,7,255,1200,300,0,0,-89.341,0.934,-31.532
EX0521-092111,28,C04,prep,2147,2147,0,1340544.092,0.686,-0.675,0.197,0.188,0,0,0,0,0,0,0,0,0,0.000,0,0,0.049,0.006,-0.040,-0.020,0.020,0.014,0.993,0.011,-0.002,0.006,0.006,0.000,0.000,0.000,0.000,0,2,0,3,7,255,1200,300,0,0,-89.341,0.934,-31.532
EX0521-092111,28,C04,prep,2147,2147,0,1340549.092,0.686,-0.675,0.197,0.188,0,0,0,0,0,0,0,0,0,0.000,0,0,0.102,0.007,0.080,-0.020,-0.060,0.014,0.993,0.012,-0.004,0.006,0.002,0.000,0.000,0.000,0.000,0,2,0,3,7,255,1200,300,0,0,-89.341,0.934,-31.532
EX0521-092111,28,C04,prep,2147,2147,0,1340554.092,0.686,-0.675,0.197,0.188,0,0,0,0,0,0,0,0,0,0.000,0,0,0.066,0.002,0.020,-0.020,-0.060,0.015,0.994,0.011,-0.002,0.000,0.002,0.000,0.000,0.000,0.000,0,2,0,3,7,255,1200,300,0,0,-89.341,0.934,-31.532
EX0521-092111,28,C04,prep,2148,2148,0,1340559.093,0.686,-0.675,0.197,0.188,0,0,0,0,0,0,0,0,0,0.000,0,0,0.060,0.004,-0.040,-0.020,-0.040,0.014,0.993,0.012,-0.004,0.000,0.002,0.000,0.000,0.000,0.000,0,2,0,3,7,255,1200,300,0,0,-89.341,0.934,-31.532
EX0521-092111,28,C04,prep,2148,2148,0,1340564.092,0.686,-0.675,0.197,0.188,0,0,0,0,0,0,0,0,0,0.000,0,0,0.060,0.004,-0.040,-0.020,-0.040,0.014,0.994,0.012,-0.004,0.000,0.006,0.000,0.000,0.000,0.000,0,2,0,3,7,255,1200,300,0,0,-89.341,0.934,-31.532
EX0521-092111,28,C04,prep,2159,2159,0,1340569.092,0.686,-0.675,0.197,0.188,0,0,0,0,0,0,0,0,0,0.000,0,0,0.049,0.006,0.020,0.040,0.020,0.014,0.994,0.012,-0.006,0.002,0.006,0.000,0.000,0.000,0.000,0,2,0,3,7,255,1200,300,0,0,-89.341,0.934,-31.532
EX0521-092111,28,C04,prep,2159,2159,0,1340574.092,0.686,-0.675,0.197,0.188,0,0,0,0,0,0,0,0,0,0.000,0,0,0.035,0.006,0.020,-0.020,0.020,0.014,0.993,0.012,-0.006,0.002,0.006,0.000,0.000,0.000,0.000,0,2,0,3,7,255,1200,300,0,0,-89.341,0.934,-31.532
EX0521-092111,28,C04,prep,2191,2191,0,1340579.092,0.686,-0.675,0.197,0.188,0,0,0,0,0,0,0,0,0,0.000,0,0,0.035,0.006,0.020,-0.020,0.020,0.014,0.993,0.012,-0.006,0.002,0.002,0.000,0.000,0.000,0.000,0,2,0,3,7,255,1200,300,0,0,-89.341,0.934,-31.532
EX0521-092111,28,C04,prep,2191,2191,0,1340584.092,0.686,-0.675,0.197,0.188,0,0,0,0,0,0,0,0,0,0.000,0,0,0.049,0.008,-0.040,-0.020,0.020,0.013,0.995,0.013,-0.008,-0.002,0.002,0.000,0.000,0.000,0.000,0,2,0,3,7,255,1200,300,0,0,-89.341,0.934,-31.532
EX0521-092111,28,C04,prep,2192,2192,0,1340589.093,0.686,-0.675,0.197,0.188,0,0,0,0,0,0,0,0,0,0.000,0,0,0.035,0.010,0.020,-0.020,0.020,0.015,0.994,0.013,-0.008,-0.006,0.010,0.000,0.000,0.000,0.000,0,2,0,3,7,255,1200,300,0,0,-89.341,0.934,-31.532
EX0521-092111,28,C04,prep,2192,2192,0,1340594.092,0.686,-0.675,0.197,0.188,0,0,0,0,0,0,0,0,0,0.000,0,0,0.060,0.006,-0.040,-0.020,-0.040,0.015,0.994,0.012,0.000,-0.006,0.010,0.000,0.000,0.000,0.000,0,2,0,3,7,255,1200,300,0,0,-89.341,0.934,-31.532
EX0521-092111,28,C04,prep,2192,2192,0,1340599.092,0.686,-0.675,0.197,0.188,0,0,0,0,0,0,0,0,0,0.000,0,0,0.049,0.006,0.020,-0.020,-0.040,0.015,0.994,0.011,0.002,-0.006,0.010,0.000,0.000,0.000,0.000,0,2,0,3,7,255,1200,300,0,0,-89.341,0.934,-31.532
EX0521-092111,28,C04,prep,2192,2192,0,1340604.092,0.686,-0.675,0.197,0.188,0,0,0,0,0,0,0,0,0,0.000,0,0,0.049,0.007,-0.040,-0.020,0.020,0.015,0.994,0.012,0.004,-0.006,0.006,0.000,0.000,0.000,0.000,0,2,0,3,7,255,1200,300,0,0,-89.341,0.934,-31.532
EX0521-092111,28,C04,prep,2223,2223,0,1340609.092,0.686,-0.675,0.197,0.188,0,0,0,0,0,0,0,0,0,0.000,0,0,0.066,0.006,0.020,-0.020,-0.060,0.014,0.993,0.012,0.004,-0.004,0.006,0.000,0.000,0.000,0.000,0,2,0,3,7,255,1200,300,0,0,-89.341,0.934,-31.532
EX0521-092111,28,C04,prep,2223,2223,0,1340614.092,0.686,-0.675,0.197,0.188,0,0,0,0,0,0,0,0,0,0.000,0,0,0.118,0.006,0.020,-0.100,-0.060,0.014,0.993,0.012,-0.004,-0.004,0.000,0.000,0.000,0.000,0.000,0,2,0,3,7,255,1200,300,0,0,-89.341,0.934,-31.532
EX0521-092111,28,C04,prep,2223,2223,0,1340619.091,0.686,-0.675,0.197,0.188,0,0,0,0,0,0,0,0,0,0.000,0,0,0.075,0.006,0.020,0.040,-0.060,0.014,0.992,0.011,-0.004,0.004,0.000,0.000,0.000,0.000,0.000,0,2,0,3,7,255,1200,300,0,0,-89.341,0.934,-31.532
EX0521-092111,28,C04,prep,2223,2223,0,1340624.091,0.686,-0.675,0.197,0.188,0,0,0,0,0,0,0,0,0,0.000,0,0,0.045,0.006,0.020,0.040,0.000,0.015,0.993,0.012,0.004,0.004,0.000,0.000,0.000,0.000,0.000,0,2,0,3,7,255,1200,300,0,0,-89.341,0.934,-31.532
EX0521-092111,28,C04,prep,2223,2223,0,1340629.092,0.686,-0.675,0.197,0.188,0,0,0,0,0,0,0,0,0,0.000,0,0,0.075,0.006,-0.040,-0.020,-0.060,0.015,0.993,0.011,0.006,0.002,0.000,0.000,0.000,0.000,0.000,0,2,0,3,7,255,1200,300,0,0,-89.341,0.934,-31.532
EX0521-092111,28,C04,prep,2223,2223,0,1340634.091,0.686,-0.675,0.197,0.188,0,0,0,0,0,0,0,0,0,0.000,0,0,0.075,0.007,-0.040,-0.020,-0.060,0.014,0.993,0.012,0.006,-0.004,0.000,0.000,0.000,0.000,0.000,0,2,0,3,7,255,1200,300,0,0,-89.341,0.934,-31.532
EX0521-092111,28,C04,prep,2248,2248,0,1340639.091,0.686,-0.675,0.197,0.188,0,0,0,0,0,0,0,0,0,0.000,0,0,0.066,0.004,0.020,-0.020,-0.060,0.014,0.994,0.012,-0.004,0.002,0.000,0.000,0.000,0.000,0.000,0,2,0,3,7,255,1200,300,0,0,-89.341,0.934,-31.532
EX0521-092111,28,C04,prep,2248,2248,0,1340644.091,0.686,-0.675,0.197,0.188,0,0,0,0,0,0,0,0,0,0.000,0,0,0.075,0.006,0.020,0.040,-0.060,0.014,0.993,0.011,-0.004,0.004,0.000,0.000,0.000,0.000,0.000,0,2,0,3,7,255,1200,300,0,0,-89.341,0.934,-31.532
EX0521-092111,28,C04,prep,2248,2248,0,1340649.091,0.686,-0.675,0.197,0.188,0,0,0,0,0,0,0,0,0,0.000,0,0,0.102,0.004,0.020,-0.100,0.000,0.015,0.994,0.012,0.002,0.004,0.006,0.000,0.000,0.000,0.000,0,2,0,3,7,255,1200,300,0,0,-89.341,0.934,-31.532
EX0521-092111,28,C04,prep,2248,2248,0,1340654.091,0.686,-0.675,0.197,0.188,0,0,0,0,0,0,0,0,0,0.000,0,0,0.045,0.004,-0.040,-0.020,0.000,0.014,0.994,0.012,0.002,-0.004,0.006,0.000,0.000,0.000,0.000,0,2,0,3,7,255,1200,300,0,0,-89.341,0.934,-31.532
EX0521-092111,28,C04,prep,2249,2249,0,1340659.091,0.686,-0.675,0.197,0.188,0,0,0,0,0,0,0,0,0,0.000,0,0,0.066,0.004,0.020,-0.020,-0.060,0.014,0.993,0.012,-0.002,-0.004,0.006,0.000,0.000,0.000,0.000,0,2,0,3,7,255,1200,300,0,0,-89.341,0.934,-31.532
EX0521-092111,28,C04,prep,2249,2249,0,1340664.091,0.686,-0.675,0.197,0.188,0,0,0,0,0,0,0,0,0,0.000,0,0,0.028,0.002,0.020,-0.020,0.000,0.015,0.994,0.011,-0.002,0.000,0.006,0.000,0.000,0.000,0.000,0,2,0,3,7,255,1200,300,0,0,-89.341,0.934,-31.532
EX0521-092111,28,C04,prep,2278,2278,0,1340669.091,0.686,-0.675,0.197,0.188,0,0,0,0,0,0,0,0,0,0.000,0,0,0.066,0.006,0.020,-0.020,-0.060,0.015,0.994,0.011,0.006,0.000,0.010,0.000,0.000,0.000,0.000,0,2,0,3,7,255,1200,300,0,0,-89.341,0.934,-31.532
EX0521-092111,28,C04,prep,2278,2278,0,1340674.091,0.686,-0.675,0.197,0.188,0,0,0,0,0,0,0,0,0,0.000,0,0,0.075,0.006,-0.040,-0.020,-0.060,0.013,0.994,0.011,0.006,0.002,0.010,0.000,0.000,0.000,0.000,0,2,0,3,7,255,1200,300,0,0,-89.341,0.934,-31.532
EX0521-092111,28,C04,prep,2322,2322,0,1340679.092,0.686,-0.675,0.197,0.188,0,0,0,0,0,0,0,0,0,0.000,0,0,0.082,0.006,-0.040,0.040,-0.060,0.015,0.994,0.011,0.006,0.002,0.010,0.000,0.000,0.000,0.000,0,2,0,3,7,255,1200,300,0,0,-89.341,0.934,-31.532
EX0521-092111,28,C04,prep,2322,2322,0,1340684.091,0.686,-0.675,0.197,0.188,0,0,0,0,0,0,0,0,0,0.000,0,0,0.066,0.006,0.020,-0.020,-0.060,0.014,0.994,0.012,-0.006,0.002,0.006,0.000,0.000,0.000,0.000,0,2,0,3,7,255,1200,300,0,0,-89.341,0.934,-31.532
EX0521-092111,28,C04,prep,2322,2322,0,1340689.095,0.686,-0.675,0.197,0.188,0,0,0,0,0,0,0,0,0,0.000,0,0,0.075,0.002,0.020,0.040,-0.060,0.015,0.994,0.012,0.000,0.002,0.006,0.000,0.000,0.000,0.000,0,2,0,3,7,255,1200,300,0,0,-89.341,0.934,-31.532
EX0521-092111,28,C04,prep,2322,2322,0,1340694.092,0.686,-0.675,0.197,0.188,0,0,0,0,0,0,0,0,0,0.000,0,0,0.066,0.002,0.020,-0.020,-0.060,0.014,0.995,0.011,0.000,0.002,0.010,0.000,0.000,0.000,0.000,0,2,0,3,7,255,1200,300,0,0,-89.341,0.934,-31.532
EX0521-092111,28,C04,prep,2322,2322,0,1340699.093,0.686,-0.675,0.197,0.188,0,0,0,0,0,0,0,0,0,0.000,0,0,0.075,0.000,-0.040,-0.020,-0.060,0.014,0.994,0.012,0.000,0.000,0.010,0.000,0.000,0.000,0.000,0,2,0,3,7,255,1200,300,0,0,-89.341,0.934,-31.532
EX0521-092111,28,C04,prep,2322,2322,0,1340704.092,0.686,-0.675,0.197,0.188,0,0,0,0,0,0,0,0,0,0.000,0,0,0.066,0.009,0.020,-0.020,-0.060,0.014,0.994,0.011,0.004,0.008,0.010,0.000,0.000,0.000,0.000,0,2,0,3,7,255,1200,300,0,0,-89.341,0.934,-31.532
EX0521-092111,28,C04,prep,2322,2322,0,1340709.092,0.686,-0.675,0.197,0.188,0,0,0,0,0,0,0,0,0,0.000,0,0,0.049,0.000,0.020,0.040,0.020,0.015,0.994,0.012,0.000,0.000,0.004,0.000,0.000,0.000,0.000,0,2,0,3,7,255,1200,300,0,0,-89.341,0.934,-31.532
EX0521-092111,28,C04,prep,2322,2322,0,1340714.092,0.686,-0.675,0.197,0.188,0,0,0,0,0,0,0,0,0,0.000,0,0,0.049,0.000,-0.040,-0.020,0.020,0.014,0.993,0.012,0.000,0.000,0.004,0.000,0.000,0.000,0.000,0,2,0,3,7,255,1200,300,0,0,-89.341,0.934,-31.532
EX0521-092111,28,C04,prep,2324,2324,0,1340719.092,0.686,-0.675,0.197,0.188,0,0,0,0,0,0,0,0,0,0.000,0,0,0.060,0.003,-0.040,-0.020,-0.040,0.014,0.994,0.012,-0.002,-0.002,0.004,0.000,0.000,0.000,0.000,0,2,0,3,7,255,1200,300,0,0,-89.341,0.934,-31.532
EX0521-092111,28,C04,prep,2324,2324,0,1340724.092,0.686,-0.675,0.197,0.188,0,0,0,0,0,0,0,0,0,0.000,0,0,0.110,0.002,-0.040,-0.020,-0.100,0.015,0.994,0.011,-0.002,0.000,0.004,0.000,0.000,0.000,0.000,0,2,0,3,7,255,1200,300,0,0,-89.341,0.934,-31.532
EX0521-092111,28,C04,prep,2324,2324,0,1340729.092,0.686,-0.675,0.197,0.188,0,0,0,0,0,0,0,0,0,0.000,0,0,0.085,0.006,0.080,-0.020,0.020,0.015,0.993,0.011,0.006,0.002,0.004,0.000,0.000,0.000,0.000,0,2,0,3,7,255,1200,300,0,0,-89.341,0.934,-31.532
EX0521-092111,28,C04,prep,2324,2324,0,1340734.092,0.686,-0.675,0.197,0.188,0,0,0,0,0,0,0,0,0,0.000,0,0,0.060,0.007,-0.040,-0.020,-0.040,0.013,0.994,0.012,0.006,0.004,0.004,0.000,0.000,0.000,0.000,0,2,0,3,7,255,1200,300,0,0,-89.341,0.934,-31.532
EX0521-092111,28,C04,prep,2346,2346,0,1340739.092,0.686,-0.675,0.197,0.188,0,0,0,0,0,0,0,0,0,0.000,0,0,0.035,0.004,0.020,-0.020,0.020,0.014,0.993,0.012,-0.002,0.004,0.000,0.000,0.000,0.000,0.000,0,2,0,3,7,255,1200,300,0,0,-89.341,0.934,-31.532
EX0521-092111,28,C04,prep,2346,2346,0,1340744.092,0.686,-0.675,0.197,0.188,0,0,0,0,0,0,0,0,0,0.000,0,0,0.049,0.007,-0.040,-0.020,0.020,0.014,0.995,0.012,-0.006,0.004,0.004,0.000,0.000,0.000,0.000,0,2,0,3,7,255,1200,300,0,0,-89.341,0.934,-31.532
EX0521-092111,28,C04,prep,2347,2347,0,1340749.092,0.686,-0.675,0.197,0.188,0,0,0,0,0,0,0,0,0,0.000,0,0,0.049,0.004,-0.040,-0.020,0.020,0.014,0.994,0.010,-0.002,0.004,0.008,0.000,0.000,0.000,0.000,0,2,0,3,7,255,1200,300,0,0,-89.341,0.934,-31.532
EX0521-092111,28,C04,prep,2347,2347,0,1340754.092,0.686,-0.675,0.197,0.188,0,0,0,0,0,0,0,0,0,0.000,0,0,0.092,0.007,0.020,-0.080,-0.040,0.014,0.995,0.012,-0.006,0.004,0.018,0.000,0.000,0.000,0.000,0,2,0,3,7,255,1200,300,0,0,-89.341,0.934,-31.532
EX0521-092111,28,C04,prep,2347,2347,0,1340759.092,0.686,-0.675,0.197,0.188,0,0,0,0,0,0,0,0,0,0.000,0,0,0.066,0.006,0.020,-0.020,-0.060,0.015,0.994,0.011,0.006,0.002,0.008,0.000,0.000,0.000,0.000,0,2,0,3,7,255,1200,300,0,0,-89.341,0.934,-31.532
EX0521-092111,28,C04,prep,2347,2347,0,1340764.092,0.686,-0.675,0.197,0.188,0,0,0,0,0,0,0,0,0,0.000,0,0,0.066,0.003,0.020,-0.020,-0.060,0.014,0.993,0.011,0.002,0.002,0.004,0.000,0.000,0.000,0.000,0,2,0,3,7,255,1200,300,0,0,-89.341,0.934,-31.532
EX0521-092111,28,C04,prep,2375,2375,0,1340769.093,0.686,-0.675,0.197,0.188,0,0,0,0,0,0,0,0,0,0.000,0,0,0.035,0.006,0.020,-0.020,0.020,0.016,0.993,0.011,0.006,0.002,0.000,0.000,0.000,0.000,0.000,0,2,0,3,7,255,1200,300,0,0,-89.341,0.934,-31.532
EX0521-092111,28,C04,prep,2375,2375,0,1340774.092,0.686,-0.675,0.197,0.188,0,0,0,0,0,0,0,0,0,0.000,0,0,0.035,0.003,0.020,-0.020,0.020,0.015,0.994,0.012,0.002,-0.002,0.000,0.000,0.000,0.000,0.000,0,2,0,3,7,255,1200,300,0,0,-89.341,0.934,-31.532
EX0521-092111,28,C04,prep,2412,2412,0,1340779.092,0.686,-0.675,0.197,0.188,0,0,0,0,0,0,0,0,0,0.000,0,0,0.049,0.015,-0.040,-0.020,0.020,0.016,0.994,0.011,0.014,-0.004,0.004,0.000,0.000,0.000,0.000,0,2,0,3,7,255,1200,300,0,0,-89.341,0.934,-31.532
EX0521-092111,28,C04,prep,2412,2412,0,1340784.092,0.686,-0.675,0.197,0.188,0,0,0,0,0,0,0,0,0,0.000,0,0,0.075,0.004,-0.040,-0.020,-0.060,0.014,0.993,0.014,0.002,-0.004,0.004,0.000,0.000,0.000,0.000,0,2,0,3,7,255,1200,300,0,0,-89.341,0.934,-31.532
EX0521-092111,28,C04,prep,2412,2412,0,1340789.092,0.686,-0.675,0.197,0.188,0,0,0,0,0,0,0,0,0,0.000,0,0,0.075,0.004,-0.040,-0.020,-0.060,0.015,0.993,0.012,0.002,-0.004,0.000,0.000,0.000,0.000,0.000,0,2,0,3,7,255,1200,300,0,0,-89.341,0.934,-31.532
EX0521-092111,28,C04,prep,2412,2412,0,1340794.093,0.686,-0.675,0.197,0.188,0,0,0,0,0,0,0,0,0,0.000,0,0,0.035,0.002,0.020,-0.020,0.020,0.014,0.994,0.011,0.000,-0.002,0.000,0.000,0.000,0.000,0.000,0,2,0,3,7,255,1200,300,0,0,-89.341,0.934,-31.532
EX0521-092111,28,C04,prep,2412,2412,0,1340799.092,0.686,-0.675,0.197,0.188,0,0,0,0,0,0,0,0,0,0.000,0,0,0.049,0.002,0.020,0.040,0.020,0.015,0.994,0.012,0.000,-0.002,0.004,0.000,0.000,0.000,0.000,0,2,0,3,7,255,1200,300,0,0,-89.341,0.934,-31.532
EX0521-092111,28,C04,prep,2412,2412,0,1340804.091,0.686,-0.675,0.197,0.188,0,0,0,0,0,0,0,0,0,0.000,0,0,0.035,0.002,0.020,-0.020,0.020,0.014,0.993,0.012,0.000,0.002,0.004,0.000,0.000,0.000,0.000,0,2,0,3,7,255,1200,300,0,0,-89.341,0.934,-31.532
EX0521-092111,28,C04,prep,2414,2414,0,1340809.091,0.686,-0.675,0.197,0.188,0,0,0,0,0,0,0,0,0,0.000,0,0,0.035,0.006,0.020,-0.020,0.020,0.015,0.993,0.012,0.000,-0.006,-0.006,0.000,0.000,0.000,0.000,0,2,0,3,7,255,1200,300,0,0,-89.341,0.934,-31.532
EX0521-092111,28,C04,prep,2414,2414,0,1340814.091,0.686,-0.675,0.197,0.188,0,0,0,0,0,0,0,0,0,0.000,0,0,0.049,0.003,0.020,-0.020,-0.040,0.014,0.994,0.011,-0.002,0.002,-0.006,0.000,0.000,0.000,0.000,0,2,0,3,7,255,1200,300,0,0,-89.341,0.934,-31.532
EX0521-092111,28,C04,prep,2414,2414,0,1340819.091,0.686,-0.675,0.197,0.188,0,0,0,0,0,0,0,0,0,0.000,0,0,0.049,0.002,-0.040,-0.020,0.020,0.015,0.993,0.011,0.000,0.002,-0.006,0.000,0.000,0.000,0.000,0,2,0,3,7,255,1200,300,0,0,-89.341,0.934,-31.532
