experiment_id,condition_order_index,condition_id,condition_phase,condition_phase_elapsed_ms,condition_elapsed_ms,is_stimulation_on,t_ms,R_q0,R_q1,R_q2,R_q3,R_heel1,R_mid1,R_fore1,R_heel2,R_fore3,R_mid2,R_fore4,R_fore2,R_cadence,R_speed,R_steps,R_zupt,R_gyroNorm,R_accH,R_gyro_x,R_gyro_y,R_gyro_z,R_acc_x,R_acc_y,R_acc_z,R_nav_ax,R_nav_ay,R_nav_az,R_stepVel,R_stepVelj,R_stepDispRaw,R_stepDispZUPT,R_gaitEvent,R_motorMode,R_motorActive,R_motorAlignment,R_motorRegionMask,R_motorAmplitude,R_motorIntervalMs,R_motorDurationMs,R_motorPhaseMs,R_motorCycleMs,R_roll,R_pitch,R_yaw
EX0521-092111,10,C15,prep,58,58,0,625609.091,0.685,-0.677,0.194,0.188,0,0,0,0,0,0,0,0,0,0.000,0,0,0.060,0.011,0.040,-0.040,-0.020,0.014,0.999,0.008,0.008,0.008,0.018,0.000,0.000,0.000,0.000,0,2,0,2,7,255,1440,250,0,0,-89.507,0.637,-31.382
EX0521-092111,10,C15,prep,58,58,0,625614.092,0.685,-0.677,0.194,0.188,0,0,0,0,0,0,0,0,0,0.000,0,0,0.261,0.011,0.240,0.020,-0.100,0.015,0.992,0.010,0.008,0.008,0.018,0.000,0.000,0.000,0.000,0,2,0,2,7,255,1440,250,0,0,-89.507,0.637,-31.382
EX0521-092111,10,C15,prep,58,58,0,625619.092,0.685,-0.677,0.194,0.188,0,0,0,0,0,0,0,0,0,0.000,0,0,0.450,0.011,-0.380,-0.100,0.220,0.015,0.987,0.012,0.008,0.008,-0.016,0.000,0.000,0.000,0.000,0,2,0,2,7,255,1440,250,0,0,-89.507,0.637,-31.382
EX0521-092111,10,C15,prep,58,58,0,625624.092,0.685,-0.677,0.194,0.188,0,0,0,0,0,0,0,0,0,0.000,0,0,0.104,0.008,-0.020,0.020,-0.100,0.012,1.003,0.011,-0.002,0.008,-0.016,0.000,0.000,0.000,0.000,0,2,0,2,7,255,1440,250,0,0,-89.507,0.637,-31.382
EX0521-092111,10,C15,prep,59,59,0,625629.091,0.685,-0.677,0.194,0.188,0,0,0,0,0,0,0,0,0,0.000,0,0,0.931,0.012,0.840,-0.040,-0.400,0.015,0.987,0.008,-0.002,0.012,-0.062,0.000,0.000,0.000,0.000,0,2,0,2,7,255,1440,250,0,0,-89.511,0.637,-31.382
EX0521-092111,10,C15,prep,59,59,0,625634.092,0.685,-0.677,0.194,0.188,0,0,0,0,0,0,0,0,0,0.000,0,0,1.405,0.012,-1.240,-0.160,0.640,0.016,0.988,0.013,0.000,0.012,-0.052,0.000,0.000,0.000,0.000,0,2,0,2,7,255,1440,250,0,0,-89.505,0.640,-31.382
EX0521-092111,10,C15,prep,59,59,0,625639.092,0.685,-0.677,0.194,0.188,0,0,0,0,0,0,0,0,0,0.000,0,0,1.207,0.004,1.020,0.080,-0.640,0.013,1.002,0.012,0.000,0.004,-0.052,0.000,0.000,0.000,0.000,0,2,0,2,7,255,1440,250,0,0,-89.511,0.637,-31.382
EX0521-092111,10,C15,prep,59,59,0,625644.092,0.685,-0.677,0.194,0.188,0,0,0,0,0,0,0,0,0,0.000,0,0,0.147,0.022,0.040,-0.100,0.100,0.017,0.977,0.012,0.000,-0.022,-0.052,0.000,0.000,0.000,0.000,0,2,0,2,7,255,1440,250,0,0,-89.511,0.639,-31.382
EX0521-092111,10,C15,prep,59,59,0,625649.092,0.685,-0.677,0.194,0.188,0,0,0,0,0,0,0,0,0,0.000,0,0,1.063,0.013,-0.980,-0.100,0.400,0.012,1.010,0.010,-0.012,0.004,0.084,0.000,0.000,0.000,0.000,0,2,0,2,7,255,1440,250,0,0,-89.506,0.639,-31.382
EX0521-092111,10,C15,prep,59,59,0,625654.091,0.685,-0.677,0.194,0.188,0,0,0,0,0,0,0,0,0,0.000,0,0,1.942,0.014,1.760,0.020,-0.820,0.016,0.981,0.012,0.008,-0.012,-0.116,0.000,0.000,0.000,0.000,0,2,0,2,7,255,1440,250,0,0,-89.515,0.634,-31.382
EX0521-092111,10,C15,prep,62,62,0,625659.091,0.685,-0.677,0.194,0.188,0,0,0,0,0,0,0,0,0,0.000,0,0,2.411,0.024,-2.220,-0.040,0.940,0.013,0.996,0.009,0.000,0.024,0.028,0.000,0.000,0.000,0.000,0,2,0,2,7,255,1440,250,0,0,-89.504,0.639,-31.382
EX0521-092111,10,C15,prep,62,62,0,625664.092,0.685,-0.677,0.194,0.188,0,0,0,0,0,0,0,0,0,0.000,0,0,1.890,0.002,1.700,-0.100,-0.820,0.013,0.998,0.012,0.000,-0.002,0.028,0.000,0.000,0.000,0.000,0,2,0,2,7,255,1440,250,0,0,-89.512,0.635,-31.382
EX0521-092111,10,C15,prep,62,62,0,625669.092,0.685,-0.677,0.194,0.188,0,0,0,0,0,0,0,0,0,0.000,0,0,1.386,0.002,-1.300,0.140,0.460,0.016,0.979,0.011,0.000,-0.002,0.028,0.000,0.000,0.000,0.000,0,2,0,2,7,255,1440,250,0,0,-89.506,0.635,-31.382
EX0521-092111,10,C15,prep,62,62,0,625674.092,0.685,-0.677,0.194,0.188,0,0,0,0,0,0,0,0,0,0.000,0,0,0.303,0.016,0.240,-0.180,-0.040,0.012,1.006,0.013,-0.016,-0.002,0.042,0.000,0.000,0.000,0.000,0,2,0,2,7,255,1440,250,0,0,-89.506,0.635,-31.382
EX0521-092111,10,C15,prep,81,81,0,625679.093,0.685,-0.677,0.194,0.188,0,0,0,0,0,0,0,0,0,0.000,0,0,0.776,0.016,0.660,0.080,-0.400,0.017,0.984,0.009,0.016,0.002,-0.092,0.000,0.000,0.000,0.000,0,2,0,2,7,255,1440,250,0,0,-89.509,0.637,-31.382
EX0521-092111,10,C15,prep,81,81,0,625684.091,0.685,-0.677,0.194,0.188,0,0,0,0,0,0,0,0,0,0.000,0,0,1.345,0.014,-1.240,-0.040,0.520,0.014,0.994,0.013,-0.014,0.002,0.010,0.000,0.000,0.000,0.000,0,2,0,2,7,255,1440,250,0,0,-89.503,0.637,-31.382
EX0521-092111,10,C15,prep,120,120,0,625689.092,0.685,-0.677,0.194,0.188,0,0,0,0,0,0,0,0,0,0.000,0,0,1.257,0.009,1.140,-0.100,-0.520,0.014,0.997,0.009,0.008,0.004,0.010,0.000,0.000,0.000,0.000,0,2,0,2,7,255,1440,250,0,0,-89.509,0.637,-31.382
EX0521-092111,10,C15,prep,120,120,0,625694.092,0.685,-0.677,0.194,0.188,0,0,0,0,0,0,0,0,0,0.000,0,0,0.728,0.008,-0.680,0.140,0.220,0.015,0.981,0.012,0.002,-0.008,0.010,0.000,0.000,0.000,0.000,0,2,0,2,7,255,1440,250,0,0,-89.506,0.637,-31.382
EX0521-092111,10,C15,prep,120,120,0,625699.093,0.685,-0.677,0.194,0.188,0,0,0,0,0,0,0,0,0,0.000,0,0,0.201,0.003,-0.080,-0.180,-0.040,0.012,1.005,0.013,0.002,0.002,0.032,0.000,0.000,0.000,0.000,0,2,0,2,7,255,1440,250,0,0,-89.506,0.637,-31.382
EX0521-092111,10,C15,prep,120,120,0,625704.091,0.685,-0.677,0.194,0.188,0,0,0,0,0,0,0,0,0,0.000,0,0,0.592,0.006,0.540,-0.100,-0.220,0.016,0.982,0.011,0.002,-0.006,-0.110,0.000,0.000,0.000,0.000,0,2,0,2,7,255,1440,250,0,0,-89.506,0.638,-31.382
EX0521-092111,10,C15,prep,120,120,0,625709.091,0.685,-0.677,0.194,0.188,0,0,0,0,0,0,0,0,0,0.000,0,0,0.564,0.014,-0.500,0.140,0.220,0.014,0.999,0.007,0.014,0.002,0.056,0.000,0.000,0.000,0.000,0,2,0,2,7,255,1440,250,0,0,-89.506,0.638,-31.382
EX0521-092111,10,C15,prep,120,120,0,625714.092,0.685,-0.677,0.194,0.188,0,0,0,0,0,0,0,0,0,0.000,0,0,0.196,0.014,-0.080,-0.160,-0.080,0.014,0.994,0.012,0.014,0.000,0.010,0.000,0.000,0.000,0.000,0,2,0,2,7,255,1440,250,0,0,-89.506,0.638,-31.382
EX0521-092111,10,C15,prep,120,120,0,625719.092,0.685,-0.677,0.194,0.188,0,0,0,0,0,0,0,0,0,0.000,0,0,0.143,0.008,-0.020,-0.100,0.100,0.016,0.983,0.013,0.008,0.000,0.010,0.000,0.000,0.000,0.000,0,2,0,2,7,255,1440,250,0,0,-89.506,0.640,-31.382
EX0521-092111,10,C15,prep,120,120,0,625724.092,0.685,-0.677,0.194,0.188,0,0,0,0,0,0,0,0,0,0.000,0,0,1.245,0.008,1.140,0.200,-0.460,0.013,1.004,0.007,0.008,0.000,0.010,0.000,0.000,0.000,0.000,0,2,0,2,7,255,1440,250,0,0,-89.512,0.640,-31.382
EX0521-092111,10,C15,prep,121,121,0,625729.091,0.685,-0.677,0.194,0.188,0,0,0,0,0,0,0,0,0,0.000,0,0,1.608,0.009,-1.540,-0.040,0.460,0.014,0.987,0.011,0.008,0.004,-0.058,0.000,0.000,0.000,0.000,0,2,0,2,7,255,1440,250,0,0,-89.505,0.640,-31.382
EX0521-092111,10,C15,prep,121,121,0,625734.092,0.685,-0.677,0.194,0.188,0,0,0,0,0,0,0,0,0,0.000,0,0,0.205,0.007,-0.080,-0.160,0.100,0.014,0.992,0.015,-0.006,0.004,-0.010,0.000,0.000,0.000,0.000,0,2,0,2,7,255,1440,250,0,0,-89.499,0.640,-31.382
EX0521-092111,10,C15,prep,126,126,0,625739.092,0.685,-0.677,0.194,0.188,0,0,0,0,0,0,0,0,0,0.000,0,0,2.310,0.007,2.180,0.080,-0.760,0.014,0.993,0.009,-0.006,0.004,-0.010,0.000,0.000,0.000,0.000,0,2,0,2,7,255,1440,250,0,0,-89.510,0.636,-31.382
EX0521-092111,10,C15,prep,126,126,0,625744.092,0.685,-0.677,0.194,0.188,0,0,0,0,0,0,0,0,0,0.000,0,0,2.005,0.020,-1.900,0.020,0.640,0.014,0.996,0.007,0.004,0.020,-0.006,0.000,0.000,0.000,0.000,0,2,0,2,7,255,1440,250,0,0,-89.501,0.639,-31.382
EX0521-092111,10,C15,prep,150,150,0,625749.092,0.685,-0.677,0.194,0.188,0,0,0,0,0,0,0,0,0,0.000,0,0,0.383,0.020,-0.380,-0.040,-0.020,0.015,0.991,0.015,0.004,0.020,-0.006,0.000,0.000,0.000,0.000,0,2,0,2,7,255,1440,250,0,0,-89.495,0.639,-31.382
EX0521-092111,10,C15,prep,150,150,0,625754.091,0.685,-0.677,0.194,0.188,0,0,0,0,0,0,0,0,0,0.000,0,0,1.161,0.013,1.140,0.020,-0.220,0.014,0.988,0.013,-0.008,-0.010,-0.024,0.000,0.000,0.000,0.000,0,2,0,2,7,255,1440,250,0,0,-89.501,0.639,-31.382
EX0521-092111,10,C15,prep,150,150,0,625759.092,0.685,-0.677,0.194,0.188,0,0,0,0,0,0,0,0,0,0.000,0,0,0.332,0.013,0.300,-0.100,-0.100,0.013,1.000,0.004,-0.008,-0.010,-0.024,0.000,0.000,0.000,0.000,0,2,0,2,7,255,1440,250,0,0,-89.501,0.639,-31.382
EX0521-092111,10,C15,prep,150,150,0,625764.091,0.685,-0.677,0.194,0.188,0,0,0,0,0,0,0,0,0,0.000,0,0,1.536,0.011,-1.480,-0.100,0.400,0.016,0.986,0.014,-0.004,-0.010,-0.052,0.000,0.000,0.000,0.000,0,2,0,2,7,255,1440,250,0,0,-89.492,0.639,-31.382
EX0521-092111,10,C15,prep,158,158,0,625769.093,0.685,-0.677,0.194,0.188,0,0,0,0,0,0,0,0,0,0.000,0,0,0.555,0.013,0.540,0.080,-0.100,0.015,0.992,0.013,-0.004,-0.012,-0.010,0.000,0.000,0.000,0.000,0,2,0,2,7,255,1440,250,0,0,-89.492,0.639,-31.382
EX0521-092111,10,C15,prep,158,158,0,625774.092,0.685,-0.677,0.194,0.188,0,0,0,0,0,0,0,0,0,0.000,0,0,0.644,0.013,0.600,0.080,-0.220,0.014,0.996,0.008,-0.004,-0.012,-0.010,0.000,0.000,0.000,0.000,0,2,0,2,7,255,1440,250,0,0,-89.495,0.639,-31.382
EX0521-092111,10,C15,prep,183,183,0,625779.092,0.685,-0.677,0.194,0.188,0,0,0,0,0,0,0,0,0,0.000,0,0,1.101,0.004,-1.060,-0.100,0.280,0.014,0.990,0.011,0.000,0.004,-0.010,0.000,0.000,0.000,0.000,0,2,0,2,7,255,1440,250,0,0,-89.490,0.639,-31.382
EX0521-092111,10,C15,prep,183,183,0,625784.091,0.685,-0.677,0.194,0.188,0,0,0,0,0,0,0,0,0,0.000,0,0,0.406,0.004,0.360,-0.100,-0.160,0.014,0.993,0.014,0.000,0.004,-0.004,0.000,0.000,0.000,0.000,0,2,0,2,7,255,1440,250,0,0,-89.490,0.639,-31.382
EX0521-092111,10,C15,prep,220,220,0,625789.091,0.685,-0.677,0.194,0.188,0,0,0,0,0,0,0,0,0,0.000,0,0,0.869,0.004,0.840,0.020,-0.220,0.015,0.992,0.009,0.000,0.004,-0.010,0.000,0.000,0.000,0.000,0,2,0,2,7,255,1440,250,0,0,-89.494,0.639,-31.382
EX0521-092111,10,C15,prep,220,220,0,625794.093,0.685,-0.677,0.194,0.188,0,0,0,0,0,0,0,0,0,0.000,0,0,0.962,0.014,-0.920,-0.040,0.280,0.014,0.996,0.010,0.000,0.014,-0.004,0.000,0.000,0.000,0.000,0,2,0,2,7,255,1440,250,0,0,-89.490,0.639,-31.382
EX0521-092111,10,C15,prep,220,220,0,625799.093,0.685,-0.677,0.194,0.188,0,0,0,0,0,0,0,0,0,0.000,0,0,0.104,0.014,-0.020,0.020,-0.100,0.014,0.990,0.013,0.000,0.014,-0.010,0.000,0.000,0.000,0.000,0,2,0,2,7,255,1440,250,0,0,-89.490,0.639,-31.382
EX0521-092111,10,C15,prep,220,220,0,625804.092,0.685,-0.677,0.194,0.188,0,0,0,0,0,0,0,0,0,0.000,0,0,0.439,0.006,0.420,0.080,-0.100,0.015,0.993,0.011,0.000,0.006,-0.004,0.000,0.000,0.000,0.000,0,2,0,2,7,255,1440,250,0,0,-89.490,0.639,-31.382
EX0521-092111,10,C15,prep,220,220,0,625809.091,0.685,-0.677,0.194,0.188,0,0,0,0,0,0,0,0,0,0.000,0,0,0.213,0.008,-0.200,-0.060,-0.040,0.014,0.995,0.008,0.006,0.006,-0.004,0.000,0.000,0.000,0.000,0,2,0,2,7,255,1440,250,0,0,-89.490,0.639,-31.382
EX0521-092111,10,C15,prep,220,220,0,625814.091,0.685,-0.677,0.194,0.188,0,0,0,0,0,0,0,0,0,0.000,0,0,0.368,0.008,-0.320,-0.180,0.020,0.015,0.990,0.013,0.006,0.006,-0.004,0.000,0.000,0.000,0.000,0,2,0,2,7,255,1440,250,0,0,-89.490,0.639,-31.382
EX0521-092111,10,C15,prep,221,221,0,625819.092,0.685,-0.677,0.194,0.188,0,0,0,0,0,0,0,0,0,0.000,0,0,0.491,0.007,0.480,0.020,-0.100,0.014,0.992,0.011,-0.004,0.006,-0.010,0.000,0.000,0.000,0.000,0,2,0,2,7,255,1440,250,0,0,-89.490,0.639,-31.382
EX0521-092111,10,C15,prep,221,221,0,625824.092,0.685,-0.677,0.194,0.188,0,0,0,0,0,0,0,0,0,0.000,0,0,0.123,0.007,0.100,-0.060,-0.040,0.015,0.994,0.008,-0.004,0.006,-0.010,0.000,0.000,0.000,0.000,0,2,0,2,7,255,1440,250,0,0,-89.490,0.639,-31.382
EX0521-092111,10,C15,prep,222,222,0,625829.092,0.685,-0.677,0.194,0.188,0,0,0,0,0,0,0,0,0,0.000,0,0,0.756,0.007,-0.740,-0.060,0.140,0.014,0.990,0.012,-0.004,0.006,-0.010,0.000,0.000,0.000,0.000,0,2,0,2,7,255,1440,250,0,0,-89.487,0.639,-31.382
EX0521-092111,10,C15,prep,222,222,0,625834.092,0.685,-0.677,0.194,0.188,0,0,0,0,0,0,0,0,0,0.000,0,0,0.432,0.007,0.420,0.020,-0.100,0.015,0.993,0.012,0.006,-0.004,-0.004,0.000,0.000,0.000,0.000,0,2,0,2,7,255,1440,250,0,0,-89.487,0.639,-31.382
EX0521-092111,10,C15,prep,239,239,0,625839.091,0.685,-0.677,0.194,0.188,0,0,0,0,0,0,0,0,0,0.000,0,0,0.110,0.007,0.100,0.020,-0.040,0.015,0.991,0.010,0.006,-0.004,-0.024,0.000,0.000,0.000,0.000,0,2,0,2,7,255,1440,250,0,0,-89.487,0.639,-31.382
EX0521-092111,10,C15,prep,239,239,0,625844.092,0.685,-0.677,0.194,0.188,0,0,0,0,0,0,0,0,0,0.000,0,0,0.520,0.007,-0.500,-0.120,0.080,0.015,0.991,0.012,0.006,-0.004,-0.022,0.000,0.000,0.000,0.000,0,2,0,2,7,255,1440,250,0,0,-89.487,0.639,-31.382
EX0521-092111,10,C15,prep,239,239,0,625849.092,0.685,-0.677,0.194,0.188,0,0,0,0,0,0,0,0,0,0.000,0,0,0.289,0.004,0.280,-0.060,-0.040,0.015,0.991,0.012,0.002,-0.004,-0.022,0.000,0.000,0.000,0.000,0,2,0,2,7,255,1440,250,0,0,-89.487,0.639,-31.382
EX0521-092111,10,C15,prep,239,239,0,625854.092,0.685,-0.677,0.194,0.188,0,0,0,0,0,0,0,0,0,0.000,0,0,0.289,0.004,0.280,-0.060,-0.040,0.014,0.993,0.008,0.002,-0.004,-0.022,0.000,0.000,0.000,0.000,0,2,0,2,7,255,1440,250,0,0,-89.487,0.638,-31.382
EX0521-092111,10,C15,prep,254,254,0,625859.091,0.685,-0.677,0.194,0.188,0,0,0,0,0,0,0,0,0,0.000,0,0,0.442,0.017,-0.440,-0.040,-0.020,0.014,0.993,0.010,0.006,0.016,-0.004,0.000,0.000,0.000,0.000,0,2,0,2,7,255,1440,250,0,0,-89.487,0.638,-31.382
EX0521-092111,10,C15,prep,254,254,0,625864.091,0.685,-0.677,0.194,0.188,0,0,0,0,0,0,0,0,0,0.000,0,0,0.085,0.017,-0.080,0.020,-0.020,0.014,0.990,0.013,0.006,0.016,-0.004,0.000,0.000,0.000,0.000,0,2,0,2,7,255,1440,250,0,0,-89.487,0.638,-31.382
EX0521-092111,10,C15,prep,254,254,0,625869.091,0.685,-0.677,0.194,0.188,0,0,0,0,0,0,0,0,0,0.000,0,0,0.317,0.013,0.300,0.020,-0.100,0.013,0.993,0.011,-0.006,0.012,-0.004,0.000,0.000,0.000,0.000,0,2,0,2,7,255,1440,250,0,0,-89.488,0.638,-31.382
EX0521-092111,10,C15,prep,254,254,0,625874.092,0.685,-0.677,0.194,0.188,0,0,0,0,0,0,0,0,0,0.000,0,0,0.266,0.013,-0.260,-0.040,0.040,0.014,0.991,0.010,-0.006,0.012,-0.018,0.000,0.000,0.000,0.000,0,2,0,2,7,255,1440,250,0,0,-89.488,0.638,-31.382
EX0521-092111,10,C15,prep,303,303,0,625879.092,0.685,-0.677,0.194,0.188,0,0,0,0,0,0,0,0,0,0.000,0,0,0.147,0.013,-0.140,-0.040,-0.020,0.015,0.991,0.013,-0.004,0.012,-0.018,0.000,0.000,0.000,0.000,0,2,0,2,7,255,1440,250,0,0,-89.488,0.638,-31.382
EX0521-092111,10,C15,prep,303,303,0,625884.092,0.685,-0.677,0.194,0.188,0,0,0,0,0,0,0,0,0,0.000,0,0,0.374,0.004,0.360,0.020,-0.100,0.015,0.992,0.011,0.000,0.004,-0.018,0.000,0.000,0.000,0.000,0,2,0,2,7,255,1440,250,0,0,-89.488,0.638,-31.382
EX0521-092111,10,C15,prep,303,303,0,625889.091,0.685,-0.677,0.194,0.188,0,0,0,0,0,0,0,0,0,0.000,0,0,0.151,0.007,-0.140,-0.040,0.040,0.015,0.992,0.008,0.006,0.004,-0.012,0.000,0.000,0.000,0.000,0,2,0,2,7,255,1440,250,0,0,-89.488,0.638,-31.382
EX0521-092111,10,C15,prep,303,303,0,625894.092,0.685,-0.677,0.194,0.188,0,0,0,0,0,0,0,0,0,0.000,0,0,0.325,0.007,-0.320,-0.040,0.040,0.015,0.992,0.012,0.006,0.004,-0.012,0.000,0.000,0.000,0.000,0,2,0,2,7,255,1440,250,0,0,-89.488,0.638,-31.382
EX0521-092111,10,C15,prep,303,303,0,625899.093,0.685,-0.677,0.194,0.188,0,0,0,0,0,0,0,0,0,0.000,0,0,0.349,0.004,0.300,0.080,-0.160,0.015,0.993,0.012,0.000,-0.004,-0.012,0.000,0.000,0.000,0.000,0,2,0,2,7,255,1440,250,0,0,-89.488,0.638,-31.382
EX0521-092111,10,C15,prep,303,303,0,625904.092,0.685,-0.677,0.194,0.188,0,0,0,0,0,0,0,0,0,0.000,0,0,0.049,0.004,-0.020,-0.040,-0.020,0.013,0.993,0.011,0.000,-0.004,-0.002,0.000,0.000,0.000,0.000,0,2,0,2,7,255,1440,250,0,0,-89.488,0.638,-31.382
EX0521-092111,10,C15,prep,322,322,0,625909.092,0.685,-0.677,0.194,0.188,0,0,0,0,0,0,0,0,0,0.000,0,0,0.264,0.004,-0.260,-0.040,-0.020,0.015,0.993,0.012,-0.002,-0.004,-0.002,0.000,0.000,0.000,0.000,0,2,0,2,7,255,1440,250,0,0,-89.488,0.638,-31.382
EX0521-092111,10,C15,prep,322,322,0,625914.091,0.685,-0.677,0.194,0.188,0,0,0,0,0,0,0,0,0,0.000,0,0,0.244,0.002,0.240,-0.040,-0.020,0.015,0.992,0.011,-0.002,0.000,-0.002,0.000,0.000,0.000,0.000,0,2,0,2,7,255,1440,250,0,0,-89.488,0.638,-31.382
EX0521-092111,10,C15,prep,323,323,0,625919.091,0.685,-0.677,0.194,0.188,0,0,0,0,0,0,0,0,0,0.000,0,0,0.185,0.004,0.180,-0.040,-0.020,0.015,0.993,0.010,0.004,0.000,-0.002,0.000,0.000,0.000,0.000,0,2,0,2,7,255,1440,250,0,0,-89.489,0.638,-31.382
EX0521-092111,10,C15,prep,323,323,0,625924.092,0.685,-0.677,0.194,0.188,0,0,0,0,0,0,0,0,0,0.000,0,0,0.281,0.004,-0.260,-0.040,0.100,0.015,0.993,0.011,0.004,0.000,-0.002,0.000,0.000,0.000,0.000,0,2,0,2,7,255,1440,250,0,0,-89.489,0.638,-31.382
EX0521-092111,10,C15,prep,324,324,0,625929.092,0.685,-0.677,0.194,0.188,0,0,0,0,0,0,0,0,0,0.000,0,0,0.060,0.002,0.040,-0.040,-0.020,0.015,0.993,0.012,0.002,0.000,-0.002,0.000,0.000,0.000,0.000,0,2,0,2,7,255,1440,250,0,0,-89.489,0.638,-31.382
EX0521-092111,10,C15,prep,324,324,0,625934.092,0.685,-0.677,0.194,0.188,0,0,0,0,0,0,0,0,0,0.000,0,0,0.242,0.002,0.240,0.020,-0.020,0.015,0.993,0.011,0.002,0.000,-0.002,0.000,0.000,0.000,0.000,0,2,0,2,7,255,1440,250,0,0,-89.489,0.638,-31.382
EX0521-092111,10,C15,prep,335,335,0,625939.091,0.685,-0.677,0.194,0.188,0,0,0,0,0,0,0,0,0,0.000,0,0,0.224,0.007,-0.200,-0.100,-0.020,0.015,0.991,0.010,0.006,0.004,-0.002,0.000,0.000,0.000,0.000,0,2,0,2,7,255,1440,250,0,0,-89.489,0.638,-31.382
EX0521-092111,10,C15,prep,335,335,0,625944.092,0.685,-0.677,0.194,0.188,0,0,0,0,0,0,0,0,0,0.000,0,0,0.110,0.007,-0.020,-0.100,0.040,0.014,0.992,0.012,0.006,0.004,-0.012,0.000,0.000,0.000,0.000,0,2,0,2,7,255,1440,250,0,0,-89.489,0.638,-31.382
EX0521-092111,10,C15,prep,358,358,0,625949.092,0.685,-0.677,0.194,0.188,0,0,0,0,0,0,0,0,0,0.000,0,0,0.303,0.008,0.300,-0.040,-0.020,0.014,0.992,0.011,-0.002,0.008,-0.012,0.000,0.000,0.000,0.000,0,2,0,2,7,255,1440,250,0,0,-89.489,0.638,-31.382
EX0521-092111,10,C15,prep,358,358,0,625954.092,0.685,-0.677,0.194,0.188,0,0,0,0,0,0,0,0,0,0.000,0,0,0.177,0.008,-0.140,-0.100,0.040,0.015,0.991,0.010,-0.002,0.008,-0.012,0.000,0.000,0.000,0.000,0,2,0,2,7,255,1440,250,0,0,-89.489,0.638,-31.382
EX0521-092111,10,C15,prep,358,358,0,625959.092,0.685,-0.677,0.194,0.188,0,0,0,0,0,0,0,0,0,0.000,0,0,0.151,0.008,-0.140,-0.040,0.040,0.014,0.992,0.012,-0.002,0.008,-0.012,0.000,0.000,0.000,0.000,0,2,0,2,7,255,1440,250,0,0,-89.489,0.638,-31.382
EX0521-092111,10,C15,prep,358,358,0,625964.092,0.685,-0.677,0.194,0.188,0,0,0,0,0,0,0,0,0,0.000,0,0,0.261,0.010,0.240,0.020,-0.100,0.014,0.993,0.010,0.006,0.008,-0.006,0.000,0.000,0.000,0.000,0,2,0,2,7,255,1440,250,0,0,-89.490,0.638,-31.382
EX0521-092111,10,C15,prep,367,367,0,625969.093,0.685,-0.677,0.194,0.188,0,0,0,0,0,0,0,0,0,0.000,0,0,0.049,0.006,-0.020,0.020,0.040,0.014,0.992,0.011,0.002,0.006,-0.006,0.000,0.000,0.000,0.000,0,2,0,2,7,255,1440,250,0,0,-89.490,0.638,-31.382
EX0521-092111,10,C15,prep,367,367,0,625974.091,0.685,-0.677,0.194,0.188,0,0,0,0,0,0,0,0,0,0.000,0,0,0.151,0.006,-0.140,-0.040,0.040,0.014,0.992,0.012,0.002,0.006,-0.010,0.000,0.000,0.000,0.000,0,2,0,2,7,255,1440,250,0,0,-89.490,0.638,-31.382
EX0521-092111,10,C15,prep,367,367,0,625979.092,0.685,-0.677,0.194,0.188,0,0,0,0,0,0,0,0,0,0.000,0,0,0.229,0.004,0.180,-0.100,-0.100,0.015,0.992,0.011,0.002,-0.004,-0.010,0.000,0.000,0.000,0.000,0,2,0,2,7,255,1440,250,0,0,-89.490,0.638,-31.382
EX0521-092111,10,C15,prep,367,367,0,625984.092,0.685,-0.677,0.194,0.188,0,0,0,0,0,0,0,0,0,0.000,0,0,0.060,0.004,0.040,-0.040,-0.020,0.013,0.992,0.010,-0.002,-0.004,-0.010,0.000,0.000,0.000,0.000,0,2,0,2,7,255,1440,250,0,0,-89.490,0.638,-31.382
EX0521-092111,10,C15,prep,399,399,0,625989.092,0.685,-0.677,0.194,0.188,0,0,0,0,0,0,0,0,0,0.000,0,0,0.227,0.002,-0.200,-0.100,0.040,0.014,0.992,0.012,-0.002,0.000,-0.010,0.000,0.000,0.000,0.000,0,2,0,2,7,255,1440,250,0,0,-89.490,0.638,-31.382
EX0521-092111,10,C15,prep,399,399,0,625994.091,0.685,-0.677,0.194,0.188,0,0,0,0,0,0,0,0,0,0.000,0,0,0.104,0.002,0.100,0.020,-0.020,0.015,0.993,0.012,-0.002,0.000,-0.010,0.000,0.000,0.000,0.000,0,2,0,2,7,255,1440,250,0,0,-89.490,0.638,-31.382
EX0521-092111,10,C15,prep,399,399,0,625999.093,0.685,-0.677,0.194,0.188,0,0,0,0,0,0,0,0,0,0.000,0,0,0.110,0.000,0.100,-0.040,-0.020,0.014,0.993,0.010,0.000,0.000,-0.002,0.000,0.000,0.000,0.000,0,2,0,2,7,255,1440,250,0,0,-89.490,0.638,-31.382
EX0521-092111,10,C15,prep,399,399,0,626004.092,0.685,-0.677,0.194,0.188,0,0,0,0,0,0,0,0,0,0.000,0,0,0.147,0.004,-0.140,-0.040,-0.020,0.014,0.993,0.011,0.000,0.004,-0.002,0.000,0.000,0.000,0.000,0,2,0,2,7,255,1440,250,0,0,-89.490,0.638,-31.382
EX0521-092111,10,C15,prep,422,422,0,626009.092,0.685,-0.677,0.194,0.188,0,0,0,0,0,0,0,0,0,0.000,0,0,0.115,0.004,0.040,-0.100,-0.040,0.015,0.993,0.012,0.000,0.004,-0.002,0.000,0.000,0.000,0.000,0,2,0,2,7,255,1440,250,0,0,-89.490,0.638,-31.382
EX0521-092111,10,C15,prep,422,422,0,626014.092,0.685,-0.677,0.194,0.188,0,0,0,0,0,0,0,0,0,0.000,0,0,0.261,0.006,0.240,0.020,-0.100,0.013,0.992,0.010,-0.004,0.004,-0.002,0.000,0.000,0.000,0.000,0,2,0,2,7,255,1440,250,0,0,-89.491,0.638,-31.382
EX0521-092111,10,C15,prep,422,422,0,626019.091,0.685,-0.677,0.194,0.188,0,0,0,0,0,0,0,0,0,0.000,0,0,0.151,0.012,-0.140,-0.040,0.040,0.014,0.994,0.010,0.000,0.012,0.000,0.000,0.000,0.000,0.000,0,2,0,2,7,255,1440,250,0,0,-89.491,0.638,-31.382
EX0521-092111,10,C15,prep,422,422,0,626024.091,0.685,-0.677,0.194,0.188,0,0,0,0,0,0,0,0,0,0.000,0,0,0.147,0.013,-0.140,0.020,0.040,0.013,0.993,0.012,-0.004,0.012,0.004,0.000,0.000,0.000,0.000,0,2,0,2,7,255,1440,250,0,0,-89.491,0.638,-31.382
EX0521-092111,10,C15,prep,423,423,0,626029.092,0.685,-0.677,0.194,0.188,0,0,0,0,0,0,0,0,0,0.000,0,0,0.110,0.003,0.100,0.020,-0.040,0.014,0.992,0.011,-0.002,0.002,0.004,0.000,0.000,0.000,0.000,0,2,0,2,7,255,1440,250,0,0,-89.491,0.638,-31.382
EX0521-092111,10,C15,prep,423,423,0,626034.092,0.685,-0.677,0.194,0.188,0,0,0,0,0,0,0,0,0,0.000,0,0,0.177,0.003,-0.140,-0.040,-0.100,0.015,0.993,0.010,-0.002,0.002,-0.002,0.000,0.000,0.000,0.000,0,2,0,2,7,255,1440,250,0,0,-89.491,0.638,-31.382
EX0521-092111,10,C15,prep,430,430,0,626039.092,0.685,-0.677,0.194,0.188,0,0,0,0,0,0,0,0,0,0.000,0,0,0.177,0.003,-0.140,-0.040,-0.100,0.014,0.993,0.012,-0.002,0.002,-0.002,0.000,0.000,0.000,0.000,0,2,0,2,7,255,1440,250,0,0,-89.491,0.638,-31.382
EX0521-092111,10,C15,prep,430,430,0,626044.092,0.685,-0.677,0.194,0.188,0,0,0,0,0,0,0,0,0,0.000,0,0,0.214,0.004,0.160,-0.100,-0.100,0.014,0.991,0.012,-0.004,0.000,-0.002,0.000,0.000,0.000,0.000,0,2,0,2,7,255,1440,250,0,0,-89.491,0.638,-31.382
EX0521-092111,10,C15,prep,453,453,0,626049.091,0.685,-0.677,0.194,0.188,0,0,0,0,0,0,0,0,0,0.000,0,0,0.110,0.004,-0.020,-0.040,-0.100,0.013,0.994,0.010,-0.004,0.000,0.000,0.000,0.000,0.000,0.000,0,2,0,2,7,255,1440,250,0,0,-89.491,0.638,-31.382
EX0521-092111,10,C15,prep,453,453,0,626054.091,0.685,-0.677,0.194,0.188,0,0,0,0,0,0,0,0,0,0.000,0,0,0.208,0.004,-0.200,-0.040,-0.040,0.015,0.992,0.011,-0.004,0.002,-0.006,0.000,0.000,0.000,0.000,0,2,0,2,7,255,1440,250,0,0,-89.491,0.638,-31.382
EX0521-092111,10,C15,prep,453,453,0,626059.092,0.685,-0.677,0.194,0.188,0,0,0,0,0,0,0,0,0,0.000,0,0,0.115,0.015,0.040,-0.100,-0.040,0.013,0.992,0.010,-0.004,0.014,-0.006,0.000,0.000,0.000,0.000,0,2,0,2,7,255,1440,250,0,0,-89.492,0.638,-31.382
EX0521-092111,10,C15,prep,453,453,0,626064.092,0.685,-0.677,0.194,0.188,0,0,0,0,0,0,0,0,0,0.000,0,0,0.069,0.008,0.040,-0.040,-0.040,0.015,0.992,0.010,0.006,0.006,-0.010,0.000,0.000,0.000,0.000,0,2,0,2,7,255,1440,250,0,0,-89.492,0.638,-31.382
EX0521-092111,10,C15,prep,463,463,0,626069.094,0.685,-0.677,0.194,0.188,0,0,0,0,0,0,0,0,0,0.000,0,0,0.151,0.006,-0.140,-0.040,-0.040,0.014,0.992,0.011,0.002,0.006,-0.010,0.000,0.000,0.000,0.000,0,2,0,2,7,255,1440,250,0,0,-89.492,0.638,-31.382
EX0521-092111,10,C15,prep,463,463,0,626074.091,0.685,-0.677,0.194,0.188,0,0,0,0,0,0,0,0,0,0.000,0,0,0.115,0.004,0.040,-0.040,-0.100,0.013,0.993,0.012,0.002,0.004,-0.010,0.000,0.000,0.000,0.000,0,2,0,2,7,255,1440,250,0,0,-89.492,0.638,-31.382
EX0521-092111,10,C15,prep,463,463,0,626079.091,0.685,-0.677,0.194,0.188,0,0,0,0,0,0,0,0,0,0.000,0,0,0.147,0.004,0.100,-0.040,-0.100,0.015,0.993,0.010,0.002,0.004,0.000,0.000,0.000,0.000,0.000,0,2,0,2,7,255,1440,250,0,0,-89.492,0.638,-31.382
EX0521-092111,10,C15,prep,463,463,0,626084.092,0.685,-0.677,0.194,0.188,0,0,0,0,0,0,0,0,0,0.000,0,0,0.147,0.006,-0.140,-0.040,0.020,0.015,0.993,0.011,0.006,0.002,0.000,0.000,0.000,0.000,0.000,0,2,0,2,7,255,1440,250,0,0,-89.492,0.638,-31.382
EX0521-092111,10,C15,prep,530,530,0,626089.092,0.685,-0.677,0.194,0.188,0,0,0,0,0,0,0,0,0,0.000,0,0,0.098,0.007,-0.080,-0.040,-0.040,0.014,0.992,0.011,0.006,0.004,0.000,0.000,0.000,0.000,0.000,0,2,0,2,7,255,1440,250,0,0,-89.492,0.638,-31.382
EX0521-092111,10,C15,prep,530,530,0,626094.092,0.685,-0.677,0.194,0.188,0,0,0,0,0,0,0,0,0,0.000,0,0,0.069,0.003,0.040,-0.040,-0.040,0.014,0.991,0.011,0.002,0.002,-0.010,0.000,0.000,0.000,0.000,0,2,0,2,7,255,1440,250,0,0,-89.492,0.638,-31.382
EX0521-092111,10,C15,prep,530,530,0,626099.093,0.685,-0.677,0.194,0.188,0,0,0,0,0,0,0,0,0,0.000,0,0,0.098,0.004,-0.080,-0.040,-0.040,0.014,0.992,0.010,0.002,0.004,-0.010,0.000,0.000,0.000,0.000,0,2,0,2,7,255,1440,250,0,0,-89.492,0.637,-31.382
EX0521-092111,10,C15,prep,530,530,0,626104.092,0.685,-0.677,0.194,0.188,0,0,0,0,0,0,0,0,0,0.000,0,0,0.098,0.002,-0.080,-0.040,-0.040,0.015,0.993,0.012,-0.002,0.000,-0.006,0.000,0.000,0.000,0.000,0,2,0,2,7,255,1440,250,0,0,-89.492,0.637,-31.382
EX0521-092111,10,C15,prep,530,530,0,626109.091,0.685,-0.677,0.194,0.188,0,0,0,0,0,0,0,0,0,0.000,0,0,0.143,0.008,0.100,-0.100,-0.020,0.014,0.993,0.010,0.000,0.008,0.000,0.000,0.000,0.000,0.000,0,2,0,2,7,255,1440,250,0,0,-89.493,0.637,-31.382
EX0521-092111,10,C15,prep,530,530,0,626114.092,0.685,-0.677,0.194,0.188,0,0,0,0,0,0,0,0,0,0.000,0,0,0.049,0.002,-0.020,-0.040,-0.020,0.015,0.993,0.011,0.000,0.002,0.000,0.000,0.000,0.000,0.000,0,2,0,2,7,255,1440,250,0,0,-89.493,0.637,-31.382
EX0521-092111,10,C15,prep,530,530,0,626119.092,0.685,-0.677,0.194,0.188,0,0,0,0,0,0,0,0,0,0.000,0,0,0.147,0.004,-0.140,-0.040,-0.020,0.014,0.991,0.011,0.002,0.004,0.000,0.000,0.000,0.000,0.000,0,2,0,2,7,255,1440,250,0,0,-89.493,0.637,-31.382
EX0521-092111,10,C15,prep,530,530,0,626124.092,0.685,-0.677,0.194,0.188,0,0,0,0,0,0,0,0,0,0.000,0,0,0.060,0.003,0.040,-0.040,-0.020,0.015,0.992,0.012,0.002,0.002,-0.004,0.000,0.000,0.000,0.000,0,2,0,2,7,255,1440,250,0,0,-89.493,0.637,-31.382
EX0521-092111,10,C15,prep,531,531,0,626129.091,0.685,-0.677,0.194,0.188,0,0,0,0,0,0,0,0,0,0.000,0,0,0.049,0.004,0.040,0.020,-0.020,0.014,0.994,0.010,0.002,0.004,-0.004,0.000,0.000,0.000,0.000,0,2,0,2,7,255,1440,250,0,0,-89.493,0.637,-31.382
EX0521-092111,10,C15,prep,531,531,0,626134.091,0.685,-0.677,0.194,0.188,0,0,0,0,0,0,0,0,0,0.000,0,0,0.147,0.003,-0.140,-0.040,-0.020,0.014,0.993,0.011,-0.002,0.002,0.004,0.000,0.000,0.000,0.000,0,2,0,2,7,255,1440,250,0,0,-89.493,0.637,-31.382
EX0521-092111,10,C15,prep,532,532,0,626139.092,0.685,-0.677,0.194,0.188,0,0,0,0,0,0,0,0,0,0.000,0,0,0.060,0.004,0.040,-0.040,-0.020,0.014,0.993,0.012,-0.004,0.002,0.004,0.000,0.000,0.000,0.000,0,2,0,2,7,255,1440,250,0,0,-89.493,0.637,-31.382
EX0521-092111,10,C15,prep,532,532,0,626144.092,0.685,-0.677,0.194,0.188,0,0,0,0,0,0,0,0,0,0.000,0,0,0.060,0.006,0.040,-0.040,-0.020,0.015,0.994,0.012,-0.004,-0.004,0.004,0.000,0.000,0.000,0.000,0,2,0,2,7,255,1440,250,0,0,-89.493,0.637,-31.382
EX0521-092111,10,C15,prep,550,550,0,626149.092,0.685,-0.677,0.194,0.188,0,0,0,0,0,0,0,0,0,0.000,0,0,0.092,0.004,-0.080,-0.040,-0.020,0.015,0.993,0.011,-0.002,-0.004,0.004,0.000,0.000,0.000,0.000,0,2,0,2,7,255,1440,250,0,0,-89.493,0.637,-31.382
EX0521-092111,10,C15,prep,550,550,0,626154.091,0.685,-0.677,0.194,0.188,0,0,0,0,0,0,0,0,0,0.000,0,0,0.130,0.004,-0.080,-0.100,-0.020,0.014,0.992,0.012,-0.002,-0.004,0.004,0.000,0.000,0.000,0.000,0,2,0,2,7,255,1440,250,0,0,-89.494,0.637,-31.382
EX0521-092111,10,C15,prep,550,550,0,626159.091,0.685,-0.677,0.194,0.188,0,0,0,0,0,0,0,0,0,0.000,0,0,0.110,0.004,-0.020,-0.040,-0.100,0.013,0.993,0.012,-0.004,0.000,0.004,0.000,0.000,0.000,0.000,0,2,0,2,7,255,1440,250,0,0,-89.494,0.637,-31.382
EX0521-092111,10,C15,prep,550,550,0,626164.092,0.685,-0.677,0.194,0.188,0,0,0,0,0,0,0,0,0,0.000,0,0,0.092,0.004,-0.080,-0.040,-0.020,0.015,0.993,0.011,-0.004,0.002,0.004,0.000,0.000,0.000,0.000,0,2,0,2,7,255,1440,250,0,0,-89.494,0.637,-31.382
EX0521-092111,10,C15,prep,558,558,0,626169.093,0.685,-0.677,0.194,0.188,0,0,0,0,0,0,0,0,0,0.000,0,0,0.085,0.003,-0.080,0.020,-0.020,0.014,0.992,0.011,-0.002,0.002,0.004,0.000,0.000,0.000,0.000,0,2,0,2,7,255,1440,250,0,0,-89.494,0.637,-31.382
EX0521-092111,10,C15,prep,558,558,0,626174.092,0.685,-0.677,0.194,0.188,0,0,0,0,0,0,0,0,0,0.000,0,0,0.060,0.006,0.040,-0.040,-0.020,0.015,0.992,0.010,0.006,0.002,-0.006,0.000,0.000,0.000,0.000,0,2,0,2,7,255,1440,250,0,0,-89.494,0.637,-31.382
EX0521-092111,10,C15,prep,610,610,0,626179.091,0.685,-0.677,0.194,0.188,0,0,0,0,0,0,0,0,0,0.000,0,0,0.092,0.008,-0.080,-0.040,-0.020,0.016,0.993,0.011,0.008,0.000,-0.006,0.000,0.000,0.000,0.000,0,2,0,2,7,255,1440,250,0,0,-89.494,0.637,-31.382
EX0521-092111,10,C15,prep,610,610,0,626184.091,0.685,-0.677,0.194,0.188,0,0,0,0,0,0,0,0,0,0.000,0,0,0.130,0.013,-0.080,-0.100,-0.020,0.016,0.992,0.011,0.010,-0.008,-0.004,0.000,0.000,0.000,0.000,0,2,0,2,7,255,1440,250,0,0,-89.494,0.637,-31.382
EX0521-092111,10,C15,prep,610,610,0,626189.092,0.685,-0.677,0.194,0.188,0,0,0,0,0,0,0,0,0,0.000,0,0,0.060,0.013,0.040,-0.040,-0.020,0.014,0.993,0.010,0.010,-0.008,0.000,0.000,0.000,0.000,0.000,0,2,0,2,7,255,1440,250,0,0,-89.494,0.637,-31.382
EX0521-092111,10,C15,prep,610,610,0,626194.092,0.685,-0.677,0.194,0.188,0,0,0,0,0,0,0,0,0,0.000,0,0,0.085,0.004,-0.080,0.020,-0.020,0.014,0.992,0.011,0.002,0.004,-0.004,0.000,0.000,0.000,0.000,0,2,0,2,7,255,1440,250,0,0,-89.494,0.637,-31.382
EX0521-092111,10,C15,prep,610,610,0,626199.093,0.685,-0.677,0.194,0.188,0,0,0,0,0,0,0,0,0,0.000,0,0,0.134,0.004,-0.080,-0.100,0.040,0.015,0.992,0.011,0.002,0.004,-0.004,0.000,0.000,0.000,0.000,0,2,0,2,7,255,1440,250,0,0,-89.494,0.637,-31.382
EX0521-092111,10,C15,prep,610,610,0,626204.091,0.685,-0.677,0.194,0.188,0,0,0,0,0,0,0,0,0,0.000,0,0,0.049,0.004,0.040,0.020,-0.020,0.014,0.992,0.011,0.000,0.004,-0.006,0.000,0.000,0.000,0.000,0,2,0,2,7,255,1440,250,0,0,-89.495,0.637,-31.382
EX0521-092111,10,C15,prep,623,623,0,626209.091,0.685,-0.677,0.194,0.188,0,0,0,0,0,0,0,0,0,0.000,0,0,0.115,0.003,0.100,-0.040,-0.040,0.015,0.994,0.011,0.002,0.002,-0.004,0.000,0.000,0.000,0.000,0,2,0,2,7,255,1440,250,0,0,-89.495,0.637,-31.382
EX0521-092111,10,C15,prep,623,623,0,626214.091,0.685,-0.677,0.194,0.188,0,0,0,0,0,0,0,0,0,0.000,0,0,0.098,0.007,-0.080,-0.040,-0.040,0.015,0.993,0.010,0.004,0.006,0.000,0.000,0.000,0.000,0.000,0,2,0,2,7,255,1440,250,0,0,-89.495,0.637,-31.382
EX0521-092111,10,C15,prep,623,623,0,626219.092,0.685,-0.677,0.194,0.188,0,0,0,0,0,0,0,0,0,0.000,0,0,0.049,0.004,-0.020,0.020,-0.040,0.014,0.993,0.011,0.004,0.002,0.004,0.000,0.000,0.000,0.000,0,2,0,2,7,255,1440,250,0,0,-89.495,0.637,-31.382
EX0521-092111,10,C15,prep,623,623,0,626224.092,0.685,-0.677,0.194,0.188,0,0,0,0,0,0,0,0,0,0.000,0,0,0.060,0.008,-0.020,-0.040,-0.040,0.015,0.993,0.011,0.008,0.002,0.000,0.000,0.000,0.000,0.000,0,2,0,2,7,255,1440,250,0,0,-89.495,0.637,-31.382
EX0521-092111,10,C15,prep,623,623,0,626229.092,0.685,-0.677,0.194,0.188,0,0,0,0,0,0,0,0,0,0.000,0,0,0.110,0.002,-0.020,-0.040,-0.100,0.015,0.992,0.012,0.000,-0.002,0.000,0.000,0.000,0.000,0.000,0,2,0,2,7,255,1440,250,0,0,-89.495,0.637,-31.382
EX0521-092111,10,C15,prep,623,623,0,626234.091,0.685,-0.677,0.194,0.188,0,0,0,0,0,0,0,0,0,0.000,0,0,0.110,0.008,-0.020,-0.040,-0.100,0.015,0.992,0.009,0.008,-0.002,-0.010,0.000,0.000,0.000,0.000,0,2,0,2,7,255,1440,250,0,0,-89.495,0.637,-31.382
EX0521-092111,10,C15,prep,639,639,0,626239.092,0.685,-0.677,0.194,0.188,0,0,0,0,0,0,0,0,0,0.000,0,0,0.069,0.004,0.040,-0.040,-0.040,0.014,0.993,0.011,0.000,0.004,-0.010,0.000,0.000,0.000,0.000,0,2,0,2,7,255,1440,250,0,0,-89.495,0.637,-31.382
EX0521-092111,10,C15,prep,639,639,0,626244.092,0.685,-0.677,0.194,0.188,0,0,0,0,0,0,0,0,0,0.000,0,0,0.060,0.006,-0.020,-0.040,-0.040,0.014,0.994,0.011,0.000,0.006,0.004,0.000,0.000,0.000,0.000,0,2,0,2,7,255,1440,250,0,0,-89.495,0.637,-31.382
EX0521-092111,10,C15,prep,639,639,0,626249.092,0.685,-0.677,0.194,0.188,0,0,0,0,0,0,0,0,0,0.000,0,0,0.085,0.006,-0.080,0.020,0.020,0.014,0.992,0.012,-0.004,0.004,0.004,0.000,0.000,0.000,0.000,0,2,0,2,7,255,1440,250,0,0,-89.495,0.637,-31.382
EX0521-092111,10,C15,prep,639,639,0,626254.092,0.685,-0.677,0.194,0.188,0,0,0,0,0,0,0,0,0,0.000,0,0,0.069,0.006,0.040,-0.040,-0.040,0.014,0.992,0.011,-0.004,0.004,-0.004,0.000,0.000,0.000,0.000,0,2,0,2,7,255,1440,250,0,0,-89.496,0.637,-31.382
EX0521-092111,10,C15,prep,658,658,0,626259.091,0.685,-0.677,0.194,0.188,0,0,0,0,0,0,0,0,0,0.000,0,0,0.035,0.006,-0.020,0.020,-0.020,0.014,0.992,0.011,-0.004,0.004,-0.004,0.000,0.000,0.000,0.000,0,2,0,2,7,255,1440,250,0,0,-89.496,0.637,-31.382
EX0521-092111,10,C15,prep,658,658,0,626264.091,0.685,-0.677,0.194,0.188,0,0,0,0,0,0,0,0,0,0.000,0,0,0.092,0.004,-0.080,-0.040,-0.020,0.014,0.993,0.011,-0.002,0.004,-0.004,0.000,0.000,0.000,0.000,0,2,0,2,7,255,1440,250,0,0,-89.496,0.637,-31.382
EX0521-092111,10,C15,prep,671,671,0,626269.092,0.685,-0.677,0.194,0.188,0,0,0,0,0,0,0,0,0,0.000,0,0,0.060,0.004,0.040,-0.040,-0.020,0.014,0.993,0.012,-0.004,0.000,0.000,0.000,0.000,0.000,0.000,0,2,0,2,7,255,1440,250,0,0,-89.496,0.637,-31.382
EX0521-092111,10,C15,prep,671,671,0,626274.092,0.685,-0.677,0.194,0.188,0,0,0,0,0,0,0,0,0,0.000,0,0,0.104,0.002,-0.020,-0.100,-0.020,0.016,0.993,0.010,-0.002,0.000,0.000,0.000,0.000,0.000,0.000,0,2,0,2,7,255,1440,250,0,0,-89.496,0.637,-31.382
EX0521-092111,10,C15,prep,671,671,0,626279.092,0.685,-0.677,0.194,0.188,0,0,0,0,0,0,0,0,0,0.000,0,0,0.092,0.004,-0.080,-0.040,-0.020,0.014,0.992,0.011,-0.004,0.000,0.000,0.000,0.000,0.000,0.000,0,2,0,2,7,255,1440,250,0,0,-89.496,0.637,-31.382
EX0521-092111,10,C15,prep,671,671,0,626284.091,0.685,-0.677,0.194,0.188,0,0,0,0,0,0,0,0,0,0.000,0,0,0.049,0.006,-0.020,-0.040,-0.020,0.014,0.993,0.010,0.002,0.006,0.000,0.000,0.000,0.000,0.000,0,2,0,2,7,255,1440,250,0,0,-89.496,0.637,-31.382
EX0521-092111,10,C15,prep,703,703,0,626289.091,0.685,-0.677,0.194,0.188,0,0,0,0,0,0,0,0,0,0.000,0,0,0.049,0.006,-0.020,-0.040,-0.020,0.015,0.994,0.011,0.002,0.006,0.000,0.000,0.000,0.000,0.000,0,2,0,2,7,255,1440,250,0,0,-89.496,0.637,-31.382
EX0521-092111,10,C15,prep,703,703,0,626294.091,0.685,-0.677,0.194,0.188,0,0,0,0,0,0,0,0,0,0.000,0,0,0.085,0.004,-0.080,0.020,-0.020,0.015,0.993,0.011,0.004,0.000,0.000,0.000,0.000,0.000,0.000,0,2,0,2,7,255,1440,250,0,0,-89.496,0.637,-31.382
EX0521-092111,10,C15,prep,703,703,0,626299.094,0.685,-0.677,0.194,0.188,0,0,0,0,0,0,0,0,0,0.000,0,0,0.049,0.004,-0.020,-0.040,-0.020,0.014,0.992,0.011,0.004,0.000,0.000,0.000,0.000,0.000,0.000,0,2,0,2,7,255,1440,250,0,0,-89.497,0.637,-31.382
EX0521-092111,10,C15,prep,703,703,0,626304.092,0.685,-0.677,0.194,0.188,0,0,0,0,0,0,0,0,0,0.000,0,0,0.060,0.004,0.040,-0.040,-0.020,0.014,0.993,0.010,0.002,0.004,0.000,0.000,0.000,0.000,0.000,0,2,0,2,7,255,1440,250,0,0,-89.497,0.637,-31.382
EX0521-092111,10,C15,prep,703,703,0,626309.092,0.685,-0.677,0.194,0.188,0,0,0,0,0,0,0,0,0,0.000,0,0,0.069,0.004,0.040,-0.040,-0.040,0.014,0.993,0.011,0.000,0.004,0.000,0.000,0.000,0.000,0.000,0,2,0,2,7,255,1440,250,0,0,-89.497,0.637,-31.382
EX0521-092111,10,C15,prep,703,703,0,626314.091,0.685,-0.677,0.194,0.188,0,0,0,0,0,0,0,0,0,0.000,0,0,0.110,0.003,-0.020,-0.040,-0.100,0.015,0.993,0.010,0.002,0.002,0.000,0.000,0.000,0.000,0.000,0,2,0,2,7,255,1440,250,0,0,-89.497,0.637,-31.382
EX0521-092111,10,C15,prep,719,719,0,626319.091,0.685,-0.677,0.194,0.188,0,0,0,0,0,0,0,0,0,0.000,0,0,0.115,0.002,0.040,-0.040,-0.100,0.014,0.993,0.011,0.000,0.002,0.004,0.000,0.000,0.000,0.000,0,2,0,2,7,255,1440,250,0,0,-89.497,0.637,-31.382
EX0521-092111,10,C15,prep,719,719,0,626324.092,0.685,-0.677,0.194,0.188,0,0,0,0,0,0,0,0,0,0.000,0,0,0.060,0.002,-0.020,-0.040,-0.040,0.014,0.993,0.011,0.000,0.002,0.004,0.000,0.000,0.000,0.000,0,2,0,2,7,255,1440,250,0,0,-89.497,0.637,-31.382
EX0521-092111,10,C15,prep,720,720,0,626329.092,0.685,-0.677,0.194,0.188,0,0,0,0,0,0,0,0,0,0.000,0,0,0.134,0.003,-0.080,-0.040,-0.100,0.014,0.994,0.012,-0.002,-0.002,0.004,0.000,0.000,0.000,0.000,0,2,0,2,7,255,1440,250,0,0,-89.497,0.637,-31.382
EX0521-092111,10,C15,prep,720,720,0,626334.092,0.685,-0.677,0.194,0.188,0,0,0,0,0,0,0,0,0,0.000,0,0,0.060,0.004,-0.020,-0.040,-0.040,0.015,0.993,0.011,-0.002,-0.004,0.000,0.000,0.000,0.000,0.000,0,2,0,2,7,255,1440,250,0,0,-89.497,0.637,-31.382
EX0521-092111,10,C15,prep,734,734,0,626339.092,0.685,-0.677,0.194,0.188,0,0,0,0,0,0,0,0,0,0.000,0,0,0.060,0.004,0.040,0.020,-0.040,0.014,0.993,0.011,-0.002,-0.004,0.000,0.000,0.000,0.000,0.000,0,2,0,2,7,255,1440,250,0,0,-89.497,0.636,-31.382
EX0521-092111,10,C15,prep,734,734,0,626344.091,0.685,-0.677,0.194,0.188,0,0,0,0,0,0,0,0,0,0.000,0,0,0.098,0.004,-0.080,-0.040,-0.040,0.014,0.994,0.012,-0.002,-0.004,0.000,0.000,0.000,0.000,0.000,0,2,0,2,7,255,1440,250,0,0,-89.497,0.636,-31.382
EX0521-092111,10,C15,prep,734,734,0,626349.092,0.685,-0.677,0.194,0.188,0,0,0,0,0,0,0,0,0,0.000,0,0,0.060,0.002,-0.020,-0.040,-0.040,0.014,0.993,0.011,-0.002,0.000,0.000,0.000,0.000,0.000,0.000,0,2,0,2,7,255,1440,250,0,0,-89.498,0.636,-31.382
EX0521-092111,10,C15,prep,734,734,0,626354.092,0.685,-0.677,0.194,0.188,0,0,0,0,0,0,0,0,0,0.000,0,0,0.060,0.006,0.040,0.020,-0.040,0.015,0.993,0.012,0.000,-0.006,0.000,0.000,0.000,0.000,0.000,0,2,0,2,7,255,1440,250,0,0,-89.498,0.636,-31.382
EX0521-092111,10,C15,prep,753,753,0,626359.093,0.685,-0.677,0.194,0.188,0,0,0,0,0,0,0,0,0,0.000,0,0,0.098,0.014,-0.080,-0.040,-0.040,0.015,0.992,0.012,0.002,-0.014,0.000,0.000,0.000,0.000,0.000,0,2,0,2,7,255,1440,250,0,0,-89.498,0.636,-31.382
EX0521-092111,10,C15,prep,753,753,0,626364.091,0.685,-0.677,0.194,0.188,0,0,0,0,0,0,0,0,0,0.000,0,0,0.060,0.014,-0.020,-0.040,-0.040,0.014,0.993,0.011,0.002,-0.014,0.000,0.000,0.000,0.000,0.000,0,2,0,2,7,255,1440,250,0,0,-89.498,0.636,-31.382
EX0521-092111,10,C15,prep,766,766,0,626369.093,0.685,-0.677,0.194,0.188,0,0,0,0,0,0,0,0,0,0.000,0,0,0.069,0.002,0.040,-0.040,-0.040,0.015,0.992,0.010,0.002,0.000,-0.004,0.000,0.000,0.000,0.000,0,2,0,2,7,255,1440,250,0,0,-89.498,0.636,-31.382
EX0521-092111,10,C15,prep,766,766,0,626374.092,0.685,-0.677,0.194,0.188,0,0,0,0,0,0,0,0,0,0.000,0,0,0.162,0.004,-0.080,-0.100,-0.100,0.014,0.993,0.011,0.000,0.004,0.000,0.000,0.000,0.000,0.000,0,2,0,2,7,255,1440,250,0,0,-89.498,0.636,-31.382
EX0521-092111,10,C15,prep,766,766,0,626379.092,0.685,-0.677,0.194,0.188,0,0,0,0,0,0,0,0,0,0.000,0,0,0.134,0.007,-0.080,-0.040,-0.100,0.015,0.993,0.011,0.006,0.004,0.000,0.000,0.000,0.000,0.000,0,2,0,2,7,255,1440,250,0,0,-89.498,0.636,-31.382
EX0521-092111,10,C15,prep,766,766,0,626384.092,0.685,-0.677,0.194,0.188,0,0,0,0,0,0,0,0,0,0.000,0,0,0.060,0.007,-0.020,-0.040,-0.040,0.014,0.993,0.010,0.006,0.004,0.004,0.000,0.000,0.000,0.000,0,2,0,2,7,255,1440,250,0,0,-89.498,0.636,-31.382
EX0521-092111,10,C15,prep,798,798,0,626389.091,0.685,-0.677,0.194,0.188,0,0,0,0,0,0,0,0,0,0.000,0,0,0.110,0.006,-0.020,-0.040,-0.100,0.015,0.993,0.011,0.006,0.000,0.004,0.000,0.000,0.000,0.000,0,2,0,2,7,255,1440,250,0,0,-89.498,0.636,-31.382
EX0521-092111,10,C15,prep,798,798,0,626394.091,0.685,-0.677,0.194,0.188,0,0,0,0,0,0,0,0,0,0.000,0,0,0.134,0.006,-0.080,-0.040,-0.100,0.014,0.993,0.011,0.004,0.004,0.004,0.000,0.000,0.000,0.000,0,2,0,2,7,255,1440,250,0,0,-89.499,0.636,-31.382
EX0521-092111,10,C15,prep,798,798,0,626399.093,0.685,-0.677,0.194,0.188,0,0,0,0,0,0,0,0,0,0.000,0,0,0.110,0.000,0.040,-0.100,0.020,0.014,0.992,0.011,0.000,0.000,0.000,0.000,0.000,0.000,0.000,0,2,0,2,7,255,1440,250,0,0,-89.499,0.636,-31.382
EX0521-092111,10,C15,prep,798,798,0,626404.092,0.685,-0.677,0.194,0.188,0,0,0,0,0,0,0,0,0,0.000,0,0,0.110,0.004,-0.020,-0.100,-0.040,0.014,0.993,0.011,0.000,0.004,0.000,0.000,0.000,0.000,0.000,0,2,0,2,7,255,1440,250,0,0,-89.499,0.636,-31.382
EX0521-092111,10,C15,prep,798,798,0,626409.092,0.685,-0.677,0.194,0.188,0,0,0,0,0,0,0,0,0,0.000,0,0,0.069,0.003,0.040,-0.040,-0.040,0.014,0.993,0.012,-0.002,-0.002,0.000,0.000,0.000,0.000,0.000,0,2,0,2,7,255,1440,250,0,0,-89.499,0.636,-31.382
EX0521-092111,10,C15,prep,798,798,0,626414.091,0.685,-0.677,0.194,0.188,0,0,0,0,0,0,0,0,0,0.000,0,0,0.069,0.006,0.040,-0.040,0.040,0.015,0.994,0.011,0.000,-0.006,0.004,0.000,0.000,0.000,0.000,0,2,0,2,7,255,1440,250,0,0,-89.499,0.636,-31.382
EX0521-092111,10,C15,prep,819,819,0,626419.091,0.685,-0.677,0.194,0.188,0,0,0,0,0,0,0,0,0,0.000,0,0,0.069,0.006,0.040,-0.040,-0.040,0.014,0.993,0.011,-0.002,-0.006,0.004,0.000,0.000,0.000,0.000,0,2,0,2,7,255,1440,250,0,0,-89.499,0.636,-31.382
EX0521-092111,10,C15,prep,819,819,0,626424.091,0.685,-0.677,0.194,0.188,0,0,0,0,0,0,0,0,0,0.000,0,0,0.092,0.007,-0.080,0.020,-0.040,0.015,0.993,0.012,0.004,-0.006,0.004,0.000,0.000,0.000,0.000,0,2,0,2,7,255,1440,250,0,0,-89.499,0.636,-31.382
EX0521-092111,10,C15,prep,820,820,0,626429.092,0.685,-0.677,0.194,0.188,0,0,0,0,0,0,0,0,0,0.000,0,0,0.098,0.010,-0.080,-0.040,-0.040,0.014,0.992,0.012,-0.002,-0.010,0.000,0.000,0.000,0.000,0.000,0,2,0,2,7,255,1440,250,0,0,-89.499,0.636,-31.382
EX0521-092111,10,C15,prep,820,820,0,626434.092,0.685,-0.677,0.194,0.188,0,0,0,0,0,0,0,0,0,0.000,0,0,0.060,0.010,-0.020,-0.040,0.040,0.014,0.992,0.010,0.002,-0.010,-0.006,0.000,0.000,0.000,0.000,0,2,0,2,7,255,1440,250,0,0,-89.499,0.636,-31.382
EX0521-092111,10,C15,prep,830,830,0,626439.092,0.685,-0.677,0.194,0.188,0,0,0,0,0,0,0,0,0,0.000,0,0,0.060,0.006,-0.020,-0.040,-0.040,0.014,0.993,0.011,-0.006,0.002,-0.006,0.000,0.000,0.000,0.000,0,2,0,2,7,255,1440,250,0,0,-89.499,0.636,-31.382
EX0521-092111,10,C15,prep,830,830,0,626444.091,0.685,-0.677,0.194,0.188,0,0,0,0,0,0,0,0,0,0.000,0,0,0.049,0.003,-0.020,0.020,0.040,0.015,0.992,0.011,0.002,0.002,-0.006,0.000,0.000,0.000,0.000,0,2,0,2,7,255,1440,250,0,0,-89.500,0.636,-31.382
EX0521-092111,10,C15,prep,852,852,0,626449.091,0.685,-0.677,0.194,0.188,0,0,0,0,0,0,0,0,0,0.000,0,0,0.069,0.006,0.040,-0.040,-0.040,0.015,0.993,0.011,0.006,-0.002,0.004,0.000,0.000,0.000,0.000,0,2,0,2,7,255,1440,250,0,0,-89.500,0.636,-31.382
EX0521-092111,10,C15,prep,852,852,0,626454.092,0.685,-0.677,0.194,0.188,0,0,0,0,0,0,0,0,0,0.000,0,0,0.060,0.008,-0.020,-0.040,-0.040,0.015,0.994,0.011,0.006,-0.006,0.004,0.000,0.000,0.000,0.000,0,2,0,2,7,255,1440,250,0,0,-89.500,0.636,-31.382
EX0521-092111,10,C15,prep,852,852,0,626459.092,0.685,-0.677,0.194,0.188,0,0,0,0,0,0,0,0,0,0.000,0,0,0.049,0.008,-0.020,0.020,0.040,0.014,0.993,0.011,0.006,-0.006,0.004,0.000,0.000,0.000,0.000,0,2,0,2,7,255,1440,250,0,0,-89.500,0.636,-31.382
EX0521-092111,10,C15,prep,852,852,0,626464.092,0.685,-0.677,0.194,0.188,0,0,0,0,0,0,0,0,0,0.000,0,0,0.060,0.002,-0.020,-0.040,-0.040,0.014,0.993,0.012,0.000,-0.002,0.000,0.000,0.000,0.000,0.000,0,2,0,2,7,255,1440,250,0,0,-89.500,0.636,-31.382
EX0521-092111,10,C15,prep,862,862,0,626469.091,0.685,-0.677,0.194,0.188,0,0,0,0,0,0,0,0,0,0.000,0,0,0.060,0.004,-0.020,-0.040,-0.040,0.014,0.993,0.010,0.000,0.004,0.000,0.000,0.000,0.000,0.000,0,2,0,2,7,255,1440,250,0,0,-89.500,0.636,-31.382
EX0521-092111,10,C15,prep,862,862,0,626474.091,0.685,-0.677,0.194,0.188,0,0,0,0,0,0,0,0,0,0.000,0,0,0.060,0.003,-0.020,-0.040,-0.040,0.015,0.994,0.010,0.002,0.002,0.000,0.000,0.000,0.000,0.000,0,2,0,2,7,255,1440,250,0,0,-89.500,0.636,-31.382
EX0521-092111,10,C15,prep,895,895,0,626479.092,0.685,-0.677,0.194,0.188,0,0,0,0,0,0,0,0,0,0.000,0,0,0.060,0.006,-0.020,-0.040,-0.040,0.015,0.993,0.011,0.006,0.002,0.004,0.000,0.000,0.000,0.000,0,2,0,2,7,255,1440,250,0,0,-89.500,0.636,-31.382
EX0521-092111,10,C15,prep,895,895,0,626484.092,0.685,-0.677,0.194,0.188,0,0,0,0,0,0,0,0,0,0.000,0,0,0.060,0.006,-0.020,-0.040,-0.040,0.014,0.994,0.011,0.006,0.002,0.008,0.000,0.000,0.000,0.000,0,2,0,2,7,255,1440,250,0,0,-89.500,0.636,-31.382
EX0521-092111,10,C15,prep,895,895,0,626489.092,0.685,-0.677,0.194,0.188,0,0,0,0,0,0,0,0,0,0.000,0,0,0.049,0.002,-0.020,0.020,-0.040,0.014,0.993,0.011,0.000,0.002,0.004,0.000,0.000,0.000,0.000,0,2,0,2,7,255,1440,250,0,0,-89.501,0.636,-31.382
EX0521-092111,10,C15,prep,895,895,0,626494.091,0.685,-0.677,0.194,0.188,0,0,0,0,0,0,0,0,0,0.000,0,0,0.069,0.002,0.040,-0.040,-0.040,0.015,0.994,0.012,0.000,0.002,0.008,0.000,0.000,0.000,0.000,0,2,0,2,7,255,1440,250,0,0,-89.501,0.636,-31.382
EX0521-092111,10,C15,prep,895,895,0,626499.095,0.685,-0.677,0.194,0.188,0,0,0,0,0,0,0,0,0,0.000,0,0,0.060,0.003,-0.020,-0.040,-0.040,0.014,0.992,0.011,-0.002,-0.002,0.000,0.000,0.000,0.000,0.000,0,2,0,2,7,255,1440,250,0,0,-89.501,0.636,-31.382
EX0521-092111,10,C15,prep,895,895,0,626504.092,0.685,-0.677,0.194,0.188,0,0,0,0,0,0,0,0,0,0.000,0,0,0.060,0.003,-0.020,-0.040,-0.040,0.014,0.992,0.011,-0.002,-0.002,-0.006,0.000,0.000,0.000,0.000,0,2,0,2,7,255,1440,250,0,0,-89.501,0.636,-31.382
EX0521-092111,10,C15,prep,923,923,0,626509.092,0.685,-0.677,0.194,0.188,0,0,0,0,0,0,0,0,0,0.000,0,0,0.134,0.003,-0.080,-0.040,-0.100,0.014,0.993,0.011,-0.002,-0.002,-0.006,0.000,0.000,0.000,0.000,0,2,0,2,7,255,1440,250,0,0,-89.501,0.636,-31.382
EX0521-092111,10,C15,prep,923,923,0,626514.092,0.685,-0.677,0.194,0.188,0,0,0,0,0,0,0,0,0,0.000,0,0,0.060,0.002,0.040,-0.040,-0.020,0.014,0.992,0.011,-0.002,0.000,-0.006,0.000,0.000,0.000,0.000,0,2,0,2,7,255,1440,250,0,0,-89.501,0.636,-31.382
EX0521-092111,10,C15,prep,924,924,0,626519.091,0.685,-0.677,0.194,0.188,0,0,0,0,0,0,0,0,0,0.000,0,0,0.049,0.002,-0.020,-0.040,-0.020,0.014,0.993,0.011,-0.002,0.000,0.000,0.000,0.000,0.000,0.000,0,2,0,2,7,255,1440,250,0,0,-89.501,0.636,-31.382
EX0521-092111,10,C15,prep,924,924,0,626524.091,0.685,-0.677,0.194,0.188,0,0,0,0,0,0,0,0,0,0.000,0,0,0.049,0.004,-0.020,-0.040,-0.020,0.014,0.994,0.011,-0.004,0.002,0.000,0.000,0.000,0.000,0.000,0,2,0,2,7,255,1440,250,0,0,-89.501,0.636,-31.382
EX0521-092111,10,C15,prep,925,925,0,626529.092,0.685,-0.677,0.194,0.188,0,0,0,0,0,0,0,0,0,0.000,0,0,0.110,0.006,-0.020,-0.040,-0.100,0.014,0.994,0.012,-0.006,-0.002,0.008,0.000,0.000,0.000,0.000,0,2,0,2,7,255,1440,250,0,0,-89.501,0.636,-31.382
EX0521-092111,10,C15,prep,925,925,0,626534.092,0.685,-0.677,0.194,0.188,0,0,0,0,0,0,0,0,0,0.000,0,0,0.049,0.006,-0.020,-0.040,-0.020,0.014,0.993,0.011,-0.006,0.002,0.008,0.000,0.000,0.000,0.000,0,2,0,2,7,255,1440,250,0,0,-89.501,0.636,-31.382
EX0521-092111,10,C15,prep,956,956,0,626539.092,0.685,-0.677,0.194,0.188,0,0,0,0,0,0,0,0,0,0.000,0,0,0.110,0.006,0.040,0.020,-0.100,0.015,0.994,0.010,-0.004,0.004,0.008,0.000,0.000,0.000,0.000,0,2,0,2,7,255,1440,250,0,0,-89.502,0.636,-31.382
EX0521-092111,10,C15,prep,956,956,0,626544.091,0.685,-0.677,0.194,0.188,0,0,0,0,0,0,0,0,0,0.000,0,0,0.060,0.006,0.040,-0.040,-0.020,0.014,0.993,0.012,-0.004,0.004,0.004,0.000,0.000,0.000,0.000,0,2,0,2,7,255,1440,250,0,0,-89.502,0.636,-31.382
EX0521-092111,10,C15,prep,956,956,0,626549.091,0.685,-0.677,0.194,0.188,0,0,0,0,0,0,0,0,0,0.000,0,0,0.049,0.006,-0.020,-0.040,-0.020,0.015,0.994,0.011,0.006,-0.002,0.008,0.000,0.000,0.000,0.000,0,2,0,2,7,255,1440,250,0,0,-89.502,0.636,-31.382
EX0521-092111,10,C15,prep,956,956,0,626554.092,0.685,-0.677,0.194,0.188,0,0,0,0,0,0,0,0,0,0.000,0,0,0.049,0.003,-0.020,-0.040,-0.020,0.014,0.992,0.011,-0.002,-0.002,0.004,0.000,0.000,0.000,0.000,0,2,0,2,7,255,1440,250,0,0,-89.502,0.636,-31.382
EX0521-092111,10,C15,prep,956,956,0,626559.093,0.685,-0.677,0.194,0.188,0,0,0,0,0,0,0,0,0,0.000,0,0,0.049,0.003,-0.020,-0.040,-0.020,0.013,0.992,0.011,-0.002,-0.002,-0.006,0.000,0.000,0.000,0.000,0,2,0,2,7,255,1440,250,0,0,-89.502,0.636,-31.382
EX0521-092111,10,C15,prep,956,956,0,626564.092,0.685,-0.677,0.194,0.188,0,0,0,0,0,0,0,0,0,0.000,0,0,0.104,0.007,-0.020,-0.100,-0.020,0.014,0.994,0.011,-0.004,0.006,-0.006,0.000,0.000,0.000,0.000,0,2,0,2,7,255,1440,250,0,0,-89.502,0.636,-31.382
EX0521-092111,10,C15,prep,989,989,0,626569.094,0.685,-0.677,0.194,0.188,0,0,0,0,0,0,0,0,0,0.000,0,0,0.049,0.007,0.040,0.020,-0.020,0.015,0.994,0.010,-0.004,0.006,0.008,0.000,0.000,0.000,0.000,0,2,0,2,7,255,1440,250,0,0,-89.502,0.636,-31.382
EX0521-092111,10,C15,prep,989,989,0,626574.091,0.685,-0.677,0.194,0.188,0,0,0,0,0,0,0,0,0,0.000,0,0,0.049,0.004,-0.020,-0.040,-0.020,0.014,0.993,0.011,-0.004,0.002,0.008,0.000,0.000,0.000,0.000,0,2,0,2,7,255,1440,250,0,0,-89.502,0.636,-31.382
EX0521-092111,10,C15,prep,989,989,0,626579.091,0.685,-0.677,0.194,0.188,0,0,0,0,0,0,0,0,0,0.000,0,0,0.035,0.004,-0.020,0.020,-0.020,0.014,0.993,0.011,-0.004,0.002,-0.002,0.000,0.000,0.000,0.000,0,2,0,2,7,255,1440,250,0,0,-89.502,0.636,-31.382
EX0521-092111,10,C15,prep,989,989,0,626584.092,0.685,-0.677,0.194,0.188,0,0,0,0,0,0,0,0,0,0.000,0,0,0.134,0.008,-0.080,-0.040,-0.100,0.013,0.993,0.011,-0.006,0.006,-0.002,0.000,0.000,0.000,0.000,0,2,0,2,7,255,1440,250,0,0,-89.502,0.635,-31.382
EX0521-092111,10,C15,prep,1022,1022,0,626589.092,0.685,-0.677,0.194,0.188,0,0,0,0,0,0,0,0,0,0.000,0,0,0.092,0.009,-0.080,-0.040,-0.020,0.014,0.993,0.010,-0.004,0.008,-0.002,0.000,0.000,0.000,0.000,0,2,0,2,7,255,1440,250,0,0,-89.503,0.635,-31.382
EX0521-092111,10,C15,prep,1022,1022,0,626594.092,0.685,-0.677,0.194,0.188,0,0,0,0,0,0,0,0,0,0.000,0,0,0.049,0.008,-0.020,-0.040,-0.020,0.015,0.994,0.012,-0.002,0.008,0.004,0.000,0.000,0.000,0.000,0,2,0,2,7,255,1440,250,0,0,-89.503,0.635,-31.382
EX0521-092111,10,C15,prep,1022,1022,0,626599.093,0.685,-0.677,0.194,0.188,0,0,0,0,0,0,0,0,0,0.000,0,0,0.110,0.008,0.040,-0.100,-0.020,0.013,0.994,0.011,-0.002,0.008,0.008,0.000,0.000,0.000,0.000,0,2,0,2,7,255,1440,250,0,0,-89.503,0.635,-31.382
EX0521-092111,10,C15,prep,1022,1022,0,626604.091,0.685,-0.677,0.194,0.188,0,0,0,0,0,0,0,0,0,0.000,0,0,0.060,0.009,0.040,-0.040,-0.020,0.013,0.994,0.011,-0.008,0.004,0.008,0.000,0.000,0.000,0.000,0,2,0,2,7,255,1440,250,0,0,-89.503,0.635,-31.382
EX0521-092111,10,C15,prep,1022,1022,0,626609.092,0.685,-0.677,0.194,0.188,0,0,0,0,0,0,0,0,0,0.000,0,0,0.060,0.009,0.040,-0.040,-0.020,0.014,0.993,0.012,-0.008,0.004,0.008,0.000,0.000,0.000,0.000,0,2,0,2,7,255,1440,250,0,0,-89.503,0.635,-31.382
EX0521-092111,10,C15,prep,1022,1022,0,626614.092,0.685,-0.677,0.194,0.188,0,0,0,0,0,0,0,0,0,0.000,0,0,0.049,0.004,-0.020,-0.040,-0.020,0.014,0.993,0.011,-0.004,-0.002,-0.002,0.000,0.000,0.000,0.000,0,2,0,2,7,255,1440,250,0,0,-89.503,0.635,-31.382
EX0521-092111,10,C15,prep,1023,1023,0,626619.092,0.685,-0.677,0.194,0.188,0,0,0,0,0,0,0,0,0,0.000,0,0,0.092,0.003,-0.080,-0.040,-0.020,0.014,0.992,0.010,-0.002,-0.002,-0.002,0.000,0.000,0.000,0.000,0,2,0,2,7,255,1440,250,0,0,-89.503,0.635,-31.382
EX0521-092111,10,C15,prep,1023,1023,0,626624.091,0.685,-0.677,0.194,0.188,0,0,0,0,0,0,0,0,0,0.000,0,0,0.049,0.008,-0.020,-0.040,-0.020,0.014,0.993,0.010,-0.002,0.008,-0.002,0.000,0.000,0.000,0.000,0,2,0,2,7,255,1440,250,0,0,-89.503,0.635,-31.382
EX0521-092111,10,C15,prep,1024,1024,0,626629.091,0.685,-0.677,0.194,0.188,0,0,0,0,0,0,0,0,0,0.000,0,0,0.110,0.008,-0.020,-0.100,0.040,0.014,0.994,0.011,-0.002,0.008,0.004,0.000,0.000,0.000,0.000,0,2,0,2,7,255,1440,250,0,0,-89.503,0.635,-31.382
EX0521-092111,10,C15,prep,1024,1024,0,626634.092,0.685,-0.677,0.194,0.188,0,0,0,0,0,0,0,0,0,0.000,0,0,0.092,0.002,-0.080,-0.040,-0.020,0.015,0.991,0.011,-0.002,0.000,0.004,0.000,0.000,0.000,0.000,0,2,0,2,7,255,1440,250,0,0,-89.504,0.635,-31.382
EX0521-092111,10,C15,prep,1038,1038,0,626639.092,0.685,-0.677,0.194,0.188,0,0,0,0,0,0,0,0,0,0.000,0,0,0.060,0.003,0.040,-0.040,-0.020,0.015,0.993,0.012,-0.002,-0.002,-0.002,0.000,0.000,0.000,0.000,0,2,0,2,7,255,1440,250,0,0,-89.504,0.635,-31.382
EX0521-092111,10,C15,prep,1038,1038,0,626644.092,0.685,-0.677,0.194,0.188,0,0,0,0,0,0,0,0,0,0.000,0,0,0.049,0.002,-0.020,-0.040,-0.020,0.013,0.993,0.010,-0.002,0.000,-0.002,0.000,0.000,0.000,0.000,0,2,0,2,7,255,1440,250,0,0,-89.504,0.635,-31.382
EX0521-092111,10,C15,prep,1038,1038,0,626649.091,0.685,-0.677,0.194,0.188,0,0,0,0,0,0,0,0,0,0.000,0,0,0.049,0.003,-0.020,0.020,0.040,0.014,0.993,0.011,-0.002,0.002,-0.002,0.000,0.000,0.000,0.000,0,2,0,2,7,255,1440,250,0,0,-89.504,0.635,-31.382
EX0521-092111,10,C15,prep,1038,1038,0,626654.091,0.685,-0.677,0.194,0.188,0,0,0,0,0,0,0,0,0,0.000,0,0,0.060,0.008,0.040,-0.040,-0.020,0.014,0.995,0.010,-0.002,0.008,-0.002,0.000,0.000,0.000,0.000,0,2,0,2,7,255,1440,250,0,0,-89.504,0.635,-31.382
EX0521-092111,10,C15,prep,1055,1055,0,626659.092,0.685,-0.677,0.194,0.188,0,0,0,0,0,0,0,0,0,0.000,0,0,0.115,0.002,0.040,-0.100,-0.040,0.015,0.992,0.011,0.000,0.002,-0.002,0.000,0.000,0.000,0.000,0,2,0,2,7,255,1440,250,0,0,-89.504,0.635,-31.382
EX0521-092111,10,C15,prep,1055,1055,0,626664.092,0.685,-0.677,0.194,0.188,0,0,0,0,0,0,0,0,0,0.000,0,0,0.060,0.004,-0.020,-0.040,-0.040,0.015,0.994,0.011,0.004,0.000,0.012,0.000,0.000,0.000,0.000,0,2,0,2,7,255,1440,250,0,0,-89.504,0.635,-31.382
EX0521-092111,10,C15,prep,1070,1070,0,626669.092,0.685,-0.677,0.194,0.188,0,0,0,0,0,0,0,0,0,0.000,0,0,0.049,0.004,-0.020,0.020,-0.040,0.015,0.993,0.011,0.004,0.000,-0.002,0.000,0.000,0.000,0.000,0,2,0,2,7,255,1440,250,0,0,-89.504,0.635,-31.382
EX0521-092111,10,C15,prep,1070,1070,0,626674.091,0.685,-0.677,0.194,0.188,0,0,0,0,0,0,0,0,0,0.000,0,0,0.049,0.004,-0.020,0.020,-0.040,0.015,0.993,0.011,0.004,0.000,0.004,0.000,0.000,0.000,0.000,0,2,0,2,7,255,1440,250,0,0,-89.504,0.635,-31.382
EX0521-092111,10,C15,prep,1070,1070,0,626679.091,0.685,-0.677,0.194,0.188,0,0,0,0,0,0,0,0,0,0.000,0,0,0.060,0.004,-0.020,-0.040,-0.040,0.015,0.993,0.011,0.004,-0.002,0.004,0.000,0.000,0.000,0.000,0,2,0,2,7,255,1440,250,0,0,-89.504,0.635,-31.382
EX0521-092111,10,C15,prep,1070,1070,0,626684.092,0.685,-0.677,0.194,0.188,0,0,0,0,0,0,0,0,0,0.000,0,0,0.060,0.003,-0.020,-0.040,-0.040,0.014,0.993,0.011,0.002,-0.002,0.004,0.000,0.000,0.000,0.000,0,2,0,2,7,255,1440,250,0,0,-89.505,0.635,-31.382
EX0521-092111,10,C15,prep,1103,1103,0,626689.092,0.685,-0.677,0.194,0.188,0,0,0,0,0,0,0,0,0,0.000,0,0,0.069,0.003,0.040,-0.040,-0.040,0.015,0.992,0.011,0.002,-0.002,-0.002,0.000,0.000,0.000,0.000,0,2,0,2,7,255,1440,250,0,0,-89.505,0.635,-31.382
EX0521-092111,10,C15,prep,1103,1103,0,626694.092,0.685,-0.677,0.194,0.188,0,0,0,0,0,0,0,0,0,0.000,0,0,0.060,0.002,-0.020,-0.040,-0.040,0.014,0.993,0.011,0.000,-0.002,-0.002,0.000,0.000,0.000,0.000,0,2,0,2,7,255,1440,250,0,0,-89.505,0.635,-31.382
EX0521-092111,10,C15,prep,1103,1103,0,626699.093,0.685,-0.677,0.194,0.188,0,0,0,0,0,0,0,0,0,0.000,0,0,0.060,0.003,-0.020,-0.040,0.040,0.015,0.993,0.010,0.002,0.002,-0.002,0.000,0.000,0.000,0.000,0,2,0,2,7,255,1440,250,0,0,-89.505,0.635,-31.382
EX0521-092111,10,C15,prep,1103,1103,0,626704.091,0.685,-0.677,0.194,0.188,0,0,0,0,0,0,0,0,0,0.000,0,0,0.060,0.002,-0.020,-0.040,-0.040,0.014,0.994,0.011,0.000,0.002,0.004,0.000,0.000,0.000,0.000,0,2,0,2,7,255,1440,250,0,0,-89.505,0.635,-31.382
EX0521-092111,10,C15,prep,1103,1103,0,626709.092,0.685,-0.677,0.194,0.188,0,0,0,0,0,0,0,0,0,0.000,0,0,0.049,0.002,-0.020,0.020,-0.040,0.014,0.992,0.011,-0.002,0.000,0.004,0.000,0.000,0.000,0.000,0,2,0,2,7,255,1440,250,0,0,-89.505,0.635,-31.382
EX0521-092111,10,C15,prep,1103,1103,0,626714.092,0.685,-0.677,0.194,0.188,0,0,0,0,0,0,0,0,0,0.000,0,0,0.060,0.002,-0.020,-0.040,-0.040,0.014,0.992,0.010,-0.002,0.000,-0.006,0.000,0.000,0.000,0.000,0,2,0,2,7,255,1440,250,0,0,-89.505,0.635,-31.382
EX0521-092111,10,C15,prep,1123,1123,0,626719.092,0.685,-0.677,0.194,0.188,0,0,0,0,0,0,0,0,0,0.000,0,0,0.060,0.003,-0.020,-0.040,-0.040,0.015,0.993,0.012,-0.002,-0.002,-0.006,0.000,0.000,0.000,0.000,0,2,0,2,7,255,1440,250,0,0,-89.505,0.635,-31.382
EX0521-092111,10,C15,prep,1123,1123,0,626724.091,0.685,-0.677,0.194,0.188,0,0,0,0,0,0,0,0,0,0.000,0,0,0.060,0.002,-0.020,-0.040,-0.040,0.014,0.993,0.011,0.000,0.002,-0.002,0.000,0.000,0.000,0.000,0,2,0,2,7,255,1440,250,0,0,-89.505,0.635,-31.382
EX0521-092111,10,C15,prep,1124,1124,0,626729.091,0.685,-0.677,0.194,0.188,0,0,0,0,0,0,0,0,0,0.000,0,0,0.060,0.002,-0.020,-0.040,-0.040,0.016,0.994,0.010,0.000,-0.002,0.004,0.000,0.000,0.000,0.000,0,2,0,2,7,255,1440,250,0,0,-89.506,0.635,-31.382
EX0521-092111,10,C15,prep,1124,1124,0,626734.092,0.685,-0.677,0.194,0.188,0,0,0,0,0,0,0,0,0,0.000,0,0,0.098,0.008,-0.080,-0.040,-0.040,0.015,0.994,0.010,0.008,0.002,0.008,0.000,0.000,0.000,0.000,0,2,0,2,7,255,1440,250,0,0,-89.506,0.635,-31.382
EX0521-092111,10,C15,prep,1125,1125,0,626739.092,0.685,-0.677,0.194,0.188,0,0,0,0,0,0,0,0,0,0.000,0,0,0.060,0.008,-0.020,-0.040,-0.040,0.014,0.992,0.011,0.008,0.002,0.008,0.000,0.000,0.000,0.000,0,2,0,2,7,255,1440,250,0,0,-89.506,0.635,-31.382
EX0521-092111,10,C15,prep,1125,1125,0,626744.092,0.685,-0.677,0.194,0.188,0,0,0,0,0,0,0,0,0,0.000,0,0,0.060,0.006,-0.020,-0.040,-0.040,0.014,0.993,0.010,0.002,0.006,-0.002,0.000,0.000,0.000,0.000,0,2,0,2,7,255,1440,250,0,0,-89.506,0.635,-31.382
EX0521-092111,10,C15,prep,1167,1167,0,626749.091,0.685,-0.677,0.194,0.188,0,0,0,0,0,0,0,0,0,0.000,0,0,0.060,0.004,-0.020,-0.040,-0.040,0.015,0.994,0.010,0.002,0.004,-0.002,0.000,0.000,0.000,0.000,0,2,0,2,7,255,1440,250,0,0,-89.506,0.635,-31.382
EX0521-092111,10,C15,prep,1167,1167,0,626754.091,0.685,-0.677,0.194,0.188,0,0,0,0,0,0,0,0,0,0.000,0,0,0.115,0.004,0.040,-0.040,-0.100,0.014,0.995,0.011,0.002,0.004,0.008,0.000,0.000,0.000,0.000,0,2,0,2,7,255,1440,250,0,0,-89.506,0.635,-31.382
EX0521-092111,10,C15,prep,1167,1167,0,626759.092,0.685,-0.677,0.194,0.188,0,0,0,0,0,0,0,0,0,0.000,0,0,0.075,0.004,-0.020,-0.060,-0.040,0.015,0.992,0.011,0.002,0.004,0.008,0.000,0.000,0.000,0.000,0,2,0,2,7,255,1440,250,0,0,-89.506,0.635,-31.382
EX0521-092111,10,C15,prep,1167,1167,0,626764.092,0.685,-0.677,0.194,0.188,0,0,0,0,0,0,0,0,0,0.000,0,0,0.082,0.002,0.040,-0.060,-0.040,0.015,0.993,0.011,0.002,0.000,-0.002,0.000,0.000,0.000,0.000,0,2,0,2,7,255,1440,250,0,0,-89.506,0.635,-31.382
EX0521-092111,10,C15,prep,1167,1167,0,626769.093,0.685,-0.677,0.194,0.188,0,0,0,0,0,0,0,0,0,0.000,0,0,0.049,0.004,-0.020,0.020,-0.040,0.015,0.993,0.011,0.002,-0.004,-0.002,0.000,0.000,0.000,0.000,0,2,0,2,7,255,1440,250,0,0,-89.506,0.635,-31.382
EX0521-092111,10,C15,prep,1167,1167,0,626774.091,0.685,-0.677,0.194,0.188,0,0,0,0,0,0,0,0,0,0.000,0,0,0.075,0.004,-0.020,-0.060,-0.040,0.015,0.994,0.011,0.002,-0.004,-0.002,0.000,0.000,0.000,0.000,0,2,0,2,7,255,1440,250,0,0,-89.506,0.635,-31.382
EX0521-092111,10,C15,prep,1199,1199,0,626779.091,0.685,-0.677,0.194,0.188,0,0,0,0,0,0,0,0,0,0.000,0,0,0.075,0.004,-0.020,-0.060,-0.040,0.015,0.992,0.010,0.002,-0.004,-0.002,0.000,0.000,0.000,0.000,0,2,0,2,7,255,1440,250,0,0,-89.507,0.635,-31.382
EX0521-092111,10,C15,prep,1199,1199,0,626784.092,0.685,-0.677,0.194,0.188,0,0,0,0,0,0,0,0,0,0.000,0,0,0.075,0.004,-0.020,-0.060,-0.040,0.015,0.994,0.011,0.002,-0.004,0.008,0.000,0.000,0.000,0.000,0,2,0,2,7,255,1440,250,0,0,-89.507,0.635,-31.382
EX0521-092111,10,C15,prep,1199,1199,0,626789.092,0.685,-0.677,0.194,0.188,0,0,0,0,0,0,0,0,0,0.000,0,0,0.128,0.003,-0.020,-0.120,-0.040,0.013,0.992,0.012,0.002,-0.002,-0.006,0.000,0.000,0.000,0.000,0,2,0,2,7,255,1440,250,0,0,-89.507,0.635,-31.382
EX0521-092111,10,C15,prep,1199,1199,0,626794.092,0.685,-0.677,0.194,0.188,0,0,0,0,0,0,0,0,0,0.000,0,0,0.066,0.004,-0.020,-0.060,0.020,0.015,0.993,0.011,0.002,-0.004,0.004,0.000,0.000,0.000,0.000,0,2,0,2,7,255,1440,250,0,0,-89.507,0.635,-31.382
EX0521-092111,10,C15,prep,1199,1199,0,626799.093,0.685,-0.677,0.194,0.188,0,0,0,0,0,0,0,0,0,0.000,0,0,0.066,0.004,-0.020,-0.060,0.020,0.015,0.994,0.012,-0.002,-0.004,0.004,0.000,0.000,0.000,0.000,0,2,0,2,7,255,1440,250,0,0,-89.507,0.635,-31.382
EX0521-092111,10,C15,prep,1199,1199,0,626804.091,0.685,-0.677,0.194,0.188,0,0,0,0,0,0,0,0,0,0.000,0,0,0.082,0.006,0.040,-0.060,-0.040,0.015,0.993,0.011,0.004,-0.004,0.004,0.000,0.000,0.000,0.000,0,2,0,2,7,255,1440,250,0,0,-89.507,0.635,-31.382
EX0521-092111,10,C15,prep,1223,1223,0,626809.092,0.685,-0.677,0.194,0.188,0,0,0,0,0,0,0,0,0,0.000,0,0,0.049,0.002,-0.020,0.020,-0.040,0.014,0.993,0.010,-0.002,0.000,0.002,0.000,0.000,0.000,0.000,0,2,0,2,7,255,1440,250,0,0,-89.507,0.635,-31.382
EX0521-092111,10,C15,prep,1223,1223,0,626814.092,0.685,-0.677,0.194,0.188,0,0,0,0,0,0,0,0,0,0.000,0,0,0.049,0.004,-0.020,0.020,-0.040,0.014,0.995,0.011,-0.002,0.004,0.002,0.000,0.000,0.000,0.000,0,2,0,2,7,255,1440,250,0,0,-89.507,0.635,-31.382
EX0521-092111,10,C15,prep,1224,1224,0,626819.092,0.685,-0.677,0.194,0.188,0,0,0,0,0,0,0,0,0,0.000,0,0,0.134,0.004,-0.080,-0.100,-0.040,0.014,0.993,0.011,-0.002,0.004,0.002,0.000,0.000,0.000,0.000,0,2,0,2,7,255,1440,250,0,0,-89.507,0.635,-31.382
EX0521-092111,10,C15,prep,1224,1224,0,626824.091,0.685,-0.677,0.194,0.188,0,0,0,0,0,0,0,0,0,0.000,0,0,0.060,0.002,-0.020,-0.040,-0.040,0.015,0.994,0.011,0.000,0.002,0.008,0.000,0.000,0.000,0.000,0,2,0,2,7,255,1440,250,0,0,-89.508,0.635,-31.382
EX0521-092111,10,C15,prep,1225,1225,0,626829.091,0.685,-0.677,0.194,0.188,0,0,0,0,0,0,0,0,0,0.000,0,0,0.060,0.008,-0.020,-0.040,-0.040,0.015,0.992,0.010,0.008,0.000,-0.002,0.000,0.000,0.000,0.000,0,2,0,2,7,255,1440,250,0,0,-89.508,0.634,-31.382
EX0521-092111,10,C15,prep,1225,1225,0,626834.092,0.685,-0.677,0.194,0.188,0,0,0,0,0,0,0,0,0,0.000,0,0,0.060,0.008,-0.020,-0.040,-0.040,0.013,0.993,0.011,0.008,0.000,0.002,0.000,0.000,0.000,0.000,0,2,0,2,7,255,1440,250,0,0,-89.508,0.634,-31.382
EX0521-092111,10,C15,prep,1231,1231,0,626839.092,0.685,-0.677,0.194,0.188,0,0,0,0,0,0,0,0,0,0.000,0,0,0.060,0.004,-0.020,-0.040,-0.040,0.015,0.993,0.011,0.004,0.000,-0.002,0.000,0.000,0.000,0.000,0,2,0,2,7,255,1440,250,0,0,-89.508,0.634,-31.382
EX0521-092111,10,C15,prep,1231,1231,0,626844.092,0.685,-0.677,0.194,0.188,0,0,0,0,0,0,0,0,0,0.000,0,0,0.069,0.004,0.040,-0.040,0.040,0.015,0.994,0.011,0.004,0.000,0.002,0.000,0.000,0.000,0.000,0,2,0,2,7,255,1440,250,0,0,-89.508,0.634,-31.382
EX0521-092111,10,C15,prep,1254,1254,0,626849.091,0.685,-0.677,0.194,0.188,0,0,0,0,0,0,0,0,0,0.000,0,0,0.110,0.004,-0.020,-0.100,-0.040,0.014,0.993,0.011,0.004,0.000,-0.002,0.000,0.000,0.000,0.000,0,2,0,2,7,255,1440,250,0,0,-89.508,0.634,-31.382
EX0521-092111,10,C15,prep,1254,1254,0,626854.091,0.685,-0.677,0.194,0.188,0,0,0,0,0,0,0,0,0,0.000,0,0,0.069,0.004,0.040,-0.040,-0.040,0.015,0.992,0.010,0.004,0.002,-0.002,0.000,0.000,0.000,0.000,0,2,0,2,7,255,1440,250,0,0,-89.508,0.634,-31.382
EX0521-092111,10,C15,prep,1254,1254,0,626859.092,0.685,-0.677,0.194,0.188,0,0,0,0,0,0,0,0,0,0.000,0,0,0.069,0.006,0.040,-0.040,-0.040,0.015,0.991,0.011,0.006,0.002,-0.006,0.000,0.000,0.000,0.000,0,2,0,2,7,255,1440,250,0,0,-89.508,0.634,-31.382
EX0521-092111,10,C15,prep,1254,1254,0,626864.092,0.685,-0.677,0.194,0.188,0,0,0,0,0,0,0,0,0,0.000,0,0,0.060,0.007,-0.020,-0.040,-0.040,0.015,0.994,0.012,0.006,-0.004,-0.006,0.000,0.000,0.000,0.000,0,2,0,2,7,255,1440,250,0,0,-89.508,0.634,-31.382
EX0521-092111,10,C15,prep,1262,1262,0,626869.092,0.685,-0.677,0.194,0.188,0,0,0,0,0,0,0,0,0,0.000,0,0,0.049,0.004,-0.020,0.020,-0.040,0.014,0.993,0.011,-0.002,-0.004,-0.002,0.000,0.000,0.000,0.000,0,2,0,2,7,255,1440,250,0,0,-89.508,0.634,-31.382
EX0521-092111,10,C15,prep,1262,1262,0,626874.091,0.685,-0.677,0.194,0.188,0,0,0,0,0,0,0,0,0,0.000,0,0,0.098,0.006,-0.080,-0.040,-0.040,0.015,0.993,0.011,-0.002,-0.006,-0.002,0.000,0.000,0.000,0.000,0,2,0,2,7,255,1440,250,0,0,-89.509,0.634,-31.382
EX0521-092111,10,C15,prep,1288,1288,0,626879.091,0.685,-0.677,0.194,0.188,0,0,0,0,0,0,0,0,0,0.000,0,0,0.060,0.008,-0.020,-0.040,-0.040,0.013,0.993,0.011,-0.008,0.000,-0.002,0.000,0.000,0.000,0.000,0,2,0,2,7,255,1440,250,0,0,-89.509,0.634,-31.382
EX0521-092111,10,C15,prep,1288,1288,0,626884.091,0.685,-0.677,0.194,0.188,0,0,0,0,0,0,0,0,0,0.000,0,0,0.060,0.002,-0.020,-0.040,-0.040,0.014,0.992,0.011,0.000,0.002,-0.002,0.000,0.000,0.000,0.000,0,2,0,2,7,255,1440,250,0,0,-89.509,0.634,-31.382
EX0521-092111,10,C15,prep,1320,1320,0,626889.092,0.685,-0.677,0.194,0.188,0,0,0,0,0,0,0,0,0,0.000,0,0,0.060,0.006,0.040,0.020,-0.040,0.014,0.992,0.012,-0.006,0.002,-0.006,0.000,0.000,0.000,0.000,0,2,0,2,7,255,1440,250,0,0,-89.509,0.634,-31.382
EX0521-092111,10,C15,prep,1320,1320,0,626894.092,0.685,-0.677,0.194,0.188,0,0,0,0,0,0,0,0,0,0.000,0,0,0.060,0.002,-0.020,-0.040,-0.040,0.015,0.993,0.010,0.000,0.002,-0.006,0.000,0.000,0.000,0.000,0,2,0,2,7,255,1440,250,0,0,-89.509,0.634,-31.382
EX0521-092111,10,C15,prep,1320,1320,0,626899.093,0.685,-0.677,0.194,0.188,0,0,0,0,0,0,0,0,0,0.000,0,0,0.069,0.006,0.040,-0.040,-0.040,0.014,0.992,0.011,-0.006,0.000,-0.006,0.000,0.000,0.000,0.000,0,2,0,2,7,255,1440,250,0,0,-89.509,0.634,-31.382
EX0521-092111,10,C15,prep,1320,1320,0,626904.091,0.685,-0.677,0.194,0.188,0,0,0,0,0,0,0,0,0,0.000,0,0,0.060,0.006,-0.020,-0.040,-0.040,0.015,0.993,0.010,0.006,0.002,-0.002,0.000,0.000,0.000,0.000,0,2,0,2,7,255,1440,250,0,0,-89.509,0.634,-31.382
EX0521-092111,10,C15,prep,1320,1320,0,626909.092,0.685,-0.677,0.194,0.188,0,0,0,0,0,0,0,0,0,0.000,0,0,0.049,0.006,-0.020,-0.040,-0.020,0.015,0.994,0.011,0.006,0.000,-0.002,0.000,0.000,0.000,0.000,0,2,0,2,7,255,1440,250,0,0,-89.509,0.634,-31.382
EX0521-092111,10,C15,prep,1320,1320,0,626914.092,0.685,-0.677,0.194,0.188,0,0,0,0,0,0,0,0,0,0.000,0,0,0.049,0.009,-0.020,-0.040,-0.020,0.016,0.992,0.011,0.008,-0.004,-0.002,0.000,0.000,0.000,0.000,0,2,0,2,7,255,1440,250,0,0,-89.509,0.634,-31.382
EX0521-092111,10,C15,prep,1320,1320,0,626919.092,0.685,-0.677,0.194,0.188,0,0,0,0,0,0,0,0,0,0.000,0,0,0.060,0.009,0.040,-0.040,-0.020,0.014,0.992,0.011,0.008,-0.004,-0.006,0.000,0.000,0.000,0.000,0,2,0,2,7,255,1440,250,0,0,-89.510,0.634,-31.382
EX0521-092111,10,C15,prep,1320,1320,0,626924.091,0.685,-0.677,0.194,0.188,0,0,0,0,0,0,0,0,0,0.000,0,0,0.060,0.007,0.040,-0.040,-0.020,0.015,0.992,0.011,0.004,-0.006,-0.006,0.000,0.000,0.000,0.000,0,2,0,2,7,255,1440,250,0,0,-89.510,0.634,-31.382
EX0521-092111,10,C15,prep,1321,1321,0,626929.091,0.685,-0.677,0.194,0.188,0,0,0,0,0,0,0,0,0,0.000,0,0,0.110,0.004,0.040,-0.100,-0.020,0.014,0.993,0.010,-0.002,0.004,-0.006,0.000,0.000,0.000,0.000,0,2,0,2,7,255,1440,250,0,0,-89.510,0.634,-31.382
EX0521-092111,10,C15,prep,1321,1321,0,626934.091,0.685,-0.677,0.194,0.188,0,0,0,0,0,0,0,0,0,0.000,0,0,0.104,0.007,-0.020,-0.100,-0.020,0.015,0.992,0.010,0.004,0.006,-0.006,0.000,0.000,0.000,0.000,0,2,0,2,7,255,1440,250,0,0,-89.510,0.634,-31.382
EX0521-092111,10,C15,prep,1327,1327,0,626939.092,0.685,-0.677,0.194,0.188,0,0,0,0,0,0,0,0,0,0.000,0,0,0.049,0.008,-0.020,-0.040,-0.020,0.015,0.993,0.010,0.006,0.006,-0.002,0.000,0.000,0.000,0.000,0,2,0,2,7,255,1440,250,0,0,-89.510,0.634,-31.382
EX0521-092111,10,C15,prep,1327,1327,0,626944.092,0.685,-0.677,0.194,0.188,0,0,0,0,0,0,0,0,0,0.000,0,0,0.092,0.006,-0.080,-0.040,-0.020,0.015,0.993,0.012,0.006,0.002,-0.002,0.000,0.000,0.000,0.000,0,2,0,2,7,255,1440,250,0,0,-89.510,0.634,-31.382
EX0521-092111,10,C15,prep,1351,1351,0,626949.092,0.685,-0.677,0.194,0.188,0,0,0,0,0,0,0,0,0,0.000,0,0,0.035,0.002,-0.020,0.020,-0.020,0.014,0.993,0.011,0.000,0.002,-0.002,0.000,0.000,0.000,0.000,0,2,0,2,7,255,1440,250,0,0,-89.510,0.634,-31.382
EX0521-092111,10,C15,prep,1351,1351,0,626954.091,0.685,-0.677,0.194,0.188,0,0,0,0,0,0,0,0,0,0.000,0,0,0.092,0.004,-0.080,-0.040,-0.020,0.014,0.993,0.011,-0.004,0.002,-0.002,0.000,0.000,0.000,0.000,0,2,0,2,7,255,1440,250,0,0,-89.510,0.634,-31.382
EX0521-092111,10,C15,prep,1351,1351,0,626959.095,0.685,-0.677,0.194,0.188,0,0,0,0,0,0,0,0,0,0.000,0,0,0.060,0.002,-0.020,-0.040,-0.040,0.015,0.992,0.011,0.000,0.002,-0.002,0.000,0.000,0.000,0.000,0,2,0,2,7,255,1440,250,0,0,-89.510,0.634,-31.382
EX0521-092111,10,C15,prep,1351,1351,0,626964.092,0.685,-0.677,0.194,0.188,0,0,0,0,0,0,0,0,0,0.000,0,0,0.069,0.004,0.040,-0.040,-0.040,0.014,0.992,0.010,0.000,0.004,-0.010,0.000,0.000,0.000,0.000,0,2,0,2,7,255,1440,250,0,0,-89.510,0.634,-31.382
EX0521-092111,10,C15,prep,1358,1358,0,626969.092,0.685,-0.677,0.194,0.188,0,0,0,0,0,0,0,0,0,0.000,0,0,0.069,0.000,0.040,-0.040,-0.040,0.014,0.993,0.011,0.000,0.000,-0.010,0.000,0.000,0.000,0.000,0,2,0,2,7,255,1440,250,0,0,-89.511,0.634,-31.382
EX0521-092111,10,C15,prep,1358,1358,0,626974.091,0.685,-0.677,0.194,0.188,0,0,0,0,0,0,0,0,0,0.000,0,0,0.060,0.000,-0.020,-0.040,-0.040,0.014,0.991,0.011,0.000,0.000,-0.010,0.000,0.000,0.000,0.000,0,2,0,2,7,255,1440,250,0,0,-89.511,0.634,-31.382
EX0521-092111,10,C15,prep,1386,1386,0,626979.091,0.685,-0.677,0.194,0.188,0,0,0,0,0,0,0,0,0,0.000,0,0,0.069,0.000,0.040,-0.040,-0.040,0.015,0.993,0.010,0.000,0.000,-0.002,0.000,0.000,0.000,0.000,0,2,0,2,7,255,1440,250,0,0,-89.511,0.634,-31.382
EX0521-092111,10,C15,prep,1386,1386,0,626984.091,0.685,-0.677,0.194,0.188,0,0,0,0,0,0,0,0,0,0.000,0,0,0.060,0.006,-0.020,-0.040,-0.040,0.015,0.993,0.010,0.006,0.000,-0.002,0.000,0.000,0.000,0.000,0,2,0,2,7,255,1440,250,0,0,-89.511,0.634,-31.382
EX0521-092111,10,C15,prep,1421,1421,0,626989.092,0.685,-0.677,0.194,0.188,0,0,0,0,0,0,0,0,0,0.000,0,0,0.060,0.006,-0.020,-0.040,-0.040,0.015,0.993,0.011,0.006,0.000,0.004,0.000,0.000,0.000,0.000,0,2,0,2,7,255,1440,250,0,0,-89.511,0.634,-31.382
EX0521-092111,10,C15,prep,1421,1421,0,626994.092,0.685,-0.677,0.194,0.188,0,0,0,0,0,0,0,0,0,0.000,0,0,0.060,0.004,-0.020,-0.040,-0.040,0.015,0.993,0.012,0.004,-0.002,0.004,0.000,0.000,0.000,0.000,0,2,0,2,7,255,1440,250,0,0,-89.511,0.634,-31.382
EX0521-092111,10,C15,prep,1421,1421,0,626999.094,0.685,-0.677,0.194,0.188,0,0,0,0,0,0,0,0,0,0.000,0,0,0.104,0.006,-0.020,-0.100,0.020,0.015,0.993,0.011,0.000,-0.006,0.004,0.000,0.000,0.000,0.000,0,2,0,2,7,255,1440,250,0,0,-89.511,0.634,-31.382
EX0521-092111,10,C15,prep,1421,1421,0,627004.091,0.685,-0.677,0.194,0.188,0,0,0,0,0,0,0,0,0,0.000,0,0,0.060,0.010,-0.020,-0.040,-0.040,0.016,0.992,0.011,0.000,-0.010,-0.002,0.000,0.000,0.000,0.000,0,2,0,2,7,255,1440,250,0,0,-89.511,0.634,-31.382
EX0521-092111,10,C15,prep,1421,1421,0,627009.091,0.685,-0.677,0.194,0.188,0,0,0,0,0,0,0,0,0,0.000,0,0,0.049,0.006,-0.020,-0.040,-0.020,0.015,0.993,0.011,0.000,-0.006,-0.002,0.000,0.000,0.000,0.000,0,2,0,2,7,255,1440,250,0,0,-89.511,0.634,-31.382
EX0521-092111,10,C15,prep,1421,1421,0,627014.092,0.685,-0.677,0.194,0.188,0,0,0,0,0,0,0,0,0,0.000,0,0,0.060,0.006,-0.020,-0.040,0.040,0.014,0.994,0.011,0.000,-0.006,-0.002,0.000,0.000,0.000,0.000,0,2,0,2,7,255,1440,250,0,0,-89.511,0.634,-31.382
EX0521-092111,10,C15,prep,1423,1423,0,627019.092,0.685,-0.677,0.194,0.188,0,0,0,0,0,0,0,0,0,0.000,0,0,0.035,0.002,-0.020,0.020,-0.020,0.015,0.993,0.010,0.000,0.002,-0.002,0.000,0.000,0.000,0.000,0,2,0,2,7,255,1440,250,0,0,-89.512,0.634,-31.382
EX0521-092111,10,C15,prep,1423,1423,0,627024.092,0.685,-0.677,0.194,0.188,0,0,0,0,0,0,0,0,0,0.000,0,0,0.060,0.002,0.040,-0.040,-0.020,0.015,0.992,0.011,0.000,0.002,-0.002,0.000,0.000,0.000,0.000,0,2,0,2,7,255,1440,250,0,0,-89.512,0.634,-31.382
EX0521-092111,10,C15,prep,1424,1424,0,627029.091,0.685,-0.677,0.194,0.188,0,0,0,0,0,0,0,0,0,0.000,0,0,0.092,0.002,-0.080,-0.040,-0.020,0.014,0.993,0.011,0.000,0.002,-0.002,0.000,0.000,0.000,0.000,0,2,0,2,7,255,1440,250,0,0,-89.512,0.634,-31.382
EX0521-092111,10,C15,prep,1424,1424,0,627034.092,0.685,-0.677,0.194,0.188,0,0,0,0,0,0,0,0,0,0.000,0,0,0.092,0.004,-0.080,-0.040,-0.020,0.015,0.993,0.009,0.000,0.004,-0.002,0.000,0.000,0.000,0.000,0,2,0,2,7,255,1440,250,0,0,-89.512,0.634,-31.382
EX0521-092111,10,C15,prep,1425,1425,0,627039.092,0.685,-0.677,0.194,0.188,0,0,0,0,0,0,0,0,0,0.000,0,0,0.049,0.007,-0.020,-0.040,-0.020,0.014,0.993,0.011,-0.006,0.004,-0.002,0.000,0.000,0.000,0.000,0,2,0,2,7,255,1440,250,0,0,-89.512,0.634,-31.382
EX0521-092111,10,C15,prep,1425,1425,0,627044.092,0.685,-0.677,0.194,0.188,0,0,0,0,0,0,0,0,0,0.000,0,0,0.049,0.004,-0.020,-0.040,-0.020,0.014,0.992,0.011,-0.002,0.004,-0.002,0.000,0.000,0.000,0.000,0,2,0,2,7,255,1440,250,0,0,-89.512,0.634,-31.382
EX0521-092111,10,C15,prep,1455,1455,0,627049.092,0.685,-0.677,0.194,0.188,0,0,0,0,0,0,0,0,0,0.000,0,0,0.049,0.002,-0.020,-0.040,-0.020,0.015,0.992,0.011,-0.002,0.000,-0.006,0.000,0.000,0.000,0.000,0,2,0,2,7,255,1440,250,0,0,-89.512,0.634,-31.382
EX0521-092111,10,C15,prep,1455,1455,0,627054.091,0.685,-0.677,0.194,0.188,0,0,0,0,0,0,0,0,0,0.000,0,0,0.134,0.002,-0.080,-0.040,-0.100,0.015,0.993,0.011,0.000,-0.002,-0.006,0.000,0.000,0.000,0.000,0,2,0,2,7,255,1440,250,0,0,-89.512,0.634,-31.382
EX0521-092111,10,C15,prep,1455,1455,0,627059.091,0.685,-0.677,0.194,0.188,0,0,0,0,0,0,0,0,0,0.000,0,0,0.060,0.006,-0.020,-0.040,-0.040,0.016,0.993,0.011,0.002,-0.006,0.000,0.000,0.000,0.000,0.000,0,2,0,2,7,255,1440,250,0,0,-89.512,0.634,-31.382
EX0521-092111,10,C15,prep,1455,1455,0,627064.092,0.685,-0.677,0.194,0.188,0,0,0,0,0,0,0,0,0,0.000,0,0,0.069,0.006,0.040,-0.040,-0.040,0.014,0.993,0.010,0.002,-0.006,0.000,0.000,0.000,0.000,0.000,0,2,0,2,7,255,1440,250,0,0,-89.513,0.634,-31.382
EX0521-092111,10,C15,prep,1455,1455,0,627069.093,0.685,-0.677,0.194,0.188,0,0,0,0,0,0,0,0,0,0.000,0,0,0.098,0.003,-0.080,-0.040,-0.040,0.015,0.993,0.011,0.002,-0.002,0.000,0.000,0.000,0.000,0.000,0,2,0,2,7,255,1440,250,0,0,-89.513,0.633,-31.382
EX0521-092111,10,C15,prep,1455,1455,0,627074.092,0.685,-0.677,0.194,0.188,0,0,0,0,0,0,0,0,0,0.000,0,0,0.069,0.003,0.040,-0.040,-0.040,0.014,0.992,0.011,0.002,-0.002,-0.002,0.000,0.000,0.000,0.000,0,2,0,2,7,255,1440,250,0,0,-89.513,0.633,-31.382
EX0521-092111,10,C15,prep,1503,1503,0,627079.091,0.685,-0.677,0.194,0.188,0,0,0,0,0,0,0,0,0,0.000,0,0,0.060,0.004,-0.020,-0.040,-0.040,0.015,0.992,0.011,0.000,-0.004,-0.006,0.000,0.000,0.000,0.000,0,2,0,2,7,255,1440,250,0,0,-89.513,0.633,-31.382
EX0521-092111,10,C15,prep,1503,1503,0,627084.091,0.685,-0.677,0.194,0.188,0,0,0,0,0,0,0,0,0,0.000,0,0,0.110,0.006,0.040,0.020,-0.100,0.015,0.993,0.011,0.000,-0.006,-0.006,0.000,0.000,0.000,0.000,0,2,0,2,7,255,1440,250,0,0,-89.513,0.633,-31.382
EX0521-092111,10,C15,prep,1503,1503,0,627089.092,0.685,-0.677,0.194,0.188,0,0,0,0,0,0,0,0,0,0.000,0,0,0.060,0.006,-0.020,-0.040,-0.040,0.015,0.992,0.011,0.000,-0.006,-0.006,0.000,0.000,0.000,0.000,0,2,0,2,7,255,1440,250,0,0,-89.513,0.633,-31.382
EX0521-092111,10,C15,prep,1503,1503,0,627094.092,0.685,-0.677,0.194,0.188,0,0,0,0,0,0,0,0,0,0.000,0,0,0.069,0.003,0.040,-0.040,-0.040,0.014,0.993,0.010,0.002,-0.002,0.000,0.000,0.000,0.000,0.000,0,2,0,2,7,255,1440,250,0,0,-89.513,0.633,-31.382
EX0521-092111,10,C15,prep,1503,1503,0,627099.093,0.685,-0.677,0.194,0.188,0,0,0,0,0,0,0,0,0,0.000,0,0,0.069,0.004,0.040,-0.040,-0.040,0.015,0.992,0.010,0.004,0.000,-0.006,0.000,0.000,0.000,0.000,0,2,0,2,7,255,1440,250,0,0,-89.513,0.633,-31.382
EX0521-092111,10,C15,prep,1503,1503,0,627104.091,0.685,-0.677,0.194,0.188,0,0,0,0,0,0,0,0,0,0.000,0,0,0.060,0.004,-0.020,-0.040,-0.040,0.014,0.992,0.011,0.004,0.000,-0.006,0.000,0.000,0.000,0.000,0,2,0,2,7,255,1440,250,0,0,-89.513,0.633,-31.382
EX0521-092111,10,C15,prep,1521,1521,0,627109.091,0.685,-0.677,0.194,0.188,0,0,0,0,0,0,0,0,0,0.000,0,0,0.060,0.002,-0.020,-0.040,-0.040,0.015,0.993,0.012,-0.002,0.000,-0.006,0.000,0.000,0.000,0.000,0,2,0,2,7,255,1440,250,0,0,-89.513,0.633,-31.382
EX0521-092111,10,C15,prep,1521,1521,0,627114.092,0.685,-0.677,0.194,0.188,0,0,0,0,0,0,0,0,0,0.000,0,0,0.110,0.006,-0.020,-0.040,-0.100,0.015,0.992,0.011,-0.002,-0.006,-0.006,0.000,0.000,0.000,0.000,0,2,0,2,7,255,1440,250,0,0,-89.514,0.633,-31.382
EX0521-092111,10,C15,prep,1522,1522,0,627119.092,0.685,-0.677,0.194,0.188,0,0,0,0,0,0,0,0,0,0.000,0,0,0.060,0.006,-0.020,-0.040,-0.040,0.014,0.992,0.011,-0.002,-0.006,-0.006,0.000,0.000,0.000,0.000,0,2,0,2,7,255,1440,250,0,0,-89.514,0.633,-31.382
EX0521-092111,10,C15,prep,1522,1522,0,627124.092,0.685,-0.677,0.194,0.188,0,0,0,0,0,0,0,0,0,0.000,0,0,0.060,0.006,-0.020,-0.040,-0.040,0.015,0.992,0.011,0.000,-0.006,-0.006,0.000,0.000,0.000,0.000,0,2,0,2,7,255,1440,250,0,0,-89.514,0.633,-31.382
EX0521-092111,10,C15,prep,1523,1523,0,627129.091,0.685,-0.677,0.194,0.188,0,0,0,0,0,0,0,0,0,0.000,0,0,0.069,0.007,0.040,-0.040,-0.040,0.013,0.993,0.011,-0.006,0.004,-0.006,0.000,0.000,0.000,0.000,0,2,0,2,7,255,1440,250,0,0,-89.514,0.633,-31.382
EX0521-092111,10,C15,prep,1523,1523,0,627134.091,0.685,-0.677,0.194,0.188,0,0,0,0,0,0,0,0,0,0.000,0,0,0.060,0.009,-0.020,-0.040,-0.040,0.015,0.993,0.011,0.004,-0.008,0.000,0.000,0.000,0.000,0.000,0,2,0,2,7,255,1440,250,0,0,-89.514,0.633,-31.382
EX0521-092111,10,C15,prep,1535,1535,0,627139.092,0.685,-0.677,0.194,0.188,0,0,0,0,0,0,0,0,0,0.000,0,0,0.060,0.006,-0.020,-0.040,-0.040,0.015,0.992,0.011,0.000,-0.006,0.000,0.000,0.000,0.000,0.000,0,2,0,2,7,255,1440,250,0,0,-89.514,0.633,-31.382
EX0521-092111,10,C15,prep,1536,1536,0,627144.092,0.685,-0.677,0.194,0.188,0,0,0,0,0,0,0,0,0,0.000,0,0,0.060,0.006,-0.020,-0.040,-0.040,0.014,0.994,0.011,0.000,-0.006,0.000,0.000,0.000,0.000,0.000,0,2,0,2,7,255,1440,250,0,0,-89.514,0.633,-31.382
EX0521-092111,10,C15,prep,1552,1552,0,627149.092,0.685,-0.677,0.194,0.188,0,0,0,0,0,0,0,0,0,0.000,0,0,0.060,0.006,-0.020,-0.040,-0.040,0.015,0.993,0.012,-0.002,-0.006,0.004,0.000,0.000,0.000,0.000,0,2,0,2,7,255,1440,250,0,0,-89.514,0.633,-31.382
EX0521-092111,10,C15,prep,1552,1552,0,627154.091,0.685,-0.677,0.194,0.188,0,0,0,0,0,0,0,0,0,0.000,0,0,0.069,0.003,0.040,-0.040,-0.040,0.014,0.993,0.011,-0.002,-0.002,0.004,0.000,0.000,0.000,0.000,0,2,0,2,7,255,1440,250,0,0,-89.514,0.633,-31.382
EX0521-092111,10,C15,prep,1552,1552,0,627159.095,0.685,-0.677,0.194,0.188,0,0,0,0,0,0,0,0,0,0.000,0,0,0.049,0.006,-0.020,-0.040,-0.020,0.015,0.993,0.011,-0.002,-0.006,0.004,0.000,0.000,0.000,0.000,0,2,0,2,7,255,1440,250,0,0,-89.515,0.633,-31.382
EX0521-092111,10,C15,prep,1552,1552,0,627164.092,0.685,-0.677,0.194,0.188,0,0,0,0,0,0,0,0,0,0.000,0,0,0.049,0.006,-0.020,-0.040,-0.020,0.014,0.994,0.012,-0.002,-0.006,0.004,0.000,0.000,0.000,0.000,0,2,0,2,7,255,1440,250,0,0,-89.515,0.633,-31.382
EX0521-092111,10,C15,prep,1566,1566,0,627169.092,0.685,-0.677,0.194,0.188,0,0,0,0,0,0,0,0,0,0.000,0,0,0.035,0.008,-0.020,0.020,-0.020,0.013,0.992,0.011,-0.006,-0.006,0.004,0.000,0.000,0.000,0.000,0,2,0,2,7,255,1440,250,0,0,-89.515,0.633,-31.382
EX0521-092111,10,C15,prep,1566,1566,0,627174.092,0.685,-0.677,0.194,0.188,0,0,0,0,0,0,0,0,0,0.000,0,0,0.049,0.011,-0.020,-0.040,-0.020,0.014,0.993,0.012,-0.010,-0.004,0.000,0.000,0.000,0.000,0.000,0,2,0,2,7,255,1440,250,0,0,-89.515,0.633,-31.382
EX0521-092111,10,C15,prep,1566,1566,0,627179.091,0.685,-0.677,0.194,0.188,0,0,0,0,0,0,0,0,0,0.000,0,0,0.049,0.011,-0.020,-0.040,-0.020,0.015,0.993,0.011,-0.010,-0.004,0.000,0.000,0.000,0.000,0.000,0,2,0,2,7,255,1440,250,0,0,-89.515,0.633,-31.382
EX0521-092111,10,C15,prep,1566,1566,0,627184.091,0.685,-0.677,0.194,0.188,0,0,0,0,0,0,0,0,0,0.000,0,0,0.060,0.009,-0.020,-0.040,0.040,0.014,0.992,0.011,-0.008,-0.004,0.000,0.000,0.000,0.000,0.000,0,2,0,2,7,255,1440,250,0,0,-89.515,0.633,-31.382
EX0521-092111,10,C15,prep,1598,1598,0,627189.092,0.685,-0.677,0.194,0.188,0,0,0,0,0,0,0,0,0,0.000,0,0,0.049,0.002,0.040,0.020,-0.020,0.014,0.994,0.011,-0.002,0.000,0.000,0.000,0.000,0.000,0.000,0,2,0,2,7,255,1440,250,0,0,-89.515,0.633,-31.382
EX0521-092111,10,C15,prep,1598,1598,0,627194.092,0.685,-0.677,0.194,0.188,0,0,0,0,0,0,0,0,0,0.000,0,0,0.049,0.002,-0.020,0.020,0.040,0.016,0.993,0.011,-0.002,0.000,0.000,0.000,0.000,0.000,0.000,0,2,0,2,7,255,1440,250,0,0,-89.515,0.633,-31.382
EX0521-092111,10,C15,prep,1598,1598,0,627199.093,0.685,-0.677,0.194,0.188,0,0,0,0,0,0,0,0,0,0.000,0,0,0.060,0.003,0.040,-0.040,-0.020,0.014,0.991,0.011,-0.002,-0.002,0.000,0.000,0.000,0.000,0.000,0,2,0,2,7,255,1440,250,0,0,-89.515,0.633,-31.382
EX0521-092111,10,C15,prep,1598,1598,0,627204.091,0.685,-0.677,0.194,0.188,0,0,0,0,0,0,0,0,0,0.000,0,0,0.049,0.004,-0.020,-0.040,-0.020,0.013,0.994,0.011,-0.004,-0.002,0.000,0.000,0.000,0.000,0.000,0,2,0,2,7,255,1440,250,0,0,-89.515,0.633,-31.382
EX0521-092111,10,C15,prep,1598,1598,0,627209.091,0.685,-0.677,0.194,0.188,0,0,0,0,0,0,0,0,0,0.000,0,0,0.060,0.006,-0.020,-0.040,0.040,0.014,0.992,0.011,-0.006,0.002,-0.006,0.000,0.000,0.000,0.000,0,2,0,2,7,255,1440,250,0,0,-89.516,0.633,-31.382
EX0521-092111,10,C15,prep,1598,1598,0,627214.092,0.685,-0.677,0.194,0.188,0,0,0,0,0,0,0,0,0,0.000,0,0,0.060,0.006,-0.020,-0.040,-0.040,0.015,0.992,0.011,-0.006,0.002,-0.006,0.000,0.000,0.000,0.000,0,2,0,2,7,255,1440,250,0,0,-89.516,0.633,-31.382
EX0521-092111,10,C15,prep,1623,1623,0,627219.092,0.685,-0.677,0.194,0.188,0,0,0,0,0,0,0,0,0,0.000,0,0,0.060,0.004,-0.020,-0.040,-0.040,0.014,0.993,0.011,-0.004,-0.002,-0.006,0.000,0.000,0.000,0.000,0,2,0,2,7,255,1440,250,0,0,-89.516,0.633,-31.382
EX0521-092111,10,C15,prep,1623,1623,0,627224.092,0.685,-0.677,0.194,0.188,0,0,0,0,0,0,0,0,0,0.000,0,0,0.049,0.006,-0.020,0.020,-0.040,0.015,0.991,0.011,0.000,-0.006,-0.010,0.000,0.000,0.000,0.000,0,2,0,2,7,255,1440,250,0,0,-89.516,0.633,-31.382
EX0521-092111,10,C15,prep,1623,1623,0,627229.091,0.685,-0.677,0.194,0.188,0,0,0,0,0,0,0,0,0,0.000,0,0,0.049,0.006,-0.020,0.020,-0.040,0.015,0.992,0.012,0.000,-0.006,-0.004,0.000,0.000,0.000,0.000,0,2,0,2,7,255,1440,250,0,0,-89.516,0.633,-31.382
EX0521-092111,10,C15,prep,1623,1623,0,627234.091,0.685,-0.677,0.194,0.188,0,0,0,0,0,0,0,0,0,0.000,0,0,0.060,0.006,-0.020,-0.040,-0.040,0.014,0.993,0.011,0.000,-0.006,-0.004,0.000,0.000,0.000,0.000,0,2,0,2,7,255,1440,250,0,0,-89.516,0.633,-31.382
EX0521-092111,10,C15,prep,1631,1631,0,627239.092,0.685,-0.677,0.194,0.188,0,0,0,0,0,0,0,0,0,0.000,0,0,0.098,0.006,-0.080,-0.040,-0.040,0.014,0.993,0.011,-0.006,0.000,0.004,0.000,0.000,0.000,0.000,0,2,0,2,7,255,1440,250,0,0,-89.516,0.633,-31.382
EX0521-092111,10,C15,prep,1631,1631,0,627244.092,0.685,-0.677,0.194,0.188,0,0,0,0,0,0,0,0,0,0.000,0,0,0.060,0.006,-0.020,-0.040,-0.040,0.015,0.992,0.011,-0.006,0.000,0.004,0.000,0.000,0.000,0.000,0,2,0,2,7,255,1440,250,0,0,-89.516,0.633,-31.382
EX0521-092111,10,C15,prep,1650,1650,0,627249.092,0.685,-0.677,0.194,0.188,0,0,0,0,0,0,0,0,0,0.000,0,0,0.049,0.006,-0.020,0.020,-0.040,0.015,0.993,0.012,-0.002,-0.006,0.004,0.000,0.000,0.000,0.000,0,2,0,2,7,255,1440,250,0,0,-89.516,0.633,-31.382
EX0521-092111,10,C15,prep,1650,1650,0,627254.091,0.685,-0.677,0.194,0.188,0,0,0,0,0,0,0,0,0,0.000,0,0,0.110,0.006,-0.020,-0.040,-0.100,0.014,0.993,0.012,-0.002,-0.006,0.000,0.000,0.000,0.000,0.000,0,2,0,2,7,255,1440,250,0,0,-89.517,0.633,-31.382
EX0521-092111,10,C15,prep,1651,1651,0,627259.091,0.685,-0.677,0.194,0.188,0,0,0,0,0,0,0,0,0,0.000,0,0,0.049,0.010,-0.020,-0.040,-0.020,0.015,0.994,0.012,-0.002,-0.010,0.004,0.000,0.000,0.000,0.000,0,2,0,2,7,255,1440,250,0,0,-89.517,0.633,-31.382
EX0521-092111,10,C15,prep,1651,1651,0,627264.091,0.685,-0.677,0.194,0.188,0,0,0,0,0,0,0,0,0,0.000,0,0,0.049,0.008,-0.020,-0.040,-0.020,0.014,0.993,0.011,-0.006,-0.006,0.000,0.000,0.000,0.000,0.000,0,2,0,2,7,255,1440,250,0,0,-89.517,0.633,-31.382
EX0521-092111,10,C15,prep,1663,1663,0,627269.092,0.685,-0.677,0.194,0.188,0,0,0,0,0,0,0,0,0,0.000,0,0,0.049,0.002,-0.020,-0.040,-0.020,0.015,0.994,0.011,0.002,0.000,0.010,0.000,0.000,0.000,0.000,0,2,0,2,7,255,1440,250,0,0,-89.517,0.633,-31.382
EX0521-092111,10,C15,prep,1663,1663,0,627274.092,0.685,-0.677,0.194,0.188,0,0,0,0,0,0,0,0,0,0.000,0,0,0.049,0.000,-0.020,-0.040,-0.020,0.014,0.992,0.011,0.000,0.000,0.000,0.000,0.000,0.000,0.000,0,2,0,2,7,255,1440,250,0,0,-89.517,0.633,-31.382
EX0521-092111,10,C15,prep,1663,1663,0,627279.091,0.685,-0.677,0.194,0.188,0,0,0,0,0,0,0,0,0,0.000,0,0,0.035,0.002,-0.020,0.020,-0.020,0.015,0.993,0.012,0.002,0.000,0.004,0.000,0.000,0.000,0.000,0,2,0,2,7,255,1440,250,0,0,-89.517,0.633,-31.382
EX0521-092111,10,C15,prep,1663,1663,0,627284.091,0.685,-0.677,0.194,0.188,0,0,0,0,0,0,0,0,0,0.000,0,0,0.092,0.006,-0.080,-0.040,-0.020,0.014,0.992,0.012,0.000,-0.006,-0.006,0.000,0.000,0.000,0.000,0,2,0,2,7,255,1440,250,0,0,-89.517,0.633,-31.382
EX0521-092111,10,C15,prep,1695,1695,0,627289.092,0.685,-0.677,0.194,0.188,0,0,0,0,0,0,0,0,0,0.000,0,0,0.110,0.006,-0.020,-0.040,-0.100,0.015,0.993,0.011,0.000,-0.006,0.004,0.000,0.000,0.000,0.000,0,2,0,2,7,255,1440,250,0,0,-89.517,0.633,-31.382
EX0521-092111,10,C15,prep,1695,1695,0,627294.092,0.685,-0.677,0.194,0.188,0,0,0,0,0,0,0,0,0,0.000,0,0,0.060,0.006,-0.020,-0.040,0.040,0.015,0.993,0.012,0.000,-0.006,0.004,0.000,0.000,0.000,0.000,0,2,0,2,7,255,1440,250,0,0,-89.517,0.633,-31.382
EX0521-092111,10,C15,prep,1695,1695,0,627299.093,0.685,-0.677,0.194,0.188,0,0,0,0,0,0,0,0,0,0.000,0,0,0.110,0.004,-0.020,-0.040,-0.100,0.014,0.993,0.011,0.000,-0.004,0.004,0.000,0.000,0.000,0.000,0,2,0,2,7,255,1440,250,0,0,-89.517,0.633,-31.382
EX0521-092111,10,C15,prep,1695,1695,0,627304.091,0.685,-0.677,0.194,0.188,0,0,0,0,0,0,0,0,0,0.000,0,0,0.049,0.008,-0.020,-0.040,-0.020,0.015,0.993,0.012,-0.002,-0.008,0.004,0.000,0.000,0.000,0.000,0,2,0,2,7,255,1440,250,0,0,-89.518,0.633,-31.382
EX0521-092111,10,C15,prep,1695,1695,0,627309.091,0.685,-0.677,0.194,0.188,0,0,0,0,0,0,0,0,0,0.000,0,0,0.049,0.004,-0.020,-0.040,-0.020,0.014,0.993,0.011,-0.004,-0.002,0.004,0.000,0.000,0.000,0.000,0,2,0,2,7,255,1440,250,0,0,-89.518,0.633,-31.382
EX0521-092111,10,C15,prep,1695,1695,0,627314.091,0.685,-0.677,0.194,0.188,0,0,0,0,0,0,0,0,0,0.000,0,0,0.092,0.003,-0.080,-0.040,-0.020,0.014,0.993,0.011,-0.002,-0.002,0.000,0.000,0.000,0.000,0.000,0,2,0,2,7,255,1440,250,0,0,-89.518,0.632,-31.382
EX0521-092111,10,C15,prep,1721,1721,0,627319.092,0.685,-0.677,0.194,0.188,0,0,0,0,0,0,0,0,0,0.000,0,0,0.049,0.002,-0.020,-0.040,-0.020,0.014,0.992,0.011,0.000,0.002,0.000,0.000,0.000,0.000,0.000,0,2,0,2,7,255,1440,250,0,0,-89.518,0.632,-31.382
EX0521-092111,10,C15,prep,1721,1721,0,627324.092,0.685,-0.677,0.194,0.188,0,0,0,0,0,0,0,0,0,0.000,0,0,0.060,0.002,0.040,-0.040,-0.020,0.014,0.993,0.010,0.000,0.002,0.000,0.000,0.000,0.000,0.000,0,2,0,2,7,255,1440,250,0,0,-89.518,0.632,-31.382
EX0521-092111,10,C15,prep,1723,1723,0,627329.091,0.685,-0.677,0.194,0.188,0,0,0,0,0,0,0,0,0,0.000,0,0,0.049,0.006,0.040,0.020,-0.020,0.014,0.994,0.010,0.002,0.006,0.004,0.000,0.000,0.000,0.000,0,2,0,2,7,255,1440,250,0,0,-89.518,0.632,-31.382
EX0521-092111,10,C15,prep,1723,1723,0,627334.091,0.685,-0.677,0.194,0.188,0,0,0,0,0,0,0,0,0,0.000,0,0,0.092,0.006,-0.080,-0.040,-0.020,0.013,0.993,0.012,0.002,0.006,0.004,0.000,0.000,0.000,0.000,0,2,0,2,7,255,1440,250,0,0,-89.518,0.632,-31.382
EX0521-092111,10,C15,prep,1727,1727,0,627339.093,0.685,-0.677,0.194,0.188,0,0,0,0,0,0,0,0,0,0.000,0,0,0.098,0.004,0.040,-0.040,-0.080,0.014,0.994,0.011,-0.004,0.002,0.008,0.000,0.000,0.000,0.000,0,2,0,2,7,255,1440,250,0,0,-89.518,0.632,-31.382
EX0521-092111,10,C15,prep,1727,1727,0,627344.092,0.685,-0.677,0.194,0.188,0,0,0,0,0,0,0,0,0,0.000,0,0,0.049,0.004,0.040,0.020,-0.020,0.014,0.992,0.010,-0.004,0.002,0.004,0.000,0.000,0.000,0.000,0,2,0,2,7,255,1440,250,0,0,-89.518,0.632,-31.382
EX0521-092111,10,C15,prep,1745,1745,0,627349.092,0.685,-0.677,0.194,0.188,0,0,0,0,0,0,0,0,0,0.000,0,0,0.060,0.004,0.040,-0.040,-0.020,0.014,0.992,0.011,-0.004,0.000,-0.006,0.000,0.000,0.000,0.000,0,2,0,2,7,255,1440,250,0,0,-89.518,0.632,-31.382
EX0521-092111,10,C15,prep,1745,1745,0,627354.091,0.685,-0.677,0.194,0.188,0,0,0,0,0,0,0,0,0,0.000,0,0,0.049,0.000,-0.020,-0.040,-0.020,0.015,0.994,0.011,0.000,0.000,-0.006,0.000,0.000,0.000,0.000,0,2,0,2,7,255,1440,250,0,0,-89.519,0.632,-31.382
EX0521-092111,10,C15,prep,1758,1758,0,627359.094,0.685,-0.677,0.194,0.188,0,0,0,0,0,0,0,0,0,0.000,0,0,0.049,0.008,-0.020,-0.040,-0.020,0.014,0.994,0.011,-0.008,0.000,0.008,0.000,0.000,0.000,0.000,0,2,0,2,7,255,1440,250,0,0,-89.519,0.632,-31.382
EX0521-092111,10,C15,prep,1758,1758,0,627364.091,0.685,-0.677,0.194,0.188,0,0,0,0,0,0,0,0,0,0.000,0,0,0.104,0.008,-0.020,-0.100,-0.020,0.013,0.993,0.011,-0.008,0.000,0.008,0.000,0.000,0.000,0.000,0,2,0,2,7,255,1440,250,0,0,-89.519,0.632,-31.382
EX0521-092111,10,C15,prep,1758,1758,0,627369.092,0.685,-0.677,0.194,0.188,0,0,0,0,0,0,0,0,0,0.000,0,0,0.049,0.010,-0.020,-0.040,-0.020,0.014,0.993,0.010,-0.008,0.006,0.004,0.000,0.000,0.000,0.000,0,2,0,2,7,255,1440,250,0,0,-89.519,0.632,-31.382
EX0521-092111,10,C15,prep,1758,1758,0,627374.092,0.685,-0.677,0.194,0.188,0,0,0,0,0,0,0,0,0,0.000,0,0,0.035,0.006,-0.020,0.020,-0.020,0.014,0.993,0.011,-0.002,0.006,0.004,0.000,0.000,0.000,0.000,0,2,0,2,7,255,1440,250,0,0,-89.519,0.632,-31.382
EX0521-092111,10,C15,prep,1791,1791,0,627379.091,0.685,-0.677,0.194,0.188,0,0,0,0,0,0,0,0,0,0.000,0,0,0.035,0.003,-0.020,0.020,-0.020,0.014,0.991,0.011,-0.002,0.002,0.004,0.000,0.000,0.000,0.000,0,2,0,2,7,255,1440,250,0,0,-89.519,0.632,-31.382
EX0521-092111,10,C15,prep,1791,1791,0,627384.091,0.685,-0.677,0.194,0.188,0,0,0,0,0,0,0,0,0,0.000,0,0,0.085,0.003,-0.080,0.020,-0.020,0.014,0.994,0.012,-0.002,-0.002,0.004,0.000,0.000,0.000,0.000,0,2,0,2,7,255,1440,250,0,0,-89.519,0.632,-31.382
EX0521-092111,10,C15,prep,1820,1820,0,627389.091,0.685,-0.677,0.194,0.188,0,0,0,0,0,0,0,0,0,0.000,0,0,0.035,0.010,-0.020,0.020,-0.020,0.013,0.995,0.012,-0.010,-0.002,0.008,0.000,0.000,0.000,0.000,0,2,0,2,7,255,1440,250,0,0,-89.519,0.632,-31.382
EX0521-092111,10,C15,prep,1820,1820,0,627394.092,0.685,-0.677,0.194,0.188,0,0,0,0,0,0,0,0,0,0.000,0,0,0.092,0.014,-0.080,-0.040,-0.020,0.013,0.993,0.011,-0.014,-0.002,0.008,0.000,0.000,0.000,0.000,0,2,0,2,7,255,1440,250,0,0,-89.519,0.632,-31.382
EX0521-092111,10,C15,prep,1820,1820,0,627399.093,0.685,-0.677,0.194,0.188,0,0,0,0,0,0,0,0,0,0.000,0,0,0.049,0.014,-0.020,-0.040,-0.020,0.015,0.993,0.012,-0.014,-0.002,0.004,0.000,0.000,0.000,0.000,0,2,0,2,7,255,1440,250,0,0,-89.520,0.632,-31.382
EX0521-092111,10,C15,prep,1820,1820,0,627404.092,0.685,-0.677,0.194,0.188,0,0,0,0,0,0,0,0,0,0.000,0,0,0.049,0.002,-0.020,-0.040,-0.020,0.014,0.993,0.011,0.000,0.002,0.004,0.000,0.000,0.000,0.000,0,2,0,2,7,255,1440,250,0,0,-89.520,0.632,-31.382
EX0521-092111,10,C15,prep,1820,1820,0,627409.091,0.685,-0.677,0.194,0.188,0,0,0,0,0,0,0,0,0,0.000,0,0,0.049,0.003,-0.020,-0.040,0.020,0.014,0.993,0.010,0.002,0.002,0.004,0.000,0.000,0.000,0.000,0,2,0,2,7,255,1440,250,0,0,-89.520,0.632,-31.382
EX0521-092111,10,C15,prep,1820,1820,0,627414.091,0.685,-0.677,0.194,0.188,0,0,0,0,0,0,0,0,0,0.000,0,0,0.060,0.002,0.040,0.020,-0.040,0.014,0.994,0.011,0.000,0.002,0.004,0.000,0.000,0.000,0.000,0,2,0,2,7,255,1440,250,0,0,-89.520,0.632,-31.382
EX0521-092111,10,C15,prep,1821,1821,0,627419.092,0.685,-0.677,0.194,0.188,0,0,0,0,0,0,0,0,0,0.000,0,0,0.060,0.002,-0.020,-0.040,-0.040,0.014,0.992,0.011,0.000,0.002,-0.002,0.000,0.000,0.000,0.000,0,2,0,2,7,255,1440,250,0,0,-89.520,0.632,-31.382
EX0521-092111,10,C15,prep,1821,1821,0,627424.092,0.685,-0.677,0.194,0.188,0,0,0,0,0,0,0,0,0,0.000,0,0,0.069,0.000,0.040,-0.040,-0.040,0.015,0.993,0.011,0.000,0.000,0.004,0.000,0.000,0.000,0.000,0,2,0,2,7,255,1440,250,0,0,-89.520,0.632,-31.382
EX0521-092111,10,C15,prep,1822,1822,0,627429.091,0.685,-0.677,0.194,0.188,0,0,0,0,0,0,0,0,0,0.000,0,0,0.049,0.006,-0.020,0.020,-0.040,0.013,0.994,0.012,-0.006,-0.002,0.004,0.000,0.000,0.000,0.000,0,2,0,2,7,255,1440,250,0,0,-89.520,0.632,-31.382
EX0521-092111,10,C15,prep,1822,1822,0,627434.091,0.685,-0.677,0.194,0.188,0,0,0,0,0,0,0,0,0,0.000,0,0,0.069,0.004,0.040,-0.040,-0.040,0.015,0.993,0.012,0.004,-0.002,0.004,0.000,0.000,0.000,0.000,0,2,0,2,7,255,1440,250,0,0,-89.520,0.632,-31.382
EX0521-092111,10,C15,prep,1854,1854,0,627439.093,0.685,-0.677,0.194,0.188,0,0,0,0,0,0,0,0,0,0.000,0,0,0.060,0.008,0.040,0.020,-0.040,0.014,0.993,0.012,-0.006,-0.006,0.004,0.000,0.000,0.000,0.000,0,2,0,2,7,255,1440,250,0,0,-89.520,0.632,-31.382
EX0521-092111,10,C15,prep,1854,1854,0,627444.092,0.685,-0.677,0.194,0.188,0,0,0,0,0,0,0,0,0,0.000,0,0,0.060,0.007,-0.020,-0.040,-0.040,0.015,0.993,0.011,0.004,-0.006,0.004,0.000,0.000,0.000,0.000,0,2,0,2,7,255,1440,250,0,0,-89.520,0.632,-31.382
EX0521-092111,10,C15,prep,1854,1854,0,627449.092,0.685,-0.677,0.194,0.188,0,0,0,0,0,0,0,0,0,0.000,0,0,0.069,0.002,0.040,-0.040,-0.040,0.014,0.992,0.010,0.002,0.000,0.004,0.000,0.000,0.000,0.000,0,2,0,2,7,255,1440,250,0,0,-89.521,0.632,-31.382
EX0521-092111,10,C15,prep,1854,1854,0,627454.091,0.685,-0.677,0.194,0.188,0,0,0,0,0,0,0,0,0,0.000,0,0,0.060,0.002,-0.020,-0.040,-0.040,0.015,0.993,0.011,0.002,0.000,0.004,0.000,0.000,0.000,0.000,0,2,0,2,7,255,1440,250,0,0,-89.521,0.632,-31.382
EX0521-092111,10,C15,prep,1855,1855,0,627459.091,0.685,-0.677,0.194,0.188,0,0,0,0,0,0,0,0,0,0.000,0,0,0.110,0.006,-0.020,-0.040,-0.100,0.014,0.993,0.012,0.002,-0.006,0.004,0.000,0.000,0.000,0.000,0,2,0,2,7,255,1440,250,0,0,-89.521,0.632,-31.382
EX0521-092111,10,C15,prep,1855,1855,0,627464.092,0.685,-0.677,0.194,0.188,0,0,0,0,0,0,0,0,0,0.000,0,0,0.049,0.006,-0.020,-0.040,0.020,0.014,0.994,0.011,-0.002,-0.006,0.004,0.000,0.000,0.000,0.000,0,2,0,2,7,255,1440,250,0,0,-89.521,0.632,-31.382
EX0521-092111,10,C15,prep,1885,1885,0,627469.092,0.685,-0.677,0.194,0.188,0,0,0,0,0,0,0,0,0,0.000,0,0,0.110,0.003,-0.020,-0.040,-0.100,0.015,0.994,0.010,-0.002,-0.002,0.012,0.000,0.000,0.000,0.000,0,2,0,2,7,255,1440,250,0,0,-89.521,0.632,-31.382
EX0521-092111,10,C15,prep,1885,1885,0,627474.092,0.685,-0.677,0.194,0.188,0,0,0,0,0,0,0,0,0,0.000,0,0,0.060,0.006,-0.020,-0.040,-0.040,0.015,0.994,0.011,0.006,-0.002,0.012,0.000,0.000,0.000,0.000,0,2,0,2,7,255,1440,250,0,0,-89.521,0.632,-31.382
EX0521-092111,10,C15,prep,1885,1885,0,627479.091,0.685,-0.677,0.194,0.188,0,0,0,0,0,0,0,0,0,0.000,0,0,0.060,0.006,-0.020,-0.040,-0.040,0.014,0.994,0.011,0.006,0.002,0.012,0.000,0.000,0.000,0.000,0,2,0,2,7,255,1440,250,0,0,-89.521,0.632,-31.382
EX0521-092111,10,C15,prep,1885,1885,0,627484.091,0.685,-0.677,0.194,0.188,0,0,0,0,0,0,0,0,0,0.000,0,0,0.060,0.008,-0.020,-0.040,-0.040,0.015,0.993,0.012,0.000,-0.008,0.008,0.000,0.000,0.000,0.000,0,2,0,2,7,255,1440,250,0,0,-89.521,0.632,-31.382
EX0521-092111,10,C15,prep,1902,1902,0,627489.093,0.685,-0.677,0.194,0.188,0,0,0,0,0,0,0,0,0,0.000,0,0,0.049,0.002,-0.020,0.020,-0.040,0.014,0.992,0.011,0.000,0.002,0.002,0.000,0.000,0.000,0.000,0,2,0,2,7,255,1440,250,0,0,-89.521,0.632,-31.382
EX0521-092111,10,C15,prep,1902,1902,0,627494.092,0.685,-0.677,0.194,0.188,0,0,0,0,0,0,0,0,0,0.000,0,0,0.060,0.003,-0.020,-0.040,-0.040,0.013,0.993,0.011,-0.002,0.002,0.002,0.000,0.000,0.000,0.000,0,2,0,2,7,255,1440,250,0,0,-89.522,0.632,-31.382
EX0521-092111,10,C15,prep,1902,1902,0,627499.093,0.685,-0.677,0.194,0.188,0,0,0,0,0,0,0,0,0,0.000,0,0,0.098,0.002,-0.080,-0.040,-0.040,0.015,0.995,0.010,0.000,0.002,0.002,0.000,0.000,0.000,0.000,0,2,0,2,7,255,1440,250,0,0,-89.522,0.632,-31.382
EX0521-092111,10,C15,prep,1903,1903,0,627504.091,0.685,-0.677,0.194,0.188,0,0,0,0,0,0,0,0,0,0.000,0,0,0.049,0.006,-0.020,0.020,-0.040,0.015,0.994,0.010,0.006,0.002,0.008,0.000,0.000,0.000,0.000,0,2,0,2,7,255,1440,250,0,0,-89.522,0.632,-31.382
EX0521-092111,10,C15,prep,1903,1903,0,627509.091,0.685,-0.677,0.194,0.188,0,0,0,0,0,0,0,0,0,0.000,0,0,0.060,0.006,-0.020,-0.040,-0.040,0.013,0.994,0.011,0.006,0.002,0.012,0.000,0.000,0.000,0.000,0,2,0,2,7,255,1440,250,0,0,-89.522,0.632,-31.382
EX0521-092111,10,C15,prep,1903,1903,0,627514.092,0.685,-0.677,0.194,0.188,0,0,0,0,0,0,0,0,0,0.000,0,0,0.115,0.004,0.040,-0.100,-0.040,0.014,0.993,0.011,-0.004,0.002,0.008,0.000,0.000,0.000,0.000,0,2,0,2,7,255,1440,250,0,0,-89.522,0.632,-31.382
EX0521-092111,10,C15,prep,1921,1921,0,627519.092,0.685,-0.677,0.194,0.188,0,0,0,0,0,0,0,0,0,0.000,0,0,0.110,0.004,-0.020,-0.100,-0.040,0.015,0.993,0.011,-0.004,0.002,-0.002,0.000,0.000,0.000,0.000,0,2,0,2,7,255,1440,250,0,0,-89.522,0.632,-31.382
EX0521-092111,10,C15,prep,1921,1921,0,627524.092,0.685,-0.677,0.194,0.188,0,0,0,0,0,0,0,0,0,0.000,0,0,0.060,0.003,-0.020,-0.040,-0.040,0.015,0.993,0.011,0.002,-0.002,-0.002,0.000,0.000,0.000,0.000,0,2,0,2,7,255,1440,250,0,0,-89.522,0.632,-31.382
EX0521-092111,10,C15,prep,1921,1921,0,627529.091,0.685,-0.677,0.194,0.188,0,0,0,0,0,0,0,0,0,0.000,0,0,0.098,0.003,-0.080,-0.040,-0.040,0.014,0.993,0.011,0.002,-0.002,0.002,0.000,0.000,0.000,0.000,0,2,0,2,7,255,1440,250,0,0,-89.522,0.632,-31.382
EX0521-092111,10,C15,prep,1921,1921,0,627534.091,0.685,-0.677,0.194,0.188,0,0,0,0,0,0,0,0,0,0.000,0,0,0.069,0.003,0.040,-0.040,-0.040,0.015,0.994,0.011,0.002,-0.002,0.002,0.000,0.000,0.000,0.000,0,2,0,2,7,255,1440,250,0,0,-89.522,0.632,-31.382
EX0521-092111,10,C15,prep,1935,1935,0,627539.092,0.685,-0.677,0.194,0.188,0,0,0,0,0,0,0,0,0,0.000,0,0,0.035,0.006,-0.020,0.020,0.020,0.015,0.993,0.012,-0.002,-0.006,0.002,0.000,0.000,0.000,0.000,0,2,0,2,7,255,1440,250,0,0,-89.522,0.632,-31.382
EX0521-092111,10,C15,prep,1935,1935,0,627544.092,0.685,-0.677,0.194,0.188,0,0,0,0,0,0,0,0,0,0.000,0,0,0.060,0.006,-0.020,-0.040,-0.040,0.014,0.994,0.011,-0.002,-0.006,0.012,0.000,0.000,0.000,0.000,0,2,0,2,7,255,1440,250,0,0,-89.523,0.632,-31.382
EX0521-092111,10,C15,prep,1935,1935,0,627549.092,0.685,-0.677,0.194,0.188,0,0,0,0,0,0,0,0,0,0.000,0,0,0.049,0.006,-0.020,-0.040,0.020,0.014,0.994,0.011,-0.004,0.004,0.006,0.000,0.000,0.000,0.000,0,2,0,2,7,255,1440,250,0,0,-89.523,0.632,-31.382
EX0521-092111,10,C15,prep,1935,1935,0,627554.091,0.685,-0.677,0.194,0.188,0,0,0,0,0,0,0,0,0,0.000,0,0,0.060,0.006,-0.020,-0.040,-0.040,0.014,0.995,0.011,-0.004,0.004,0.012,0.000,0.000,0.000,0.000,0,2,0,2,7,255,1440,250,0,0,-89.523,0.631,-31.382
EX0521-092111,10,C15,prep,1967,1967,0,627559.094,0.685,-0.677,0.194,0.188,0,0,0,0,0,0,0,0,0,0.000,0,0,0.060,0.002,-0.020,-0.040,0.040,0.016,0.993,0.012,0.000,0.002,0.006,0.000,0.000,0.000,0.000,0,2,0,2,7,255,1440,250,0,0,-89.523,0.631,-31.382
EX0521-092111,10,C15,prep,1967,1967,0,627564.092,0.685,-0.677,0.194,0.188,0,0,0,0,0,0,0,0,0,0.000,0,0,0.049,0.006,-0.020,0.020,-0.040,0.015,0.994,0.011,0.002,-0.006,0.006,0.000,0.000,0.000,0.000,0,2,0,2,7,255,1440,250,0,0,-89.523,0.631,-31.382
EX0521-092111,10,C15,prep,1967,1967,0,627569.092,0.685,-0.677,0.194,0.188,0,0,0,0,0,0,0,0,0,0.000,0,0,0.060,0.006,-0.020,-0.040,-0.040,0.014,0.993,0.012,0.002,-0.006,0.002,0.000,0.000,0.000,0.000,0,2,0,2,7,255,1440,250,0,0,-89.523,0.631,-31.382
EX0521-092111,10,C15,prep,1967,1967,0,627574.092,0.685,-0.677,0.194,0.188,0,0,0,0,0,0,0,0,0,0.000,0,0,0.060,0.004,-0.020,-0.040,-0.040,0.014,0.994,0.011,0.000,-0.004,0.006,0.000,0.000,0.000,0.000,0,2,0,2,7,255,1440,250,0,0,-89.523,0.631,-31.382
EX0521-092111,10,C15,prep,1967,1967,0,627579.091,0.685,-0.677,0.194,0.188,0,0,0,0,0,0,0,0,0,0.000,0,0,0.069,0.004,0.040,-0.040,-0.040,0.015,0.994,0.011,0.000,-0.004,0.006,0.000,0.000,0.000,0.000,0,2,0,2,7,255,1440,250,0,0,-89.523,0.631,-31.382
EX0521-092111,10,C15,prep,1967,1967,0,627584.091,0.685,-0.677,0.194,0.188,0,0,0,0,0,0,0,0,0,0.000,0,0,0.098,0.004,-0.080,-0.040,-0.040,0.015,0.994,0.011,0.002,-0.004,0.006,0.000,0.000,0.000,0.000,0,2,0,2,7,255,1440,250,0,0,-89.523,0.631,-31.382
EX0521-092111,10,C15,prep,1999,1999,0,627589.092,0.685,-0.677,0.194,0.188,0,0,0,0,0,0,0,0,0,0.000,0,0,0.060,0.007,-0.020,-0.040,-0.040,0.015,0.994,0.010,0.006,-0.004,0.006,0.000,0.000,0.000,0.000,0,2,0,2,7,255,1440,250,0,0,-89.524,0.631,-31.382
EX0521-092111,10,C15,prep,1999,1999,0,627594.092,0.685,-0.677,0.194,0.188,0,0,0,0,0,0,0,0,0,0.000,0,0,0.060,0.007,-0.020,-0.040,-0.040,0.015,0.994,0.010,0.006,0.004,0.006,0.000,0.000,0.000,0.000,0,2,0,2,7,255,1440,250,0,0,-89.524,0.631,-31.382
EX0521-092111,10,C15,prep,1999,1999,0,627599.094,0.685,-0.677,0.194,0.188,0,0,0,0,0,0,0,0,0,0.000,0,0,0.134,0.011,-0.080,-0.100,-0.040,0.015,0.994,0.009,0.008,0.008,0.010,0.000,0.000,0.000,0.000,0,2,0,2,7,255,1440,250,0,0,-89.524,0.631,-31.382
EX0521-092111,10,C15,prep,1999,1999,0,627604.091,0.685,-0.677,0.194,0.188,0,0,0,0,0,0,0,0,0,0.000,0,0,0.060,0.011,-0.020,-0.040,-0.040,0.014,0.994,0.012,0.008,0.008,0.010,0.000,0.000,0.000,0.000,0,2,0,2,7,255,1440,250,0,0,-89.524,0.631,-31.382
EX0521-092111,10,C15,prep,1999,1999,0,627609.092,0.685,-0.677,0.194,0.188,0,0,0,0,0,0,0,0,0,0.000,0,0,0.060,0.008,-0.020,-0.040,-0.040,0.014,0.995,0.012,-0.006,-0.006,0.010,0.000,0.000,0.000,0.000,0,2,0,2,7,255,1440,250,0,0,-89.524,0.631,-31.382
EX0521-092111,10,C15,prep,1999,1999,0,627614.092,0.685,-0.677,0.194,0.188,0,0,0,0,0,0,0,0,0,0.000,0,0,0.060,0.008,-0.020,-0.040,-0.040,0.014,0.993,0.010,-0.006,-0.006,0.006,0.000,0.000,0.000,0.000,0,2,0,2,7,255,1440,250,0,0,-89.524,0.631,-31.382
EX0521-092111,10,C15,prep,2022,2022,0,627619.092,0.685,-0.677,0.194,0.188,0,0,0,0,0,0,0,0,0,0.000,0,0,0.130,0.003,-0.080,0.020,-0.100,0.014,0.993,0.011,-0.002,-0.002,0.002,0.000,0.000,0.000,0.000,0,2,0,2,7,255,1440,250,0,0,-89.524,0.631,-31.382
EX0521-092111,10,C15,prep,2022,2022,0,627624.091,0.685,-0.677,0.194,0.188,0,0,0,0,0,0,0,0,0,0.000,0,0,0.069,0.003,0.040,-0.040,-0.040,0.014,0.993,0.011,-0.002,-0.002,0.002,0.000,0.000,0.000,0.000,0,2,0,2,7,255,1440,250,0,0,-89.524,0.631,-31.382
EX0521-092111,10,C15,prep,2023,2023,0,627629.091,0.685,-0.677,0.194,0.188,0,0,0,0,0,0,0,0,0,0.000,0,0,0.060,0.003,-0.020,-0.040,-0.040,0.014,0.994,0.011,-0.002,-0.002,0.002,0.000,0.000,0.000,0.000,0,2,0,2,7,255,1440,250,0,0,-89.524,0.631,-31.382
EX0521-092111,10,C15,prep,2023,2023,0,627634.091,0.685,-0.677,0.194,0.188,0,0,0,0,0,0,0,0,0,0.000,0,0,0.060,0.003,-0.020,-0.040,-0.040,0.015,0.993,0.011,-0.002,-0.002,0.002,0.000,0.000,0.000,0.000,0,2,0,2,7,255,1440,250,0,0,-89.524,0.631,-31.382
EX0521-092111,10,C15,prep,2024,2024,0,627639.092,0.685,-0.677,0.194,0.188,0,0,0,0,0,0,0,0,0,0.000,0,0,0.092,0.002,-0.080,0.020,-0.040,0.014,0.994,0.011,0.000,0.002,0.006,0.000,0.000,0.000,0.000,0,2,0,2,7,255,1440,250,0,0,-89.525,0.631,-31.382
EX0521-092111,10,C15,prep,2024,2024,0,627644.092,0.685,-0.677,0.194,0.188,0,0,0,0,0,0,0,0,0,0.000,0,0,0.060,0.008,0.040,-0.040,0.020,0.015,0.994,0.012,0.000,-0.008,0.006,0.000,0.000,0.000,0.000,0,2,0,2,7,255,1440,250,0,0,-89.525,0.631,-31.382
EX0521-092111,10,C15,prep,2063,2063,0,627649.091,0.685,-0.677,0.194,0.188,0,0,0,0,0,0,0,0,0,0.000,0,0,0.049,0.002,-0.020,-0.040,0.020,0.014,0.993,0.011,0.000,0.002,0.006,0.000,0.000,0.000,0.000,0,2,0,2,7,255,1440,250,0,0,-89.525,0.631,-31.382
EX0521-092111,10,C15,prep,2063,2063,0,627654.091,0.685,-0.677,0.194,0.188,0,0,0,0,0,0,0,0,0,0.000,0,0,0.060,0.002,-0.020,-0.040,-0.040,0.014,0.994,0.011,0.000,0.002,0.006,0.000,0.000,0.000,0.000,0,2,0,2,7,255,1440,250,0,0,-89.525,0.631,-31.382
EX0521-092111,10,C15,prep,2065,2065,0,627659.091,0.685,-0.677,0.194,0.188,0,0,0,0,0,0,0,0,0,0.000,0,0,0.066,0.002,-0.020,-0.060,0.020,0.014,0.995,0.011,0.000,0.002,0.010,0.000,0.000,0.000,0.000,0,2,0,2,7,255,1440,250,0,0,-89.525,0.631,-31.382
EX0521-092111,10,C15,prep,2065,2065,0,627664.092,0.685,-0.677,0.194,0.188,0,0,0,0,0,0,0,0,0,0.000,0,0,0.108,0.002,-0.080,-0.060,-0.040,0.014,0.993,0.010,0.000,0.002,0.010,0.000,0.000,0.000,0.000,0,2,0,2,7,255,1440,250,0,0,-89.525,0.631,-31.382
EX0521-092111,10,C15,prep,2066,2066,0,627669.092,0.685,-0.677,0.194,0.188,0,0,0,0,0,0,0,0,0,0.000,0,0,0.049,0.002,-0.020,0.020,-0.040,0.014,0.994,0.011,-0.002,0.000,0.006,0.000,0.000,0.000,0.000,0,2,0,2,7,255,1440,250,0,0,-89.525,0.631,-31.382
EX0521-092111,10,C15,prep,2066,2066,0,627674.091,0.685,-0.677,0.194,0.188,0,0,0,0,0,0,0,0,0,0.000,0,0,0.075,0.003,-0.020,-0.060,-0.040,0.015,0.993,0.012,-0.002,-0.002,0.000,0.000,0.000,0.000,0.000,0,2,0,2,7,255,1440,250,0,0,-89.525,0.631,-31.382
EX0521-092111,10,C15,prep,2094,2094,0,627679.091,0.685,-0.677,0.194,0.188,0,0,0,0,0,0,0,0,0,0.000,0,0,0.035,0.003,-0.020,0.020,0.020,0.014,0.994,0.011,-0.002,-0.002,0.006,0.000,0.000,0.000,0.000,0,2,0,2,7,255,1440,250,0,0,-89.525,0.631,-31.382
EX0521-092111,10,C15,prep,2094,2094,0,627684.092,0.685,-0.677,0.194,0.188,0,0,0,0,0,0,0,0,0,0.000,0,0,0.082,0.006,0.040,-0.060,-0.040,0.014,0.994,0.011,-0.006,0.000,0.006,0.000,0.000,0.000,0.000,0,2,0,2,7,255,1440,250,0,0,-89.526,0.631,-31.382
EX0521-092111,10,C15,prep,2094,2094,0,627689.092,0.685,-0.677,0.194,0.188,0,0,0,0,0,0,0,0,0,0.000,0,0,0.108,0.006,-0.080,-0.060,-0.040,0.015,0.994,0.012,-0.006,0.000,0.006,0.000,0.000,0.000,0.000,0,2,0,2,7,255,1440,250,0,0,-89.526,0.631,-31.382
EX0521-092111,10,C15,prep,2094,2094,0,627694.092,0.685,-0.677,0.194,0.188,0,0,0,0,0,0,0,0,0,0.000,0,0,0.075,0.008,-0.020,-0.060,-0.040,0.014,0.994,0.012,-0.006,-0.006,0.010,0.000,0.000,0.000,0.000,0,2,0,2,7,255,1440,250,0,0,-89.526,0.631,-31.382
EX0521-092111,10,C15,prep,2094,2094,0,627699.094,0.685,-0.677,0.194,0.188,0,0,0,0,0,0,0,0,0,0.000,0,0,0.049,0.006,-0.020,0.020,-0.040,0.014,0.994,0.011,0.000,-0.006,0.006,0.000,0.000,0.000,0.000,0,2,0,2,7,255,1440,250,0,0,-89.526,0.631,-31.382
EX0521-092111,10,C15,prep,2094,2094,0,627704.091,0.685,-0.677,0.194,0.188,0,0,0,0,0,0,0,0,0,0.000,0,0,0.060,0.008,0.040,0.020,-0.040,0.014,0.995,0.012,-0.006,-0.006,0.010,0.000,0.000,0.000,0.000,0,2,0,2,7,255,1440,250,0,0,-89.526,0.631,-31.382
EX0521-092111,10,C15,prep,2127,2127,0,627709.092,0.685,-0.677,0.194,0.188,0,0,0,0,0,0,0,0,0,0.000,0,0,0.060,0.003,0.040,-0.040,-0.020,0.014,0.993,0.011,-0.002,-0.002,0.006,0.000,0.000,0.000,0.000,0,2,0,2,7,255,1440,250,0,0,-89.526,0.631,-31.382
EX0521-092111,10,C15,prep,2127,2127,0,627714.092,0.685,-0.677,0.194,0.188,0,0,0,0,0,0,0,0,0,0.000,0,0,0.060,0.003,0.040,-0.040,-0.020,0.014,0.993,0.011,-0.002,-0.002,0.000,0.000,0.000,0.000,0.000,0,2,0,2,7,255,1440,250,0,0,-89.526,0.631,-31.382
EX0521-092111,10,C15,prep,2127,2127,0,627719.092,0.685,-0.677,0.194,0.188,0,0,0,0,0,0,0,0,0,0.000,0,0,0.110,0.003,-0.020,-0.040,-0.100,0.013,0.993,0.012,-0.002,-0.002,0.000,0.000,0.000,0.000,0.000,0,2,0,2,7,255,1440,250,0,0,-89.526,0.631,-31.382
EX0521-092111,10,C15,prep,2127,2127,0,627724.091,0.685,-0.677,0.194,0.188,0,0,0,0,0,0,0,0,0,0.000,0,0,0.049,0.004,-0.020,-0.040,-0.020,0.014,0.993,0.012,-0.004,-0.002,0.000,0.000,0.000,0.000,0.000,0,2,0,2,7,255,1440,250,0,0,-89.526,0.631,-31.382
EX0521-092111,10,C15,prep,2127,2127,0,627729.091,0.685,-0.677,0.194,0.188,0,0,0,0,0,0,0,0,0,0.000,0,0,0.060,0.004,-0.020,-0.040,0.040,0.014,0.994,0.010,-0.004,-0.002,0.000,0.000,0.000,0.000,0.000,0,2,0,2,7,255,1440,250,0,0,-89.526,0.631,-31.382
EX0521-092111,10,C15,prep,2127,2127,0,627734.092,0.685,-0.677,0.194,0.188,0,0,0,0,0,0,0,0,0,0.000,0,0,0.060,0.006,-0.020,-0.040,0.040,0.014,0.993,0.010,0.000,0.006,0.000,0.000,0.000,0.000,0.000,0,2,0,2,7,255,1440,250,0,0,-89.527,0.631,-31.382
EX0521-092111,10,C15,prep,2151,2151,0,627739.092,0.685,-0.677,0.194,0.188,0,0,0,0,0,0,0,0,0,0.000,0,0,0.110,0.006,0.040,-0.100,-0.020,0.015,0.992,0.012,0.000,0.006,-0.004,0.000,0.000,0.000,0.000,0,2,0,2,7,255,1440,250,0,0,-89.527,0.631,-31.382
EX0521-092111,10,C15,prep,2151,2151,0,627744.092,0.685,-0.677,0.194,0.188,0,0,0,0,0,0,0,0,0,0.000,0,0,0.049,0.012,-0.020,-0.040,-0.020,0.016,0.993,0.011,0.002,-0.012,-0.004,0.000,0.000,0.000,0.000,0,2,0,2,7,255,1440,250,0,0,-89.527,0.632,-31.382
EX0521-092111,10,C15,prep,2151,2151,0,627749.091,0.685,-0.677,0.194,0.188,0,0,0,0,0,0,0,0,0,0.000,0,0,0.060,0.017,0.040,-0.040,-0.020,0.016,0.994,0.011,0.012,-0.012,-0.004,0.000,0.000,0.000,0.000,0,2,0,2,7,255,1440,250,0,0,-89.527,0.632,-31.382
EX0521-092111,10,C15,prep,2151,2151,0,627754.091,0.685,-0.677,0.194,0.188,0,0,0,0,0,0,0,0,0,0.000,0,0,0.049,0.013,-0.020,-0.040,-0.020,0.015,0.993,0.011,0.012,-0.006,0.000,0.000,0.000,0.000,0.000,0,2,0,2,7,255,1440,250,0,0,-89.527,0.632,-31.382
EX0521-092111,10,C15,prep,2151,2151,0,627759.094,0.685,-0.677,0.194,0.188,0,0,0,0,0,0,0,0,0,0.000,0,0,0.060,0.010,0.040,-0.040,-0.020,0.014,0.992,0.012,0.008,-0.006,0.000,0.000,0.000,0.000,0.000,0,2,0,2,7,255,1440,250,0,0,-89.527,0.632,-31.382
EX0521-092111,10,C15,prep,2151,2151,0,627764.092,0.685,-0.677,0.194,0.188,0,0,0,0,0,0,0,0,0,0.000,0,0,0.092,0.006,-0.080,-0.040,-0.020,0.015,0.993,0.011,0.004,-0.004,0.000,0.000,0.000,0.000,0.000,0,2,0,2,7,255,1440,250,0,0,-89.527,0.632,-31.382
EX0521-092111,10,C15,prep,2159,2159,0,627769.092,0.685,-0.677,0.194,0.188,0,0,0,0,0,0,0,0,0,0.000,0,0,0.049,0.002,-0.020,-0.040,-0.020,0.014,0.995,0.010,0.002,0.000,0.000,0.000,0.000,0.000,0.000,0,2,0,2,7,255,1440,250,0,0,-89.527,0.632,-31.382
EX0521-092111,10,C15,prep,2159,2159,0,627774.091,0.685,-0.677,0.194,0.188,0,0,0,0,0,0,0,0,0,0.000,0,0,0.049,0.002,-0.020,-0.040,-0.020,0.014,0.993,0.012,0.002,0.000,0.000,0.000,0.000,0.000,0.000,0,2,0,2,7,255,1440,250,0,0,-89.527,0.632,-31.382
EX0521-092111,10,C15,prep,2186,2186,0,627779.091,0.685,-0.677,0.194,0.188,0,0,0,0,0,0,0,0,0,0.000,0,0,0.060,0.006,-0.020,-0.040,0.040,0.015,0.994,0.011,0.002,-0.006,0.006,0.000,0.000,0.000,0.000,0,2,0,2,7,255,1440,250,0,0,-89.527,0.632,-31.382
EX0521-092111,10,C15,prep,2186,2186,0,627784.092,0.685,-0.677,0.194,0.188,0,0,0,0,0,0,0,0,0,0.000,0,0,0.049,0.008,-0.020,-0.040,-0.020,0.014,0.994,0.012,-0.006,-0.006,0.004,0.000,0.000,0.000,0.000,0,2,0,2,7,255,1440,250,0,0,-89.528,0.632,-31.382
EX0521-092111,10,C15,prep,2221,2221,0,627789.092,0.685,-0.677,0.194,0.188,0,0,0,0,0,0,0,0,0,0.000,0,0,0.049,0.008,-0.020,0.020,0.040,0.015,0.994,0.010,0.006,-0.006,0.006,0.000,0.000,0.000,0.000,0,2,0,2,7,255,1440,250,0,0,-89.528,0.632,-31.382
EX0521-092111,10,C15,prep,2221,2221,0,627794.091,0.685,-0.677,0.194,0.188,0,0,0,0,0,0,0,0,0,0.000,0,0,0.049,0.006,-0.020,-0.040,-0.020,0.014,0.994,0.011,-0.006,0.000,0.010,0.000,0.000,0.000,0.000,0,2,0,2,7,255,1440,250,0,0,-89.528,0.632,-31.382
EX0521-092111,10,C15,prep,2221,2221,0,627799.093,0.685,-0.677,0.194,0.188,0,0,0,0,0,0,0,0,0,0.000,0,0,0.049,0.006,-0.020,-0.040,-0.020,0.015,0.994,0.010,0.006,0.002,0.010,0.000,0.000,0.000,0.000,0,2,0,2,7,255,1440,250,0,0,-89.528,0.632,-31.382
EX0521-092111,10,C15,prep,2221,2221,0,627804.092,0.685,-0.677,0.194,0.188,0,0,0,0,0,0,0,0,0,0.000,0,0,0.049,0.002,-0.020,-0.040,-0.020,0.015,0.994,0.011,0.002,0.000,0.010,0.000,0.000,0.000,0.000,0,2,0,2,7,255,1440,250,0,0,-89.528,0.632,-31.382
EX0521-092111,10,C15,prep,2221,2221,0,627809.092,0.685,-0.677,0.194,0.188,0,0,0,0,0,0,0,0,0,0.000,0,0,0.060,0.004,0.040,0.020,-0.040,0.015,0.994,0.011,0.004,0.000,0.010,0.000,0.000,0.000,0.000,0,2,0,2,7,255,1440,250,0,0,-89.528,0.632,-31.382
EX0521-092111,10,C15,prep,2221,2221,0,627814.092,0.685,-0.677,0.194,0.188,0,0,0,0,0,0,0,0,0,0.000,0,0,0.069,0.003,0.040,-0.040,-0.040,0.014,0.993,0.011,0.002,-0.002,0.004,0.000,0.000,0.000,0.000,0,2,0,2,7,255,1440,250,0,0,-89.528,0.632,-31.382
EX0521-092111,10,C15,prep,2221,2221,0,627819.091,0.685,-0.677,0.194,0.188,0,0,0,0,0,0,0,0,0,0.000,0,0,0.049,0.004,-0.020,-0.040,0.020,0.014,0.993,0.012,-0.004,-0.002,0.000,0.000,0.000,0.000,0.000,0,2,0,2,7,255,1440,250,0,0,-89.528,0.632,-31.382
EX0521-092111,10,C15,prep,2221,2221,0,627824.091,0.685,-0.677,0.194,0.188,0,0,0,0,0,0,0,0,0,0.000,0,0,0.049,0.004,-0.020,-0.040,0.020,0.015,0.993,0.010,-0.004,-0.002,0.000,0.000,0.000,0.000,0.000,0,2,0,2,7,255,1440,250,0,0,-89.528,0.632,-31.382
EX0521-092111,10,C15,prep,2223,2223,0,627829.092,0.685,-0.677,0.194,0.188,0,0,0,0,0,0,0,0,0,0.000,0,0,0.110,0.009,-0.020,-0.040,-0.100,0.015,0.994,0.011,0.008,-0.004,0.000,0.000,0.000,0.000,0.000,0,2,0,2,7,255,1440,250,0,0,-89.529,0.632,-31.382
EX0521-092111,10,C15,prep,2223,2223,0,627834.092,0.685,-0.677,0.194,0.188,0,0,0,0,0,0,0,0,0,0.000,0,0,0.049,0.008,-0.020,-0.040,0.020,0.014,0.995,0.010,0.008,0.000,0.004,0.000,0.000,0.000,0.000,0,2,0,2,7,255,1440,250,0,0,-89.529,0.632,-31.382
EX0521-092111,10,C15,prep,2252,2252,0,627839.092,0.685,-0.677,0.194,0.188,0,0,0,0,0,0,0,0,0,0.000,0,0,0.060,0.009,-0.020,-0.040,-0.040,0.016,0.994,0.011,0.008,-0.004,0.004,0.000,0.000,0.000,0.000,0,2,0,2,7,255,1440,250,0,0,-89.529,0.632,-31.382
EX0521-092111,10,C15,prep,2252,2252,0,627844.091,0.685,-0.677,0.194,0.188,0,0,0,0,0,0,0,0,0,0.000,0,0,0.060,0.004,-0.020,-0.040,-0.040,0.014,0.994,0.011,0.002,0.004,0.004,0.000,0.000,0.000,0.000,0,2,0,2,7,255,1440,250,0,0,-89.529,0.632,-31.382
EX0521-092111,10,C15,prep,2252,2252,0,627849.091,0.685,-0.677,0.194,0.188,0,0,0,0,0,0,0,0,0,0.000,0,0,0.060,0.002,-0.020,-0.040,-0.040,0.014,0.993,0.011,0.000,0.002,0.004,0.000,0.000,0.000,0.000,0,2,0,2,7,255,1440,250,0,0,-89.529,0.632,-31.382
EX0521-092111,10,C15,prep,2252,2252,0,627854.092,0.685,-0.677,0.194,0.188,0,0,0,0,0,0,0,0,0,0.000,0,0,0.060,0.004,-0.020,-0.040,-0.040,0.014,0.995,0.010,-0.002,0.004,0.004,0.000,0.000,0.000,0.000,0,2,0,2,7,255,1440,250,0,0,-89.529,0.632,-31.382
EX0521-092111,10,C15,prep,2253,2253,0,627859.092,0.685,-0.677,0.194,0.188,0,0,0,0,0,0,0,0,0,0.000,0,0,0.060,0.008,0.040,-0.040,0.020,0.013,0.994,0.010,-0.002,0.008,0.008,0.000,0.000,0.000,0.000,0,2,0,2,7,255,1440,250,0,0,-89.529,0.632,-31.382
EX0521-092111,10,C15,prep,2253,2253,0,627864.092,0.685,-0.677,0.194,0.188,0,0,0,0,0,0,0,0,0,0.000,0,0,0.098,0.008,-0.080,-0.040,-0.040,0.015,0.993,0.010,-0.002,0.008,0.008,0.000,0.000,0.000,0.000,0,2,0,2,7,255,1440,250,0,0,-89.529,0.632,-31.382
EX0521-092111,10,C15,prep,2287,2287,0,627869.091,0.685,-0.677,0.194,0.188,0,0,0,0,0,0,0,0,0,0.000,0,0,0.060,0.007,0.040,-0.040,0.020,0.015,0.994,0.010,0.006,0.004,0.004,0.000,0.000,0.000,0.000,0,2,0,2,7,255,1440,250,0,0,-89.529,0.632,-31.382
EX0521-092111,10,C15,prep,2287,2287,0,627874.091,0.685,-0.677,0.194,0.188,0,0,0,0,0,0,0,0,0,0.000,0,0,0.060,0.006,-0.020,-0.040,-0.040,0.015,0.994,0.012,0.006,0.000,0.004,0.000,0.000,0.000,0.000,0,2,0,2,7,255,1440,250,0,0,-89.529,0.632,-31.382
EX0521-092111,10,C15,prep,2287,2287,0,627879.092,0.685,-0.677,0.194,0.188,0,0,0,0,0,0,0,0,0,0.000,0,0,0.060,0.004,-0.020,-0.040,-0.040,0.014,0.993,0.011,-0.004,0.000,0.004,0.000,0.000,0.000,0.000,0,2,0,2,7,255,1440,250,0,0,-89.530,0.632,-31.382
EX0521-092111,10,C15,prep,2287,2287,0,627884.092,0.685,-0.677,0.194,0.188,0,0,0,0,0,0,0,0,0,0.000,0,0,0.092,0.006,-0.080,0.020,-0.040,0.014,0.993,0.011,-0.004,0.004,0.000,0.000,0.000,0.000,0.000,0,2,0,2,7,255,1440,250,0,0,-89.530,0.632,-31.382
EX0521-092111,10,C15,prep,2303,2303,0,627889.091,0.685,-0.677,0.194,0.188,0,0,0,0,0,0,0,0,0,0.000,0,0,0.060,0.006,-0.020,-0.040,-0.040,0.014,0.993,0.011,-0.004,0.004,-0.006,0.000,0.000,0.000,0.000,0,2,0,2,7,255,1440,250,0,0,-89.530,0.632,-31.382
EX0521-092111,10,C15,prep,2303,2303,0,627894.091,0.685,-0.677,0.194,0.188,0,0,0,0,0,0,0,0,0,0.000,0,0,0.060,0.004,-0.020,-0.040,-0.040,0.013,0.993,0.012,-0.004,-0.002,0.000,0.000,0.000,0.000,0.000,0,2,0,2,7,255,1440,250,0,0,-89.530,0.632,-31.382
EX0521-092111,10,C15,prep,2303,2303,0,627899.093,0.685,-0.677,0.194,0.188,0,0,0,0,0,0,0,0,0,0.000,0,0,0.060,0.004,-0.020,-0.040,-0.040,0.015,0.995,0.010,-0.004,-0.002,0.000,0.000,0.000,0.000,0.000,0,2,0,2,7,255,1440,250,0,0,-89.530,0.632,-31.382
EX0521-092111,10,C15,prep,2303,2303,0,627904.092,0.685,-0.677,0.194,0.188,0,0,0,0,0,0,0,0,0,0.000,0,0,0.060,0.006,-0.020,-0.040,-0.040,0.015,0.993,0.010,0.006,0.002,0.000,0.000,0.000,0.000,0.000,0,2,0,2,7,255,1440,250,0,0,-89.530,0.632,-31.382
EX0521-092111,10,C15,prep,2303,2303,0,627909.092,0.685,-0.677,0.194,0.188,0,0,0,0,0,0,0,0,0,0.000,0,0,0.060,0.006,-0.020,-0.040,-0.040,0.016,0.992,0.011,0.006,0.002,-0.006,0.000,0.000,0.000,0.000,0,2,0,2,7,255,1440,250,0,0,-89.530,0.631,-31.382
EX0521-092111,10,C15,prep,2303,2303,0,627914.091,0.685,-0.677,0.194,0.188,0,0,0,0,0,0,0,0,0,0.000,0,0,0.069,0.006,0.040,-0.040,-0.040,0.015,0.993,0.011,0.006,-0.002,-0.006,0.000,0.000,0.000,0.000,0,2,0,2,7,255,1440,250,0,0,-89.530,0.631,-31.382
EX0521-092111,10,C15,prep,2321,2321,0,627919.091,0.685,-0.677,0.194,0.188,0,0,0,0,0,0,0,0,0,0.000,0,0,0.069,0.004,0.040,-0.040,-0.040,0.014,0.994,0.011,0.004,-0.002,0.000,0.000,0.000,0.000,0.000,0,2,0,2,7,255,1440,250,0,0,-89.530,0.631,-31.382
EX0521-092111,10,C15,prep,2321,2321,0,627924.092,0.685,-0.677,0.194,0.188,0,0,0,0,0,0,0,0,0,0.000,0,0,0.060,0.004,-0.020,-0.040,-0.040,0.013,0.993,0.012,-0.004,-0.002,0.000,0.000,0.000,0.000,0.000,0,2,0,2,7,255,1440,250,0,0,-89.531,0.631,-31.382
EX0521-092111,10,C15,prep,2322,2322,0,627929.092,0.685,-0.677,0.194,0.188,0,0,0,0,0,0,0,0,0,0.000,0,0,0.049,0.008,-0.020,0.020,0.040,0.014,0.994,0.011,-0.008,-0.002,0.004,0.000,0.000,0.000,0.000,0,2,0,2,7,255,1440,250,0,0,-89.531,0.631,-31.382
EX0521-092111,10,C15,prep,2322,2322,0,627934.092,0.685,-0.677,0.194,0.188,0,0,0,0,0,0,0,0,0,0.000,0,0,0.060,0.008,-0.020,-0.040,-0.040,0.014,0.993,0.011,-0.008,0.000,0.000,0.000,0.000,0.000,0.000,0,2,0,2,7,255,1440,250,0,0,-89.531,0.631,-31.382
EX0521-092111,10,C15,prep,2334,2334,0,627939.092,0.685,-0.677,0.194,0.188,0,0,0,0,0,0,0,0,0,0.000,0,0,0.060,0.002,-0.020,-0.040,-0.040,0.015,0.993,0.012,-0.002,0.000,0.000,0.000,0.000,0.000,0.000,0,2,0,2,7,255,1440,250,0,0,-89.531,0.631,-31.382
EX0521-092111,10,C15,prep,2335,2335,0,627944.091,0.685,-0.677,0.194,0.188,0,0,0,0,0,0,0,0,0,0.000,0,0,0.060,0.004,-0.020,-0.040,-0.040,0.014,0.993,0.012,-0.002,-0.004,-0.006,0.000,0.000,0.000,0.000,0,2,0,2,7,255,1440,250,0,0,-89.531,0.631,-31.382
EX0521-092111,10,C15,prep,2366,2366,0,627949.092,0.685,-0.677,0.194,0.188,0,0,0,0,0,0,0,0,0,0.000,0,0,0.049,0.011,-0.020,0.020,-0.040,0.013,0.994,0.011,-0.010,-0.004,0.000,0.000,0.000,0.000,0.000,0,2,0,2,7,255,1440,250,0,0,-89.531,0.631,-31.382
EX0521-092111,10,C15,prep,2366,2366,0,627954.092,0.685,-0.677,0.194,0.188,0,0,0,0,0,0,0,0,0,0.000,0,0,0.069,0.010,0.040,-0.040,-0.040,0.014,0.993,0.011,-0.010,0.002,0.000,0.000,0.000,0.000,0.000,0,2,0,2,7,255,1440,250,0,0,-89.531,0.631,-31.382
EX0521-092111,10,C15,prep,2367,2367,0,627959.095,0.685,-0.677,0.194,0.188,0,0,0,0,0,0,0,0,0,0.000,0,0,0.069,0.012,0.040,-0.040,-0.040,0.013,0.994,0.010,-0.006,0.010,0.004,0.000,0.000,0.000,0.000,0,2,0,2,7,255,1440,250,0,0,-89.531,0.631,-31.382
EX0521-092111,10,C15,prep,2367,2367,0,627964.091,0.685,-0.677,0.194,0.188,0,0,0,0,0,0,0,0,0,0.000,0,0,0.060,0.006,-0.020,-0.040,-0.040,0.013,0.993,0.011,-0.006,0.002,0.000,0.000,0.000,0.000,0.000,0,2,0,2,7,255,1440,250,0,0,-89.531,0.631,-31.382
EX0521-092111,10,C15,prep,2367,2367,0,627969.091,0.685,-0.677,0.194,0.188,0,0,0,0,0,0,0,0,0,0.000,0,0,0.049,0.010,-0.020,0.020,-0.040,0.014,0.994,0.012,-0.010,0.002,0.004,0.000,0.000,0.000,0.000,0,2,0,2,7,255,1440,250,0,0,-89.531,0.631,-31.382
EX0521-092111,10,C15,prep,2367,2367,0,627974.092,0.685,-0.677,0.194,0.188,0,0,0,0,0,0,0,0,0,0.000,0,0,0.060,0.010,-0.020,-0.040,-0.040,0.013,0.992,0.011,-0.010,0.002,0.000,0.000,0.000,0.000,0.000,0,2,0,2,7,255,1440,250,0,0,-89.532,0.631,-31.382
EX0521-092111,10,C15,prep,2399,2399,0,627979.092,0.685,-0.677,0.194,0.188,0,0,0,0,0,0,0,0,0,0.000,0,0,0.049,0.011,-0.020,0.020,-0.040,0.014,0.993,0.012,-0.010,-0.004,0.000,0.000,0.000,0.000,0.000,0,2,0,2,7,255,1440,250,0,0,-89.532,0.631,-31.382
EX0521-092111,10,C15,prep,2399,2399,0,627984.092,0.685,-0.677,0.194,0.188,0,0,0,0,0,0,0,0,0,0.000,0,0,0.060,0.013,-0.020,-0.040,-0.040,0.015,0.994,0.012,-0.010,-0.008,0.000,0.000,0.000,0.000,0.000,0,2,0,2,7,255,1440,250,0,0,-89.532,0.631,-31.382
EX0521-092111,10,C15,prep,2399,2399,0,627989.091,0.685,-0.677,0.194,0.188,0,0,0,0,0,0,0,0,0,0.000,0,0,0.060,0.009,-0.020,-0.040,-0.040,0.016,0.993,0.011,0.004,-0.008,0.000,0.000,0.000,0.000,0.000,0,2,0,2,7,255,1440,250,0,0,-89.532,0.631,-31.382
EX0521-092111,10,C15,prep,2399,2399,0,627994.091,0.685,-0.677,0.194,0.188,0,0,0,0,0,0,0,0,0,0.000,0,0,0.060,0.012,-0.020,-0.040,-0.040,0.015,0.994,0.010,0.010,-0.006,0.004,0.000,0.000,0.000,0.000,0,2,0,2,7,255,1440,250,0,0,-89.532,0.631,-31.382
EX0521-092111,10,C15,prep,2399,2399,0,627999.095,0.685,-0.677,0.194,0.188,0,0,0,0,0,0,0,0,0,0.000,0,0,0.069,0.012,0.040,-0.040,-0.040,0.015,0.992,0.011,0.010,-0.006,0.000,0.000,0.000,0.000,0.000,0,2,0,2,7,255,1440,250,0,0,-89.532,0.631,-31.382
EX0521-092111,10,C15,prep,2399,2399,0,628004.092,0.685,-0.677,0.194,0.188,0,0,0,0,0,0,0,0,0,0.000,0,0,0.069,0.004,0.040,-0.040,-0.040,0.015,0.993,0.011,0.004,-0.002,-0.006,0.000,0.000,0.000,0.000,0,2,0,2,7,255,1440,250,0,0,-89.532,0.631,-31.382
EX0521-092111,10,C15,prep,2420,2420,0,628009.092,0.685,-0.677,0.194,0.188,0,0,0,0,0,0,0,0,0,0.000,0,0,0.069,0.004,0.040,-0.040,-0.040,0.015,0.993,0.010,0.004,-0.002,-0.006,0.000,0.000,0.000,0.000,0,2,0,2,7,255,1440,250,0,0,-89.532,0.631,-31.382
EX0521-092111,10,C15,prep,2420,2420,0,628014.091,0.685,-0.677,0.194,0.188,0,0,0,0,0,0,0,0,0,0.000,0,0,0.060,0.004,-0.020,-0.040,-0.040,0.014,0.993,0.011,0.004,0.002,0.000,0.000,0.000,0.000,0.000,0,2,0,2,7,255,1440,250,0,0,-89.532,0.631,-31.382
EX0521-092111,10,C15,prep,2421,2421,0,628019.092,0.685,-0.677,0.194,0.188,0,0,0,0,0,0,0,0,0,0.000,0,0,0.060,0.006,-0.020,-0.040,-0.040,0.014,0.993,0.011,-0.004,0.004,0.000,0.000,0.000,0.000,0.000,0,2,0,2,7,255,1440,250,0,0,-89.533,0.631,-31.382
EX0521-092111,10,C15,prep,2421,2421,0,628024.092,0.685,-0.677,0.194,0.188,0,0,0,0,0,0,0,0,0,0.000,0,0,0.134,0.006,-0.080,-0.100,-0.040,0.013,0.994,0.011,-0.004,0.004,0.000,0.000,0.000,0.000,0.000,0,2,0,2,7,255,1440,250,0,0,-89.533,0.631,-31.382
EX0521-092111,10,C15,prep,2422,2422,0,628029.092,0.685,-0.677,0.194,0.188,0,0,0,0,0,0,0,0,0,0.000,0,0,0.060,0.004,0.040,0.020,0.040,0.014,0.993,0.011,-0.004,0.002,0.000,0.000,0.000,0.000,0.000,0,2,0,2,7,255,1440,250,0,0,-89.533,0.631,-31.382
EX0521-092111,10,C15,prep,2422,2422,0,628034.091,0.685,-0.677,0.194,0.188,0,0,0,0,0,0,0,0,0,0.000,0,0,0.049,0.003,-0.020,0.020,-0.040,0.015,0.993,0.011,-0.002,-0.002,0.000,0.000,0.000,0.000,0.000,0,2,0,2,7,255,1440,250,0,0,-89.533,0.631,-31.382
EX0521-092111,10,C15,prep,2431,2431,0,628039.092,0.685,-0.677,0.194,0.188,0,0,0,0,0,0,0,0,0,0.000,0,0,0.060,0.002,-0.020,-0.040,-0.040,0.015,0.994,0.012,0.000,-0.002,0.000,0.000,0.000,0.000,0.000,0,2,0,2,7,255,1440,250,0,0,-89.533,0.631,-31.382
EX0521-092111,10,C15,prep,2431,2431,0,628044.092,0.685,-0.677,0.194,0.188,0,0,0,0,0,0,0,0,0,0.000,0,0,0.060,0.006,-0.020,-0.040,-0.040,0.015,0.992,0.011,0.002,-0.006,0.000,0.000,0.000,0.000,0.000,0,2,0,2,7,255,1440,250,0,0,-89.533,0.631,-31.382
EX0521-092111,10,C15,prep,2451,2451,0,628049.092,0.685,-0.677,0.194,0.188,0,0,0,0,0,0,0,0,0,0.000,0,0,0.069,0.016,0.040,-0.040,-0.040,0.015,0.994,0.012,0.000,-0.016,0.004,0.000,0.000,0.000,0.000,0,2,0,2,7,255,1440,250,0,0,-89.533,0.631,-31.382
